AccelerometerX,AccelerometerY,AccelerometerZ,Gesture,GyroscopeX,GyroscopeY,GyroscopeZ
-619.0,-156.0,4712.0,A,-310.0,111.0,-65.0
-593.0,-153.0,4793.0,A,-401.0,58.0,-68.0
-564.0,-155.0,4920.0,A,-473.0,-16.0,-68.0
-559.0,-141.0,5060.0,A,-601.0,-132.0,-77.0
-569.0,-97.0,5196.0,A,-779.0,-251.0,-97.0
-558.0,-38.0,5341.0,A,-864.0,-300.0,-115.0
-527.0,11.0,5489.0,A,-761.0,-254.0,-119.0
-516.0,42.0,5594.0,A,-547.0,-174.0,-119.0
-550.0,68.0,5660.0,A,-354.0,-116.0,-132.0
-608.0,106.0,5762.0,A,-174.0,-66.0,-162.0
-646.0,165.0,5961.0,A,85.0,24.0,-197.0
-631.0,228.0,6188.0,A,433.0,140.0,-226.0
-566.0,260.0,6316.0,A,780.0,209.0,-240.0
-478.0,244.0,6299.0,A,1072.0,173.0,-242.0
-405.0,220.0,6223.0,A,1278.0,20.0,-243.0
-380.0,244.0,6173.0,A,1321.0,-243.0,-271.0
-385.0,316.0,6134.0,A,1145.0,-562.0,-340.0
-350.0,370.0,6038.0,A,874.0,-819.0,-438.0
-216.0,365.0,5898.0,A,720.0,-901.0,-524.0
-11.0,328.0,5806.0,A,752.0,-817.0,-578.0
146.0,307.0,5819.0,A,877.0,-658.0,-608.0
163.0,303.0,5892.0,A,1084.0,-451.0,-640.0
52.0,299.0,5956.0,A,1500.0,-117.0,-684.0
-101.0,306.0,5996.0,A,2173.0,375.0,-742.0
-246.0,344.0,6033.0,A,2914.0,910.0,-812.0
-381.0,391.0,6056.0,A,3488.0,1313.0,-890.0
-494.0,429.0,6048.0,A,3824.0,1490.0,-966.0
-539.0,471.0,6018.0,A,3988.0,1434.0,-1022.0
-485.0,517.0,5975.0,A,4016.0,1162.0,-1042.0
-360.0,523.0,5891.0,A,3914.0,740.0,-1033.0
-209.0,459.0,5734.0,A,3724.0,298.0,-1015.0
-56.0,392.0,5522.0,A,3515.0,-44.0,-1012.0
68.0,404.0,5292.0,A,3308.0,-282.0,-1031.0
116.0,475.0,5047.0,A,3123.0,-438.0,-1071.0
62.0,513.0,4816.0,A,3026.0,-451.0,-1132.0
-66.0,505.0,4704.0,A,3092.0,-218.0,-1215.0
-253.0,520.0,4796.0,A,3320.0,248.0,-1305.0
-516.0,577.0,5013.0,A,3657.0,783.0,-1375.0
-831.0,587.0,5176.0,A,4042.0,1210.0,-1403.0
-1073.0,496.0,5193.0,A,4389.0,1456.0,-1388.0
-1132.0,360.0,5116.0,A,4575.0,1501.0,-1330.0
-1041.0,253.0,4985.0,A,4513.0,1341.0,-1231.0
-900.0,155.0,4760.0,A,4248.0,1017.0,-1103.0
-717.0,12.0,4430.0,A,3929.0,648.0,-974.0
-427.0,-165.0,4076.0,A,3667.0,327.0,-859.0
-84.0,-306.0,3759.0,A,3472.0,59.0,-756.0
123.0,-379.0,3443.0,A,3320.0,-160.0,-673.0
115.0,-405.0,3092.0,A,3236.0,-230.0,-649.0
28.0,-412.0,2775.0,A,3290.0,-13.0,-702.0
22.0,-404.0,2557.0,A,3518.0,467.0,-797.0
53.0,-371.0,2379.0,A,3839.0,979.0,-870.0
-19.0,-316.0,2126.0,A,4102.0,1281.0,-904.0
-209.0,-244.0,1796.0,A,4200.0,1320.0,-933.0
-397.0,-171.0,1483.0,A,4126.0,1200.0,-990.0
-527.0,-100.0,1232.0,A,3896.0,1004.0,-1070.0
-642.0,-20.0,1001.0,A,3505.0,749.0,-1151.0
-746.0,72.0,765.0,A,2988.0,462.0,-1212.0
-749.0,141.0,554.0,A,2476.0,214.0,-1238.0
-629.0,158.0,404.0,A,2071.0,14.0,-1216.0
-494.0,158.0,304.0,A,1731.0,-203.0,-1164.0
-454.0,209.0,242.0,A,1385.0,-450.0,-1115.0
-482.0,312.0,219.0,A,1108.0,-588.0,-1094.0
-500.0,400.0,234.0,A,1052.0,-494.0,-1094.0
-514.0,442.0,273.0,A,1195.0,-254.0,-1107.0
-586.0,471.0,336.0,A,1302.0,-93.0,-1135.0
-708.0,513.0,412.0,A,1194.0,-126.0,-1179.0
-809.0,536.0,463.0,A,912.0,-273.0,-1224.0
-871.0,538.0,463.0,A,593.0,-400.0,-1254.0
-947.0,571.0,463.0,A,286.0,-466.0,-1262.0
-1052.0,666.0,547.0,A,-14.0,-470.0,-1255.0
-1108.0,760.0,749.0,A,-296.0,-410.0,-1236.0
-1063.0,792.0,1015.0,A,-555.0,-325.0,-1213.0
-961.0,775.0,1270.0,A,-843.0,-323.0,-1190.0
-882.0,746.0,1466.0,A,-1179.0,-465.0,-1164.0
-829.0,683.0,1610.0,A,-1497.0,-696.0,-1130.0
-783.0,582.0,1755.0,A,-1743.0,-926.0,-1100.0
-790.0,517.0,1963.0,A,-1951.0,-1126.0,-1094.0
-917.0,562.0,2215.0,A,-2164.0,-1291.0,-1112.0
-1109.0,655.0,2414.0,A,-2338.0,-1363.0,-1126.0
-1211.0,679.0,2492.0,A,-2421.0,-1299.0,-1111.0
-1166.0,625.0,2520.0,A,-2455.0,-1166.0,-1060.0
-1117.0,594.0,2621.0,A,-2528.0,-1083.0,-979.0
-1210.0,626.0,2833.0,A,-2647.0,-1067.0,-878.0
-1403.0,654.0,3098.0,A,-2759.0,-1013.0,-780.0
-1531.0,624.0,3376.0,A,-2828.0,-824.0,-705.0
-1543.0,591.0,3672.0,A,-2859.0,-532.0,-652.0
-1541.0,633.0,3967.0,A,-2863.0,-271.0,-589.0
-1612.0,760.0,4202.0,A,-2875.0,-186.0,-505.0
-1717.0,901.0,4337.0,A,-2943.0,-339.0,-416.0
-1775.0,963.0,4377.0,A,-3075.0,-669.0,-341.0
-1742.0,867.0,4359.0,A,-3222.0,-1067.0,-261.0
-1612.0,628.0,4376.0,A,-3378.0,-1486.0,-155.0
-1408.0,380.0,4553.0,A,-3604.0,-1919.0,-25.0
-1242.0,287.0,4899.0,A,-3906.0,-2277.0,99.0
-1249.0,365.0,5213.0,A,-4137.0,-2353.0,201.0
-1426.0,488.0,5293.0,A,-4154.0,-2037.0,260.0
-1595.0,555.0,5231.0,A,-3981.0,-1465.0,265.0
-1633.0,599.0,5336.0,A,-3760.0,-905.0,225.0
-1609.0,670.0,5719.0,A,-3539.0,-492.0,196.0
-1642.0,729.0,6122.0,A,-3238.0,-194.0,238.0
-1680.0,701.0,6256.0,A,-2791.0,23.0,364.0
-1599.0,610.0,6189.0,A,-2276.0,129.0,532.0
-1431.0,559.0,6224.0,A,-1888.0,93.0,683.0
-1360.0,603.0,6474.0,A,-1835.0,-41.0,779.0
-1442.0,686.0,6753.0,A,-2177.0,-224.0,797.0
-1516.0,724.0,6864.0,A,-2738.0,-422.0,751.0
-1422.0,683.0,6830.0,A,-3200.0,-610.0,681.0
-1215.0,607.0,6811.0,A,-3380.0,-774.0,635.0
-1058.0,563.0,6879.0,A,-3348.0,-926.0,618.0
-1013.0,586.0,6974.0,A,-3233.0,-1056.0,608.0
-993.0,631.0,6996.0,A,-3002.0,-1068.0,585.0
-920.0,622.0,6907.0,A,-2571.0,-894.0,556.0
-802.0,532.0,6729.0,A,-2028.0,-631.0,524.0
-702.0,426.0,6519.0,A,-1592.0,-485.0,483.0
-655.0,376.0,6306.0,A,-1342.0,-522.0,425.0
-648.0,377.0,6076.0,A,-1153.0,-601.0,359.0
-642.0,374.0,5821.0,A,-899.0,-566.0,290.0
-611.0,330.0,5571.0,A,-612.0,-429.0,221.0
-570.0,268.0,5363.0,A,-390.0,-302.0,152.0
-575.0,220.0,5192.0,A,-269.0,-246.0,88.0
-649.0,205.0,5029.0,A,-233.0,-240.0,28.0
-752.0,208.0,4868.0,A,-242.0,-245.0,-33.0
-812.0,197.0,4726.0,A,-225.0,-216.0,-95.0
-805.0,141.0,4592.0,A,-116.0,-129.0,-139.0
-774.0,58.0,4450.0,A,46.0,-19.0,-151.0
-768.0,-1.0,4319.0,A,156.0,35.0,-142.0
-787.0,-16.0,4249.0,A,179.0,30.0,-127.0
-791.0,-31.0,4239.0,A,205.0,50.0,-117.0
-750.0,-88.0,4229.0,A,285.0,143.0,-107.0
-686.0,-167.0,4185.0,A,354.0,235.0,-95.0
-650.0,-211.0,4140.0,A,336.0,241.0,-83.0
-657.0,-212.0,4129.0,A,285.0,203.0,-72.0
-673.0,-211.0,4141.0,A,295.0,219.0,-67.0
-668.0,-234.0,4138.0,A,367.0,292.0,-67.0
-661.0,-261.0,4113.0,A,415.0,327.0,-69.0
-679.0,-274.0,4083.0,A,402.0,276.0,-65.0
-710.0,-273.0,4072.0,A,365.0,187.0,-54.0
-719.0,-270.0,4089.0,A,335.0,125.0,-37.0
-705.0,-263.0,4133.0,A,296.0,93.0,-18.0
-696.0,-259.0,4174.0,A,245.0,73.0,6.0
-708.0,-263.0,4187.0,A,206.0,56.0,35.0
-806.0,-129.0,4356.0,A,-236.0,-103.0,-8.0
-791.0,-133.0,4374.0,A,-291.0,-140.0,-2.0
-803.0,-142.0,4354.0,A,-275.0,-109.0,7.0
-828.0,-155.0,4329.0,A,-227.0,-47.0,20.0
-847.0,-149.0,4327.0,A,-183.0,6.0,28.0
-859.0,-107.0,4343.0,A,-146.0,42.0,33.0
-866.0,-57.0,4366.0,A,-118.0,67.0,36.0
-863.0,-33.0,4414.0,A,-127.0,67.0,42.0
-854.0,-28.0,4485.0,A,-160.0,37.0,53.0
-855.0,-3.0,4552.0,A,-172.0,1.0,69.0
-864.0,52.0,4610.0,A,-166.0,-14.0,81.0
-866.0,117.0,4695.0,A,-215.0,-28.0,82.0
-850.0,172.0,4817.0,A,-350.0,-66.0,71.0
-833.0,233.0,4937.0,A,-475.0,-118.0,64.0
-837.0,308.0,5034.0,A,-488.0,-171.0,70.0
-866.0,376.0,5159.0,A,-393.0,-243.0,85.0
-893.0,426.0,5342.0,A,-258.0,-341.0,90.0
-901.0,466.0,5527.0,A,-94.0,-407.0,77.0
-889.0,506.0,5647.0,A,102.0,-370.0,50.0
-868.0,527.0,5733.0,A,276.0,-253.0,17.0
-834.0,534.0,5866.0,A,372.0,-140.0,-17.0
-791.0,581.0,6052.0,A,448.0,-64.0,-46.0
-765.0,717.0,6215.0,A,586.0,16.0,-68.0
-775.0,895.0,6311.0,A,750.0,120.0,-87.0
-801.0,1010.0,6376.0,A,831.0,205.0,-116.0
-798.0,1014.0,6443.0,A,844.0,236.0,-155.0
-761.0,961.0,6494.0,A,913.0,231.0,-192.0
-722.0,899.0,6488.0,A,1080.0,195.0,-219.0
-692.0,818.0,6420.0,A,1241.0,112.0,-245.0
-629.0,702.0,6330.0,A,1336.0,-2.0,-276.0
-510.0,608.0,6289.0,A,1433.0,-80.0,-311.0
-388.0,596.0,6349.0,A,1604.0,-83.0,-336.0
-329.0,648.0,6487.0,A,1806.0,-41.0,-355.0
-333.0,691.0,6604.0,A,1977.0,8.0,-378.0
-343.0,703.0,6627.0,A,2135.0,71.0,-418.0
-334.0,706.0,6573.0,A,2306.0,129.0,-472.0
-330.0,696.0,6511.0,A,2454.0,121.0,-535.0
-360.0,647.0,6458.0,A,2557.0,23.0,-598.0
-439.0,590.0,6395.0,A,2690.0,-85.0,-659.0
-578.0,594.0,6322.0,A,2921.0,-116.0,-713.0
-756.0,664.0,6252.0,A,3199.0,-70.0,-761.0
-879.0,707.0,6154.0,A,3412.0,-9.0,-795.0
-864.0,662.0,5992.0,A,3543.0,40.0,-800.0
-734.0,573.0,5789.0,A,3667.0,95.0,-761.0
-589.0,503.0,5608.0,A,3839.0,165.0,-686.0
-463.0,425.0,5443.0,A,4058.0,240.0,-596.0
-299.0,284.0,5229.0,A,4314.0,309.0,-514.0
-94.0,106.0,4941.0,A,4567.0,315.0,-447.0
53.0,-20.0,4633.0,A,4722.0,178.0,-408.0
66.0,-72.0,4337.0,A,4689.0,-112.0,-412.0
15.0,-116.0,4026.0,A,4517.0,-422.0,-468.0
17.0,-215.0,3690.0,A,4346.0,-591.0,-557.0
84.0,-360.0,3393.0,A,4260.0,-590.0,-651.0
132.0,-495.0,3177.0,A,4217.0,-504.0,-731.0
118.0,-582.0,2988.0,A,4163.0,-395.0,-799.0
68.0,-608.0,2741.0,A,4111.0,-240.0,-860.0
22.0,-591.0,2434.0,A,4093.0,-19.0,-922.0
-12.0,-557.0,2137.0,A,4073.0,234.0,-985.0
-33.0,-526.0,1870.0,A,3991.0,469.0,-1054.0
-52.0,-479.0,1583.0,A,3818.0,647.0,-1124.0
-106.0,-395.0,1231.0,A,3568.0,733.0,-1192.0
-221.0,-289.0,854.0,A,3256.0,688.0,-1257.0
-351.0,-204.0,524.0,A,2907.0,527.0,-1326.0
-426.0,-157.0,283.0,A,2568.0,317.0,-1391.0
-430.0,-129.0,116.0,A,2283.0,133.0,-1435.0
-407.0,-104.0,12.0,A,2066.0,14.0,-1439.0
-382.0,-89.0,-7.0,A,1937.0,-9.0,-1408.0
-357.0,-78.0,85.0,A,1917.0,78.0,-1358.0
-344.0,-43.0,262.0,A,1978.0,224.0,-1314.0
-382.0,34.0,442.0,A,1998.0,319.0,-1292.0
-478.0,140.0,553.0,A,1861.0,282.0,-1301.0
-602.0,245.0,596.0,A,1576.0,122.0,-1331.0
-710.0,338.0,605.0,A,1250.0,-101.0,-1367.0
-777.0,403.0,594.0,A,939.0,-362.0,-1391.0
-796.0,436.0,566.0,A,613.0,-655.0,-1401.0
-800.0,454.0,578.0,A,256.0,-934.0,-1392.0
-823.0,500.0,709.0,A,-63.0,-1124.0,-1361.0
-849.0,575.0,953.0,A,-283.0,-1179.0,-1305.0
-812.0,626.0,1189.0,A,-424.0,-1123.0,-1239.0
-711.0,606.0,1324.0,A,-540.0,-1017.0,-1180.0
-664.0,551.0,1406.0,A,-640.0,-924.0,-1140.0
-772.0,549.0,1569.0,A,-733.0,-885.0,-1128.0
-994.0,651.0,1847.0,A,-885.0,-923.0,-1155.0
-1198.0,806.0,2134.0,A,-1147.0,-1019.0,-1212.0
-1323.0,916.0,2308.0,A,-1467.0,-1127.0,-1261.0
-1380.0,915.0,2373.0,A,-1743.0,-1212.0,-1254.0
-1364.0,817.0,2422.0,A,-1964.0,-1287.0,-1181.0
-1257.0,691.0,2525.0,A,-2189.0,-1372.0,-1069.0
-1130.0,605.0,2670.0,A,-2431.0,-1439.0,-955.0
-1087.0,575.0,2816.0,A,-2628.0,-1404.0,-851.0
-1129.0,580.0,2947.0,A,-2760.0,-1223.0,-762.0
-1152.0,598.0,3090.0,A,-2874.0,-949.0,-696.0
-1135.0,637.0,3270.0,A,-3000.0,-693.0,-667.0
-1163.0,703.0,3479.0,A,-3103.0,-524.0,-669.0
-1269.0,768.0,3652.0,A,-3174.0,-449.0,-686.0
-1347.0,790.0,3729.0,A,-3242.0,-444.0,-692.0
-1322.0,782.0,3731.0,A,-3309.0,-492.0,-670.0
-1274.0,820.0,3757.0,A,-3341.0,-574.0,-616.0
-1328.0,968.0,3851.0,A,-3380.0,-678.0,-549.0
-1467.0,1158.0,3932.0,A,-3527.0,-795.0,-494.0
-1564.0,1219.0,3913.0,A,-3790.0,-920.0,-465.0
-1532.0,1031.0,3908.0,A,-4043.0,-1036.0,-442.0
-1403.0,688.0,4167.0,A,-4206.0,-1148.0,-396.0
-1284.0,431.0,4784.0,A,-4323.0,-1277.0,-311.0
-1307.0,441.0,5544.0,A,-4396.0,-1383.0,-203.0
-1536.0,675.0,6157.0,A,-4284.0,-1301.0,-108.0
-1884.0,949.0,6554.0,A,-3921.0,-889.0,-75.0
-2152.0,1119.0,6854.0,A,-3506.0,-229.0,-116.0
-2215.0,1169.0,7124.0,A,-3297.0,369.0,-187.0
-2115.0,1137.0,7303.0,A,-3271.0,646.0,-199.0
-1955.0,1055.0,7375.0,A,-3195.0,582.0,-101.0
-1770.0,951.0,7411.0,A,-2996.0,287.0,85.0
-1580.0,873.0,7433.0,A,-2866.0,-176.0,284.0
-1451.0,846.0,7354.0,A,-2947.0,-775.0,435.0
-1431.0,847.0,7148.0,A,-3122.0,-1348.0,517.0
-1445.0,819.0,6928.0,A,-3161.0,-1645.0,534.0
-1384.0,739.0,6791.0,A,-2971.0,-1553.0,509.0
-1236.0,622.0,6674.0,A,-2598.0,-1188.0,472.0
-1081.0,503.0,6492.0,A,-2130.0,-771.0,456.0
-961.0,414.0,6297.0,A,-1672.0,-449.0,459.0
-871.0,369.0,6185.0,A,-1351.0,-275.0,454.0
-812.0,349.0,6101.0,A,-1208.0,-242.0,417.0
-794.0,319.0,5928.0,A,-1147.0,-302.0,355.0
-790.0,268.0,5685.0,A,-1043.0,-378.0,287.0
-780.0,230.0,5507.0,A,-885.0,-419.0,225.0
-801.0,226.0,5403.0,A,-732.0,-417.0,165.0
-882.0,233.0,5238.0,A,-603.0,-378.0,107.0
-951.0,208.0,4960.0,A,-463.0,-294.0,54.0
-918.0,150.0,4708.0,A,-306.0,-185.0,17.0
-803.0,93.0,4605.0,A,-156.0,-103.0,5.0
-717.0,55.0,4586.0,A,-26.0,-71.0,22.0
-694.0,28.0,4531.0,A,98.0,-55.0,51.0
-673.0,0.0,4442.0,A,206.0,-11.0,73.0
-624.0,-23.0,4403.0,A,267.0,38.0,71.0
-601.0,-45.0,4406.0,A,266.0,41.0,53.0
-637.0,-70.0,4377.0,A,229.0,-11.0,27.0
-687.0,-95.0,4310.0,A,190.0,-65.0,1.0
-704.0,-106.0,4272.0,A,173.0,-71.0,-23.0
-694.0,-113.0,4278.0,A,174.0,-30.0,-44.0
-675.0,-137.0,4261.0,A,178.0,21.0,-52.0
-642.0,-180.0,4200.0,A,166.0,60.0,-43.0
-607.0,-209.0,4160.0,A,146.0,83.0,-27.0
-604.0,-201.0,4190.0,A,138.0,107.0,-14.0
-640.0,-170.0,4250.0,A,152.0,140.0,-12.0
-675.0,-148.0,4269.0,A,169.0,173.0,-16.0
-684.0,-145.0,4242.0,A,175.0,182.0,-23.0
-740.0,-103.0,4608.0,A,-242.0,95.0,68.0
-744.0,-124.0,4640.0,A,-297.0,31.0,87.0
-747.0,-108.0,4769.0,A,-476.0,-99.0,90.0
-715.0,-80.0,4905.0,A,-567.0,-155.0,81.0
-665.0,-85.0,4931.0,A,-445.0,-81.0,79.0
-632.0,-110.0,4876.0,A,-255.0,20.0,91.0
-600.0,-112.0,4875.0,A,-181.0,68.0,91.0
-557.0,-73.0,4982.0,A,-198.0,102.0,60.0
-562.0,-1.0,5124.0,A,-179.0,168.0,4.0
-670.0,96.0,5245.0,A,-149.0,219.0,-62.0
-786.0,195.0,5396.0,A,-201.0,235.0,-146.0
-742.0,237.0,5628.0,A,-260.0,291.0,-242.0
-531.0,204.0,5885.0,A,-141.0,414.0,-314.0
-354.0,158.0,6069.0,A,123.0,446.0,-327.0
-360.0,186.0,6199.0,A,253.0,237.0,-316.0
-474.0,280.0,6369.0,A,86.0,-119.0,-357.0
-536.0,362.0,6601.0,A,-165.0,-367.0,-487.0
-529.0,387.0,6808.0,A,-161.0,-386.0,-649.0
-543.0,392.0,6925.0,A,216.0,-260.0,-768.0
-596.0,407.0,6970.0,A,829.0,-86.0,-815.0
-621.0,422.0,6976.0,A,1491.0,118.0,-822.0
-614.0,425.0,6933.0,A,2057.0,309.0,-824.0
-651.0,442.0,6872.0,A,2434.0,393.0,-841.0
-760.0,493.0,6897.0,A,2631.0,365.0,-874.0
-864.0,560.0,7081.0,A,2807.0,353.0,-913.0
-871.0,606.0,7338.0,A,3101.0,425.0,-937.0
-763.0,597.0,7483.0,A,3453.0,453.0,-939.0
-574.0,499.0,7389.0,A,3658.0,230.0,-930.0
-370.0,327.0,7072.0,A,3619.0,-304.0,-934.0
-253.0,169.0,6630.0,A,3434.0,-1011.0,-970.0
-288.0,128.0,6174.0,A,3287.0,-1643.0,-1053.0
-419.0,190.0,5785.0,A,3315.0,-1950.0,-1180.0
-502.0,246.0,5526.0,A,3576.0,-1793.0,-1322.0
-481.0,241.0,5429.0,A,4009.0,-1234.0,-1420.0
-425.0,230.0,5502.0,A,4456.0,-493.0,-1434.0
-403.0,253.0,5700.0,A,4810.0,254.0,-1362.0
-374.0,262.0,5932.0,A,5151.0,972.0,-1234.0
-285.0,209.0,6091.0,A,5599.0,1627.0,-1076.0
-169.0,125.0,6091.0,A,6091.0,2065.0,-923.0
-104.0,37.0,5853.0,A,6406.0,2116.0,-817.0
-96.0,-93.0,5331.0,A,6434.0,1777.0,-788.0
-106.0,-272.0,4584.0,A,6235.0,1183.0,-828.0
-129.0,-383.0,3799.0,A,5853.0,462.0,-910.0
-197.0,-329.0,3152.0,A,5261.0,-282.0,-1014.0
-285.0,-198.0,2641.0,A,4581.0,-855.0,-1133.0
-321.0,-154.0,2166.0,A,4135.0,-1022.0,-1234.0
-278.0,-205.0,1716.0,A,4143.0,-729.0,-1281.0
-217.0,-209.0,1392.0,A,4484.0,-160.0,-1258.0
-195.0,-112.0,1215.0,A,4904.0,460.0,-1190.0
-201.0,-17.0,1094.0,A,5315.0,1046.0,-1102.0
-179.0,-9.0,974.0,A,5742.0,1578.0,-1009.0
-113.0,-33.0,905.0,A,6062.0,1965.0,-919.0
-38.0,-4.0,866.0,A,6061.0,2098.0,-854.0
-6.0,48.0,718.0,A,5703.0,1970.0,-831.0
-29.0,61.0,405.0,A,5162.0,1669.0,-860.0
-91.0,51.0,99.0,A,4552.0,1248.0,-938.0
-169.0,90.0,-32.0,A,3837.0,720.0,-1056.0
-264.0,183.0,-46.0,A,3023.0,155.0,-1186.0
-378.0,271.0,-94.0,A,2270.0,-287.0,-1297.0
-488.0,321.0,-155.0,A,1708.0,-501.0,-1365.0
-546.0,362.0,-104.0,A,1285.0,-524.0,-1395.0
-536.0,425.0,52.0,A,890.0,-467.0,-1396.0
-497.0,506.0,173.0,A,533.0,-402.0,-1377.0
-496.0,578.0,218.0,A,271.0,-354.0,-1342.0
-544.0,633.0,278.0,A,68.0,-368.0,-1309.0
-596.0,676.0,395.0,A,-170.0,-481.0,-1293.0
-609.0,725.0,491.0,A,-432.0,-656.0,-1295.0
-612.0,782.0,524.0,A,-607.0,-785.0,-1297.0
-670.0,833.0,551.0,A,-673.0,-815.0,-1292.0
-808.0,864.0,624.0,A,-752.0,-794.0,-1290.0
-971.0,900.0,731.0,A,-974.0,-800.0,-1309.0
-1096.0,977.0,893.0,A,-1325.0,-831.0,-1347.0
-1186.0,1093.0,1160.0,A,-1686.0,-834.0,-1388.0
-1281.0,1197.0,1507.0,A,-1964.0,-791.0,-1411.0
-1374.0,1243.0,1823.0,A,-2151.0,-743.0,-1410.0
-1394.0,1218.0,2050.0,A,-2272.0,-736.0,-1377.0
-1311.0,1127.0,2219.0,A,-2348.0,-796.0,-1303.0
-1194.0,981.0,2356.0,A,-2388.0,-918.0,-1183.0
-1138.0,829.0,2445.0,A,-2409.0,-1058.0,-1043.0
-1153.0,743.0,2519.0,A,-2429.0,-1120.0,-925.0
-1194.0,765.0,2640.0,A,-2468.0,-1043.0,-862.0
-1244.0,866.0,2787.0,A,-2554.0,-879.0,-846.0
-1323.0,981.0,2876.0,A,-2724.0,-767.0,-850.0
-1405.0,1052.0,2926.0,A,-2972.0,-784.0,-852.0
-1434.0,1046.0,3038.0,A,-3236.0,-893.0,-844.0
-1420.0,956.0,3203.0,A,-3423.0,-1016.0,-820.0
-1456.0,824.0,3275.0,A,-3486.0,-1112.0,-781.0
-1594.0,719.0,3218.0,A,-3435.0,-1147.0,-735.0
-1773.0,688.0,3194.0,A,-3329.0,-1085.0,-699.0
-1903.0,714.0,3337.0,A,-3260.0,-953.0,-678.0
-1968.0,753.0,3577.0,A,-3337.0,-875.0,-669.0
-1991.0,768.0,3826.0,A,-3597.0,-940.0,-652.0
-1962.0,746.0,4153.0,A,-3953.0,-1095.0,-611.0
-1865.0,694.0,4636.0,A,-4237.0,-1205.0,-531.0
-1762.0,656.0,5142.0,A,-4346.0,-1212.0,-419.0
-1745.0,674.0,5457.0,A,-4300.0,-1152.0,-299.0
-1825.0,741.0,5580.0,A,-4193.0,-1079.0,-211.0
-1911.0,792.0,5678.0,A,-4120.0,-1023.0,-176.0
-1940.0,777.0,5822.0,A,-4155.0,-1032.0,-192.0
-1936.0,700.0,5929.0,A,-4302.0,-1134.0,-225.0
-1951.0,603.0,5990.0,A,-4460.0,-1264.0,-238.0
-1970.0,515.0,6143.0,A,-4472.0,-1285.0,-205.0
-1955.0,464.0,6471.0,A,-4271.0,-1123.0,-132.0
-1913.0,468.0,6833.0,A,-3920.0,-814.0,-47.0
-1891.0,512.0,7022.0,A,-3521.0,-458.0,21.0
-1887.0,533.0,6985.0,A,-3137.0,-159.0,63.0
-1846.0,488.0,6849.0,A,-2840.0,-25.0,76.0
-1730.0,395.0,6753.0,A,-2692.0,-111.0,69.0
-1587.0,318.0,6734.0,A,-2656.0,-340.0,59.0
-1490.0,288.0,6729.0,A,-2577.0,-544.0,65.0
-1457.0,285.0,6662.0,A,-2367.0,-630.0,84.0
-1431.0,266.0,6499.0,A,-2105.0,-642.0,92.0
-1369.0,215.0,6276.0,A,-1910.0,-647.0,74.0
-1290.0,156.0,6052.0,A,-1763.0,-633.0,39.0
-1240.0,134.0,5859.0,A,-1575.0,-573.0,10.0
-1225.0,160.0,5684.0,A,-1344.0,-497.0,-4.0
-1220.0,193.0,5503.0,A,-1143.0,-443.0,-13.0
-1207.0,184.0,5314.0,A,-970.0,-383.0,-21.0
-1195.0,140.0,5130.0,A,-771.0,-282.0,-18.0
-1181.0,104.0,4971.0,A,-560.0,-179.0,-5.0
-1152.0,88.0,4840.0,A,-420.0,-142.0,9.0
-1108.0,62.0,4729.0,A,-359.0,-153.0,24.0
-1071.0,21.0,4637.0,A,-297.0,-137.0,47.0
-1047.0,-2.0,4585.0,A,-186.0,-66.0,76.0
-1039.0,-257.0,4221.0,A,-105.0,-80.0,98.0
-1163.0,-312.0,4207.0,A,-81.0,-101.0,108.0
-1027.0,-248.0,4223.0,A,-60.0,-75.0,113.0
-548.0,-27.0,4265.0,A,-86.0,-3.0,104.0
-61.0,190.0,4318.0,A,-133.0,57.0,93.0
90.0,241.0,4355.0,A,-144.0,62.0,89.0
-28.0,175.0,4373.0,A,-115.0,34.0,89.0
-114.0,149.0,4384.0,A,-97.0,17.0,81.0
-68.0,193.0,4401.0,A,-101.0,13.0,64.0
-24.0,207.0,4419.0,A,-87.0,-14.0,48.0
-54.0,166.0,4434.0,A,-38.0,-71.0,44.0
-75.0,144.0,4438.0,A,-2.0,-115.0,47.0
-49.0,175.0,4421.0,A,-10.0,-114.0,55.0
-43.0,200.0,4382.0,A,-33.0,-77.0,63.0
-76.0,188.0,4353.0,A,-33.0,-40.0,72.0
-85.0,177.0,4360.0,A,-28.0,-26.0,77.0
-51.0,179.0,4393.0,A,-41.0,-38.0,79.0
-36.0,165.0,4412.0,A,-61.0,-59.0,77.0
-55.0,137.0,4408.0,A,-64.0,-71.0,72.0
-55.0,139.0,4401.0,A,-61.0,-63.0,60.0
-28.0,166.0,4399.0,A,-65.0,-47.0,47.0
-33.0,169.0,4395.0,A,-61.0,-39.0,35.0
-77.0,142.0,4385.0,A,-34.0,-46.0,30.0
-88.0,141.0,4374.0,A,-12.0,-53.0,33.0
-51.0,169.0,4353.0,A,-15.0,-54.0,41.0
-29.0,171.0,4325.0,A,-29.0,-54.0,56.0
-51.0,132.0,4313.0,A,-26.0,-64.0,68.0
-56.0,112.0,4336.0,A,-17.0,-75.0,72.0
-22.0,135.0,4363.0,A,-22.0,-75.0,64.0
-4.0,153.0,4360.0,A,-40.0,-55.0,55.0
-31.0,135.0,4344.0,A,-56.0,-23.0,50.0
-49.0,124.0,4352.0,A,-74.0,7.0,49.0
-30.0,142.0,4370.0,A,-87.0,17.0,45.0
-22.0,151.0,4365.0,A,-77.0,-1.0,41.0
-53.0,124.0,4344.0,A,-47.0,-34.0,41.0
-69.0,102.0,4334.0,A,-36.0,-50.0,50.0
-38.0,111.0,4318.0,A,-58.0,-44.0,63.0
-13.0,123.0,4283.0,A,-82.0,-35.0,74.0
-37.0,109.0,4273.0,A,-80.0,-43.0,78.0
-63.0,102.0,4330.0,A,-81.0,-52.0,77.0
-45.0,122.0,4396.0,A,-116.0,-38.0,76.0
-18.0,138.0,4392.0,A,-166.0,1.0,78.0
-31.0,124.0,4348.0,A,-189.0,36.0,77.0
-55.0,110.0,4357.0,A,-170.0,41.0,67.0
-47.0,126.0,4403.0,A,-125.0,9.0,46.0
-28.0,141.0,4396.0,A,-73.0,-40.0,30.0
-37.0,132.0,4346.0,A,-40.0,-83.0,27.0
-51.0,129.0,4363.0,A,-43.0,-95.0,38.0
-36.0,157.0,4445.0,A,-67.0,-80.0,46.0
-12.0,177.0,4470.0,A,-64.0,-63.0,45.0
-25.0,156.0,4400.0,A,-29.0,-65.0,37.0
-60.0,127.0,4363.0,A,-5.0,-78.0,36.0
-73.0,135.0,4426.0,A,-20.0,-73.0,40.0
-53.0,153.0,4484.0,A,-38.0,-50.0,46.0
-30.0,135.0,4436.0,A,-33.0,-28.0,49.0
-15.0,92.0,4360.0,A,-28.0,-20.0,53.0
-8.0,77.0,4365.0,A,-50.0,-18.0,56.0
-19.0,91.0,4418.0,A,-69.0,-12.0,54.0
-50.0,98.0,4425.0,A,-59.0,1.0,42.0
-73.0,85.0,4396.0,A,-43.0,20.0,31.0
-71.0,73.0,4392.0,A,-57.0,42.0,27.0
-58.0,70.0,4400.0,A,-80.0,54.0,36.0
-50.0,71.0,4365.0,A,-81.0,45.0,50.0
-38.0,72.0,4307.0,A,-72.0,22.0,67.0
-27.0,75.0,4275.0,A,-85.0,5.0,77.0
-41.0,66.0,4263.0,A,-104.0,3.0,79.0
-76.0,48.0,4251.0,A,-96.0,1.0,70.0
-82.0,41.0,4266.0,A,-64.0,-8.0,61.0
-49.0,53.0,4315.0,A,-47.0,-22.0,55.0
-30.0,52.0,4340.0,A,-57.0,-24.0,53.0
-58.0,27.0,4312.0,A,-81.0,-8.0,50.0
-81.0,10.0,4300.0,A,-107.0,19.0,47.0
-59.0,29.0,4358.0,A,-130.0,39.0,44.0
-33.0,57.0,4414.0,A,-131.0,26.0,45.0
-55.0,54.0,4384.0,A,-113.0,-8.0,48.0
-90.0,38.0,4315.0,A,-105.0,-23.0,54.0
-79.0,47.0,4309.0,A,-125.0,3.0,61.0
-32.0,75.0,4361.0,A,-138.0,39.0,68.0
-6.0,83.0,4389.0,A,-118.0,32.0,71.0
-6.0,72.0,4372.0,A,-88.0,-16.0,76.0
-2.0,67.0,4354.0,A,-81.0,-66.0,80.0
6.0,73.0,4342.0,A,-79.0,-87.0,79.0
-5.0,72.0,4325.0,A,-59.0,-88.0,68.0
-22.0,64.0,4325.0,A,-39.0,-79.0,54.0
-15.0,58.0,4367.0,A,-58.0,-54.0,43.0
0.0,51.0,4404.0,A,-103.0,-28.0,41.0
-8.0,34.0,4391.0,A,-134.0,-26.0,42.0
-18.0,25.0,4352.0,A,-143.0,-49.0,46.0
1.0,33.0,4334.0,A,-155.0,-69.0,51.0
26.0,36.0,4325.0,A,-174.0,-80.0,54.0
6.0,9.0,4315.0,A,-199.0,-94.0,49.0
-28.0,-22.0,4345.0,A,-245.0,-98.0,41.0
-14.0,-21.0,4434.0,A,-321.0,-47.0,31.0
24.0,1.0,4526.0,A,-402.0,53.0,25.0
-12.0,1.0,4613.0,A,-457.0,137.0,24.0
-138.0,-17.0,4780.0,A,-510.0,173.0,38.0
-249.0,-3.0,5065.0,A,-602.0,226.0,72.0
-253.0,76.0,5371.0,A,-730.0,355.0,134.0
-179.0,195.0,5636.0,A,-839.0,514.0,224.0
-78.0,312.0,5964.0,A,-891.0,625.0,337.0
57.0,419.0,6430.0,A,-880.0,714.0,451.0
245.0,550.0,6931.0,A,-819.0,889.0,546.0
411.0,742.0,7372.0,A,-713.0,1157.0,617.0
459.0,993.0,7854.0,A,-573.0,1378.0,691.0
383.0,1219.0,8447.0,A,-391.0,1407.0,794.0
275.0,1319.0,8944.0,A,-144.0,1254.0,935.0
224.0,1279.0,9109.0,A,202.0,1002.0,1102.0
275.0,1209.0,9053.0,A,688.0,650.0,1281.0
438.0,1203.0,9036.0,A,1344.0,102.0,1449.0
683.0,1221.0,9001.0,A,2134.0,-635.0,1579.0
908.0,1153.0,8649.0,A,2897.0,-1342.0,1653.0
1010.0,981.0,7986.0,A,3460.0,-1748.0,1680.0
990.0,792.0,7369.0,A,3806.0,-1773.0,1661.0
941.0,657.0,6973.0,A,4070.0,-1583.0,1587.0
905.0,558.0,6576.0,A,4327.0,-1400.0,1452.0
825.0,462.0,6029.0,A,4521.0,-1356.0,1287.0
666.0,368.0,5536.0,A,4641.0,-1506.0,1121.0
512.0,288.0,5281.0,A,4821.0,-1869.0,954.0
445.0,205.0,5067.0,A,5127.0,-2341.0,774.0
409.0,113.0,4647.0,A,5383.0,-2671.0,602.0
293.0,30.0,4139.0,A,5369.0,-2653.0,476.0
130.0,-32.0,3830.0,A,5150.0,-2369.0,398.0
60.0,-99.0,3719.0,A,4999.0,-2102.0,327.0
99.0,-185.0,3558.0,A,5043.0,-2030.0,235.0
82.0,-271.0,3270.0,A,5141.0,-2067.0,125.0
-79.0,-344.0,2994.0,A,5132.0,-2055.0,14.0
-253.0,-413.0,2782.0,A,5002.0,-1953.0,-90.0
-294.0,-481.0,2513.0,A,4792.0,-1815.0,-173.0
-273.0,-512.0,2140.0,A,4496.0,-1674.0,-211.0
-346.0,-491.0,1777.0,A,4142.0,-1560.0,-224.0
-479.0,-447.0,1515.0,A,3827.0,-1521.0,-259.0
-512.0,-416.0,1304.0,A,3596.0,-1546.0,-331.0
-431.0,-382.0,1088.0,A,3366.0,-1507.0,-392.0
-384.0,-312.0,892.0,A,3067.0,-1310.0,-403.0
-402.0,-205.0,746.0,A,2752.0,-1043.0,-382.0
-353.0,-96.0,623.0,A,2518.0,-879.0,-375.0
-185.0,0.0,514.0,A,2358.0,-853.0,-389.0
-36.0,93.0,451.0,A,2206.0,-852.0,-404.0
-9.0,176.0,437.0,A,2033.0,-801.0,-413.0
-5.0,234.0,426.0,A,1851.0,-757.0,-435.0
78.0,268.0,406.0,A,1634.0,-775.0,-463.0
184.0,309.0,400.0,A,1343.0,-810.0,-473.0
228.0,380.0,403.0,A,983.0,-781.0,-453.0
273.0,469.0,365.0,A,604.0,-683.0,-425.0
390.0,547.0,292.0,A,241.0,-550.0,-416.0
474.0,601.0,248.0,A,-98.0,-387.0,-441.0
372.0,637.0,262.0,A,-414.0,-152.0,-503.0
142.0,668.0,291.0,A,-730.0,170.0,-593.0
-26.0,699.0,322.0,A,-1084.0,531.0,-680.0
-73.0,735.0,411.0,A,-1482.0,833.0,-732.0
-109.0,767.0,602.0,A,-1869.0,997.0,-741.0
-190.0,785.0,843.0,A,-2203.0,1037.0,-729.0
-240.0,780.0,1053.0,A,-2494.0,1042.0,-704.0
-180.0,773.0,1226.0,A,-2773.0,1093.0,-657.0
-27.0,789.0,1433.0,A,-3023.0,1171.0,-581.0
166.0,833.0,1715.0,A,-3214.0,1209.0,-506.0
334.0,867.0,2024.0,A,-3360.0,1173.0,-473.0
381.0,852.0,2254.0,A,-3517.0,1099.0,-505.0
271.0,793.0,2362.0,A,-3710.0,1021.0,-581.0
131.0,739.0,2429.0,A,-3924.0,918.0,-660.0
121.0,723.0,2601.0,A,-4120.0,705.0,-707.0
213.0,727.0,2928.0,A,-4276.0,302.0,-717.0
235.0,711.0,3304.0,A,-4409.0,-248.0,-701.0
157.0,676.0,3583.0,A,-4585.0,-706.0,-665.0
129.0,658.0,3738.0,A,-4865.0,-765.0,-602.0
226.0,675.0,3845.0,A,-5230.0,-344.0,-524.0
315.0,681.0,3979.0,A,-5581.0,296.0,-460.0
290.0,619.0,4191.0,A,-5848.0,775.0,-439.0
219.0,484.0,4572.0,A,-6023.0,891.0,-468.0
161.0,335.0,5192.0,A,-6104.0,676.0,-544.0
-14.0,224.0,5928.0,A,-6036.0,265.0,-650.0
-411.0,152.0,6483.0,A,-5807.0,-134.0,-751.0
-820.0,89.0,6688.0,A,-5515.0,-270.0,-779.0
-868.0,43.0,6745.0,A,-5282.0,-47.0,-685.0
-449.0,44.0,7043.0,A,-5097.0,267.0,-472.0
138.0,84.0,7719.0,A,-4842.0,256.0,-206.0
533.0,99.0,8488.0,A,-4459.0,-142.0,20.0
624.0,52.0,8950.0,A,-4038.0,-493.0,123.0
530.0,-5.0,8979.0,A,-3693.0,-340.0,71.0
398.0,13.0,8756.0,A,-3421.0,267.0,-87.0
301.0,111.0,8486.0,A,-3111.0,859.0,-240.0
277.0,204.0,8201.0,A,-2678.0,1051.0,-299.0
342.0,226.0,7834.0,A,-2144.0,838.0,-256.0
486.0,203.0,7385.0,A,-1611.0,468.0,-171.0
659.0,188.0,6928.0,A,-1168.0,179.0,-97.0
792.0,186.0,6524.0,A,-845.0,88.0,-64.0
828.0,165.0,6171.0,A,-606.0,183.0,-80.0
771.0,122.0,5851.0,A,-402.0,360.0,-144.0
687.0,80.0,5560.0,A,-200.0,491.0,-224.0
630.0,48.0,5318.0,A,-2.0,529.0,-291.0
564.0,0.0,5139.0,A,169.0,508.0,-338.0
423.0,-69.0,5020.0,A,304.0,488.0,-383.0
217.0,-140.0,4923.0,A,401.0,494.0,-420.0
53.0,-186.0,4796.0,A,472.0,529.0,-425.0
0.0,-212.0,4642.0,A,518.0,574.0,-385.0
16.0,-234.0,4521.0,A,536.0,592.0,-321.0
23.0,-255.0,4478.0,A,529.0,544.0,-250.0
18.0,-271.0,4469.0,A,526.0,434.0,-177.0
47.0,-275.0,4419.0,A,542.0,307.0,-101.0
118.0,-271.0,4316.0,A,561.0,211.0,-36.0
179.0,-259.0,4221.0,A,551.0,169.0,12.0
212.0,-242.0,4173.0,A,521.0,168.0,49.0
251.0,-220.0,4160.0,A,502.0,181.0,80.0
318.0,-199.0,4143.0,A,503.0,190.0,93.0
365.0,-186.0,4110.0,A,488.0,221.0,85.0
337.0,-185.0,4070.0,A,433.0,305.0,56.0
244.0,-187.0,4054.0,A,363.0,412.0,15.0
149.0,-191.0,4088.0,A,308.0,459.0,-32.0
81.0,-201.0,4167.0,A,271.0,394.0,-71.0
23.0,-227.0,4231.0,A,230.0,271.0,-83.0
-38.0,-253.0,4238.0,A,186.0,185.0,-62.0
-84.0,-260.0,4206.0,A,148.0,179.0,-19.0
-95.0,-243.0,4187.0,A,116.0,210.0,38.0
-78.0,-222.0,4194.0,A,69.0,221.0,110.0
-34.0,-204.0,4213.0,A,5.0,186.0,190.0
42.0,-180.0,4239.0,A,-61.0,118.0,253.0
123.0,-146.0,4280.0,A,-112.0,47.0,283.0
161.0,-124.0,4310.0,A,-139.0,9.0,279.0
152.0,-122.0,4315.0,A,-141.0,15.0,248.0
156.0,-125.0,4335.0,A,-126.0,40.0,205.0
202.0,-116.0,4420.0,A,-104.0,46.0,160.0
236.0,-112.0,4535.0,A,-78.0,27.0,122.0
192.0,-125.0,4586.0,A,-38.0,6.0,84.0
104.0,-141.0,4555.0,A,14.0,12.0,35.0
50.0,-130.0,4514.0,A,67.0,48.0,-18.0
40.0,-101.0,4522.0,A,100.0,98.0,-62.0
8.0,-88.0,4550.0,A,119.0,138.0,-90.0
-61.0,-104.0,4555.0,A,137.0,162.0,-117.0
-112.0,-127.0,4537.0,A,160.0,183.0,-145.0
-97.0,-130.0,4519.0,A,182.0,214.0,-165.0
-51.0,-118.0,4494.0,A,205.0,236.0,-165.0
-19.0,-110.0,4463.0,A,233.0,224.0,-158.0
-10.0,-108.0,4443.0,A,269.0,187.0,-156.0
-14.0,-107.0,4443.0,A,301.0,171.0,-166.0
-48.0,-100.0,4431.0,A,325.0,196.0,-179.0
-104.0,-94.0,4387.0,A,340.0,240.0,-190.0
-141.0,-89.0,4335.0,A,342.0,268.0,-191.0
-138.0,-84.0,4311.0,A,316.0,275.0,-181.0
-147.0,-73.0,4310.0,A,263.0,269.0,-168.0
-209.0,-65.0,4307.0,A,202.0,255.0,-169.0
-287.0,-66.0,4288.0,A,161.0,237.0,-177.0
-312.0,-79.0,4269.0,A,140.0,226.0,-173.0
-280.0,-86.0,4264.0,A,125.0,212.0,-139.0
-251.0,-78.0,4281.0,A,107.0,175.0,-88.0
-241.0,-59.0,4298.0,A,91.0,117.0,-38.0
-251.0,-12.0,6000.0,A,-131.0,226.0,303.0
-286.0,-17.0,5993.0,A,413.0,-454.0,215.0
-189.0,-1.0,6069.0,A,822.0,-791.0,176.0
-83.0,24.0,6077.0,A,1054.0,-799.0,192.0
-95.0,54.0,5942.0,A,1211.0,-707.0,222.0
-191.0,77.0,5854.0,A,1404.0,-682.0,229.0
-268.0,90.0,5956.0,A,1619.0,-671.0,225.0
-331.0,93.0,6081.0,A,1727.0,-546.0,241.0
-463.0,84.0,6053.0,A,1652.0,-332.0,298.0
-641.0,59.0,6001.0,A,1454.0,-133.0,399.0
-724.0,49.0,6141.0,A,1252.0,59.0,538.0
-641.0,96.0,6388.0,A,1109.0,307.0,694.0
-494.0,187.0,6503.0,A,1070.0,463.0,846.0
-406.0,231.0,6487.0,A,1213.0,230.0,970.0
-370.0,169.0,6533.0,A,1575.0,-423.0,1056.0
-308.0,63.0,6634.0,A,2015.0,-1095.0,1095.0
-241.0,42.0,6582.0,A,2310.0,-1342.0,1094.0
-248.0,136.0,6341.0,A,2403.0,-1161.0,1066.0
-314.0,259.0,6150.0,A,2497.0,-939.0,1027.0
-310.0,316.0,6151.0,A,2804.0,-982.0,978.0
-174.0,306.0,6191.0,A,3295.0,-1269.0,927.0
15.0,269.0,6066.0,A,3758.0,-1618.0,896.0
179.0,221.0,5776.0,A,4068.0,-1939.0,902.0
341.0,155.0,5400.0,A,4257.0,-2235.0,921.0
529.0,90.0,4942.0,A,4383.0,-2478.0,913.0
651.0,45.0,4429.0,A,4422.0,-2574.0,851.0
607.0,13.0,4009.0,A,4357.0,-2467.0,740.0
443.0,-25.0,3778.0,A,4246.0,-2188.0,589.0
290.0,-57.0,3608.0,A,4151.0,-1840.0,413.0
184.0,-54.0,3331.0,A,4055.0,-1528.0,241.0
83.0,-18.0,2990.0,A,3927.0,-1342.0,109.0
10.0,9.0,2765.0,A,3810.0,-1333.0,15.0
37.0,8.0,2678.0,A,3779.0,-1495.0,-74.0
130.0,-10.0,2578.0,A,3822.0,-1750.0,-176.0
163.0,-17.0,2374.0,A,3844.0,-1987.0,-276.0
92.0,-10.0,2124.0,A,3774.0,-2116.0,-355.0
2.0,-5.0,1864.0,A,3626.0,-2093.0,-419.0
-54.0,-13.0,1537.0,A,3435.0,-1906.0,-471.0
-98.0,-9.0,1145.0,A,3205.0,-1587.0,-497.0
-108.0,42.0,822.0,A,2928.0,-1234.0,-486.0
1.0,144.0,646.0,A,2630.0,-984.0,-465.0
200.0,238.0,522.0,A,2353.0,-894.0,-468.0
317.0,267.0,343.0,A,2123.0,-902.0,-515.0
252.0,237.0,175.0,A,1940.0,-918.0,-601.0
111.0,218.0,128.0,A,1789.0,-927.0,-714.0
30.0,244.0,143.0,A,1625.0,-941.0,-828.0
18.0,279.0,64.0,A,1388.0,-916.0,-907.0
17.0,271.0,-102.0,A,1035.0,-786.0,-924.0
10.0,222.0,-224.0,A,589.0,-569.0,-896.0
-40.0,169.0,-286.0,A,113.0,-337.0,-859.0
-196.0,137.0,-417.0,A,-349.0,-96.0,-832.0
-406.0,127.0,-607.0,A,-824.0,221.0,-795.0
-506.0,140.0,-649.0,A,-1353.0,615.0,-734.0
-457.0,169.0,-447.0,A,-1920.0,975.0,-669.0
-428.0,195.0,-184.0,A,-2455.0,1210.0,-642.0
-482.0,198.0,-25.0,A,-2903.0,1329.0,-665.0
-412.0,185.0,122.0,A,-3292.0,1373.0,-701.0
-65.0,169.0,381.0,A,-3673.0,1340.0,-707.0
349.0,153.0,624.0,A,-4036.0,1246.0,-693.0
533.0,130.0,714.0,A,-4306.0,1138.0,-716.0
530.0,96.0,823.0,A,-4452.0,1008.0,-814.0
558.0,38.0,1219.0,A,-4530.0,776.0,-968.0
559.0,-46.0,1795.0,A,-4614.0,481.0,-1145.0
261.0,-130.0,2225.0,A,-4713.0,375.0,-1336.0
-317.0,-172.0,2529.0,A,-4818.0,692.0,-1536.0
-841.0,-184.0,3093.0,A,-4960.0,1322.0,-1689.0
-1132.0,-217.0,4028.0,A,-5185.0,1893.0,-1722.0
-1331.0,-275.0,4953.0,A,-5460.0,2138.0,-1613.0
-1489.0,-298.0,5585.0,A,-5700.0,2083.0,-1405.0
-1370.0,-275.0,6133.0,A,-5872.0,1843.0,-1138.0
-888.0,-282.0,6849.0,A,-6023.0,1450.0,-841.0
-393.0,-373.0,7517.0,A,-6168.0,944.0,-569.0
-269.0,-469.0,7805.0,A,-6230.0,512.0,-420.0
-440.0,-468.0,7838.0,A,-6111.0,346.0,-449.0
-564.0,-403.0,8018.0,A,-5795.0,414.0,-614.0
-538.0,-375.0,8366.0,A,-5335.0,496.0,-807.0
-536.0,-385.0,8528.0,A,-4800.0,451.0,-944.0
-617.0,-339.0,8362.0,A,-4248.0,333.0,-986.0
-621.0,-236.0,8141.0,A,-3732.0,236.0,-931.0
-427.0,-193.0,8076.0,A,-3255.0,132.0,-809.0
-125.0,-257.0,8037.0,A,-2777.0,-51.0,-689.0
122.0,-326.0,7846.0,A,-2300.0,-283.0,-631.0
214.0,-315.0,7568.0,A,-1921.0,-413.0,-646.0
105.0,-287.0,7333.0,A,-1718.0,-319.0,-708.0
-174.0,-343.0,7135.0,A,-1623.0,-26.0,-801.0
-490.0,-451.0,6933.0,A,-1467.0,327.0,-908.0
-689.0,-505.0,6776.0,A,-1184.0,595.0,-990.0
-754.0,-487.0,6664.0,A,-868.0,701.0,-989.0
-778.0,-475.0,6477.0,A,-632.0,675.0,-894.0
-794.0,-501.0,6158.0,A,-462.0,596.0,-741.0
-749.0,-519.0,5842.0,A,-293.0,522.0,-577.0
-613.0,-499.0,5644.0,A,-123.0,442.0,-415.0
-441.0,-479.0,5481.0,A,-12.0,321.0,-264.0
-283.0,-488.0,5231.0,A,40.0,156.0,-146.0
-162.0,-510.0,4956.0,A,102.0,-14.0,-89.0
-107.0,-518.0,4796.0,A,220.0,-162.0,-96.0
-145.0,-526.0,4741.0,A,355.0,-281.0,-141.0
-229.0,-550.0,4677.0,A,440.0,-356.0,-184.0
-272.0,-579.0,4572.0,A,455.0,-363.0,-198.0
-255.0,-592.0,4478.0,A,430.0,-299.0,-171.0
-231.0,-592.0,4405.0,A,404.0,-200.0,-115.0
-219.0,-588.0,4316.0,A,390.0,-115.0,-45.0
-166.0,-583.0,4234.0,A,376.0,-64.0,20.0
-60.0,-580.0,4220.0,A,360.0,-61.0,71.0
25.0,-593.0,4263.0,A,357.0,-111.0,89.0
28.0,-623.0,4290.0,A,385.0,-194.0,72.0
-24.0,-654.0,4283.0,A,421.0,-243.0,30.0
-75.0,-667.0,4280.0,A,421.0,-202.0,-11.0
-112.0,-671.0,4284.0,A,365.0,-90.0,-39.0
-156.0,-680.0,4275.0,A,294.0,25.0,-49.0
-202.0,-692.0,4266.0,A,257.0,98.0,-45.0
-227.0,-689.0,4279.0,A,268.0,130.0,-30.0
-226.0,-668.0,4279.0,A,297.0,145.0,-8.0
-215.0,-638.0,4222.0,A,322.0,144.0,17.0
-203.0,-618.0,4145.0,A,336.0,131.0,45.0
-188.0,-608.0,4129.0,A,335.0,111.0,73.0
-167.0,-605.0,4182.0,A,307.0,84.0,90.0
-146.0,-601.0,4244.0,A,259.0,34.0,94.0
-130.0,-599.0,4282.0,A,208.0,-31.0,89.0
-127.0,-594.0,4315.0,A,162.0,-80.0,87.0
-127.0,-580.0,4336.0,A,117.0,-78.0,92.0
-118.0,-552.0,4325.0,A,81.0,-28.0,104.0
-106.0,-524.0,4300.0,A,64.0,40.0,112.0
-113.0,-509.0,4313.0,A,71.0,94.0,108.0
-584.0,-269.0,-60.0,A,3423.0,-1657.0,0.0
-319.0,-140.0,-124.0,A,2968.0,-1613.0,40.0
-217.0,-86.0,-153.0,A,2546.0,-1597.0,14.0
-187.0,-83.0,-173.0,A,2184.0,-1523.0,-57.0
-146.0,-81.0,-212.0,A,1860.0,-1335.0,-149.0
-110.0,-60.0,-259.0,A,1514.0,-1056.0,-225.0
-95.0,-23.0,-269.0,A,1123.0,-763.0,-260.0
-55.0,17.0,-230.0,A,719.0,-504.0,-259.0
7.0,65.0,-199.0,A,342.0,-276.0,-259.0
6.0,120.0,-216.0,A,-16.0,-42.0,-287.0
-67.0,179.0,-228.0,A,-383.0,214.0,-338.0
-83.0,238.0,-153.0,A,-753.0,452.0,-389.0
47.0,305.0,-13.0,A,-1103.0,607.0,-437.0
213.0,378.0,101.0,A,-1430.0,669.0,-489.0
258.0,438.0,185.0,A,-1758.0,720.0,-552.0
209.0,442.0,358.0,A,-2101.0,833.0,-619.0
241.0,376.0,672.0,A,-2462.0,988.0,-687.0
433.0,282.0,1014.0,A,-2847.0,1113.0,-740.0
710.0,230.0,1237.0,A,-3273.0,1185.0,-762.0
971.0,233.0,1360.0,A,-3718.0,1209.0,-760.0
1177.0,228.0,1515.0,A,-4109.0,1164.0,-785.0
1305.0,149.0,1762.0,A,-4385.0,1031.0,-880.0
1333.0,16.0,2038.0,A,-4577.0,879.0,-1031.0
1271.0,-99.0,2283.0,A,-4786.0,818.0,-1167.0
1153.0,-155.0,2495.0,A,-5078.0,889.0,-1248.0
967.0,-176.0,2681.0,A,-5412.0,1071.0,-1294.0
677.0,-195.0,2820.0,A,-5713.0,1387.0,-1357.0
282.0,-236.0,2938.0,A,-5953.0,1840.0,-1468.0
-167.0,-323.0,3119.0,A,-6155.0,2266.0,-1628.0
-598.0,-478.0,3438.0,A,-6311.0,2375.0,-1806.0
-880.0,-676.0,3908.0,A,-6385.0,2019.0,-1952.0
-872.0,-859.0,4547.0,A,-6369.0,1296.0,-2017.0
-621.0,-1017.0,5397.0,A,-6293.0,417.0,-2011.0
-464.0,-1187.0,6438.0,A,-6159.0,-393.0,-2010.0
-760.0,-1369.0,7516.0,A,-5946.0,-813.0,-2090.0
-1478.0,-1466.0,8435.0,A,-5674.0,-504.0,-2241.0
-2204.0,-1404.0,9108.0,A,-5430.0,485.0,-2375.0
-2564.0,-1234.0,9551.0,A,-5248.0,1563.0,-2395.0
-2554.0,-1072.0,9778.0,A,-5046.0,2060.0,-2269.0
-2388.0,-951.0,9763.0,A,-4721.0,1864.0,-2024.0
-2207.0,-818.0,9532.0,A,-4299.0,1408.0,-1713.0
-2016.0,-658.0,9198.0,A,-3876.0,1073.0,-1384.0
-1821.0,-537.0,8869.0,A,-3462.0,842.0,-1088.0
-1648.0,-481.0,8544.0,A,-2952.0,539.0,-863.0
-1493.0,-427.0,8162.0,A,-2301.0,180.0,-723.0
-1320.0,-319.0,7710.0,A,-1623.0,-91.0,-631.0
-1130.0,-208.0,7250.0,A,-1078.0,-246.0,-539.0
-934.0,-177.0,6828.0,A,-697.0,-391.0,-417.0
-715.0,-215.0,6448.0,A,-402.0,-596.0,-283.0
-459.0,-249.0,6108.0,A,-142.0,-814.0,-162.0
-215.0,-246.0,5838.0,A,51.0,-971.0,-70.0
-49.0,-247.0,5638.0,A,166.0,-1023.0,-9.0
26.0,-279.0,5449.0,A,250.0,-960.0,8.0
38.0,-321.0,5218.0,A,359.0,-790.0,-23.0
-3.0,-352.0,4979.0,A,473.0,-557.0,-95.0
-99.0,-383.0,4796.0,A,542.0,-322.0,-168.0
-201.0,-428.0,4676.0,A,558.0,-136.0,-213.0
-258.0,-475.0,4570.0,A,557.0,-26.0,-219.0
-274.0,-519.0,4463.0,A,567.0,0.0,-199.0
-285.0,-563.0,4381.0,A,573.0,-30.0,-160.0
-293.0,-602.0,4328.0,A,565.0,-67.0,-115.0
-276.0,-615.0,4272.0,A,551.0,-76.0,-75.0
-257.0,-609.0,4219.0,A,540.0,-61.0,-52.0
-284.0,-621.0,4217.0,A,518.0,-40.0,-47.0
-359.0,-671.0,4254.0,A,484.0,-20.0,-58.0
-429.0,-726.0,4260.0,A,459.0,-14.0,-75.0
-458.0,-745.0,4216.0,A,465.0,-53.0,-86.0
-447.0,-728.0,4198.0,A,484.0,-143.0,-75.0
-409.0,-711.0,4242.0,A,485.0,-243.0,-40.0
-352.0,-714.0,4272.0,A,466.0,-294.0,8.0
-305.0,-732.0,4218.0,A,454.0,-274.0,51.0
-279.0,-740.0,4145.0,A,453.0,-196.0,82.0
-238.0,-724.0,4149.0,A,444.0,-103.0,106.0
-144.0,-685.0,4203.0,A,411.0,-39.0,133.0
-40.0,-651.0,4207.0,A,360.0,-30.0,151.0
-12.0,-640.0,4169.0,A,306.0,-37.0,141.0
-58.0,-645.0,4177.0,A,248.0,-1.0,94.0
-98.0,-641.0,4236.0,A,200.0,85.0,29.0
-98.0,-630.0,4246.0,A,178.0,160.0,-23.0
-111.0,-632.0,4185.0,A,186.0,173.0,-48.0
-174.0,-649.0,4146.0,A,195.0,158.0,-55.0
-235.0,-647.0,4184.0,A,186.0,167.0,-53.0
-250.0,-615.0,4216.0,A,166.0,194.0,-48.0
-245.0,-582.0,4179.0,A,150.0,192.0,-36.0
-256.0,-577.0,4136.0,A,129.0,157.0,-22.0
-248.0,-580.0,4178.0,A,91.0,126.0,-8.0
-191.0,-565.0,4270.0,A,43.0,117.0,0.0
-135.0,-547.0,4319.0,A,8.0,110.0,1.0
-150.0,-559.0,4316.0,A,-9.0,99.0,-14.0
-209.0,-592.0,4335.0,A,-12.0,100.0,-44.0
-229.0,-610.0,4396.0,A,0.0,110.0,-72.0
-208.0,-604.0,4444.0,A,30.0,93.0,-83.0
-212.0,-602.0,4444.0,A,53.0,41.0,-75.0
-262.0,-612.0,4420.0,A,52.0,-5.0,-59.0
-292.0,-610.0,4399.0,A,32.0,-3.0,-40.0
-263.0,-585.0,4373.0,A,22.0,31.0,-19.0
-219.0,-564.0,4338.0,A,25.0,54.0,1.0
-218.0,-571.0,4310.0,A,26.0,48.0,17.0
-243.0,-593.0,4304.0,A,15.0,36.0,28.0
-244.0,-600.0,4312.0,A,8.0,33.0,33.0
-213.0,-591.0,4329.0,A,12.0,32.0,31.0
-191.0,-582.0,4350.0,A,19.0,17.0,25.0
-203.0,-586.0,4368.0,A,16.0,-7.0,21.0
-233.0,-589.0,4372.0,A,11.0,-30.0,25.0
-250.0,-581.0,4371.0,A,18.0,-35.0,32.0
-231.0,-561.0,4372.0,A,37.0,-22.0,34.0
-189.0,-545.0,4367.0,A,44.0,1.0,36.0
-164.0,-543.0,4343.0,A,30.0,13.0,39.0
-188.0,-554.0,4314.0,A,4.0,4.0,38.0
-236.0,-558.0,4305.0,A,-9.0,-21.0,26.0
-260.0,-550.0,4325.0,A,-6.0,-48.0,10.0
-250.0,-543.0,4358.0,A,0.0,-66.0,1.0
-255.0,-554.0,4386.0,A,-3.0,-72.0,2.0
-291.0,-570.0,4394.0,A,-13.0,-61.0,8.0
-309.0,-570.0,4380.0,A,-18.0,-36.0,19.0
-269.0,-551.0,4362.0,A,-17.0,-15.0,33.0
-213.0,-538.0,4370.0,A,-12.0,-20.0,45.0
-205.0,-539.0,4399.0,A,-2.0,-46.0,43.0
-240.0,-544.0,4407.0,A,22.0,-64.0,28.0
-262.0,-545.0,4363.0,A,55.0,-52.0,10.0
-257.0,-557.0,4307.0,A,78.0,-25.0,1.0
-255.0,-579.0,4298.0,A,78.0,-6.0,0.0
-262.0,-586.0,4338.0,A,65.0,-7.0,5.0
-248.0,-564.0,4367.0,A,54.0,-19.0,12.0
-503.0,-318.0,326.0,A,4882.0,-1745.0,-480.0
-297.0,-252.0,68.0,A,4531.0,-1620.0,-400.0
-138.0,-177.0,-223.0,A,4116.0,-1519.0,-317.0
-47.0,-57.0,-431.0,A,3669.0,-1476.0,-288.0
-8.0,56.0,-534.0,A,3264.0,-1484.0,-336.0
17.0,108.0,-614.0,A,2950.0,-1518.0,-436.0
61.0,125.0,-692.0,A,2692.0,-1574.0,-549.0
102.0,147.0,-695.0,A,2394.0,-1622.0,-648.0
103.0,165.0,-637.0,A,2010.0,-1587.0,-733.0
61.0,156.0,-637.0,A,1554.0,-1402.0,-803.0
17.0,151.0,-725.0,A,1044.0,-1094.0,-858.0
-19.0,174.0,-773.0,A,478.0,-741.0,-891.0
-90.0,198.0,-711.0,A,-103.0,-400.0,-903.0
-233.0,200.0,-632.0,A,-630.0,-79.0,-892.0
-420.0,217.0,-608.0,A,-1082.0,215.0,-853.0
-560.0,271.0,-539.0,A,-1509.0,477.0,-778.0
-571.0,308.0,-312.0,A,-1952.0,701.0,-687.0
-436.0,274.0,12.0,A,-2391.0,873.0,-620.0
-226.0,206.0,282.0,A,-2817.0,983.0,-606.0
-29.0,162.0,450.0,A,-3257.0,1052.0,-627.0
139.0,130.0,583.0,A,-3723.0,1125.0,-653.0
321.0,72.0,758.0,A,-4155.0,1182.0,-678.0
498.0,31.0,996.0,A,-4501.0,1127.0,-734.0
565.0,56.0,1256.0,A,-4787.0,924.0,-843.0
488.0,93.0,1430.0,A,-5076.0,700.0,-998.0
380.0,45.0,1453.0,A,-5378.0,601.0,-1171.0
344.0,-63.0,1414.0,A,-5675.0,614.0,-1333.0
302.0,-139.0,1487.0,A,-5986.0,605.0,-1455.0
150.0,-194.0,1714.0,A,-6358.0,548.0,-1522.0
-21.0,-341.0,2030.0,A,-6785.0,560.0,-1540.0
-55.0,-584.0,2449.0,A,-7195.0,732.0,-1539.0
-71.0,-791.0,3069.0,A,-7512.0,1022.0,-1557.0
-404.0,-903.0,3846.0,A,-7713.0,1371.0,-1626.0
-1103.0,-1024.0,4644.0,A,-7808.0,1746.0,-1751.0
-1715.0,-1227.0,5554.0,A,-7822.0,2009.0,-1891.0
-1773.0,-1394.0,6871.0,A,-7760.0,1873.0,-1957.0
-1375.0,-1389.0,8590.0,A,-7607.0,1200.0,-1891.0
-1033.0,-1249.0,10191.0,A,-7340.0,275.0,-1719.0
-1043.0,-1104.0,11163.0,A,-6972.0,-335.0,-1535.0
-1219.0,-969.0,11514.0,A,-6553.0,-269.0,-1396.0
-1268.0,-787.0,11538.0,A,-6125.0,383.0,-1279.0
-1167.0,-589.0,11293.0,A,-5671.0,1263.0,-1134.0
-1088.0,-478.0,10685.0,A,-5159.0,2038.0,-961.0
-1086.0,-446.0,9880.0,A,-4574.0,2490.0,-801.0
-1059.0,-382.0,9248.0,A,-3928.0,2479.0,-687.0
-924.0,-259.0,8885.0,A,-3229.0,1964.0,-616.0
-743.0,-182.0,8544.0,A,-2508.0,1098.0,-569.0
-619.0,-224.0,8046.0,A,-1837.0,200.0,-526.0
-580.0,-315.0,7496.0,A,-1293.0,-404.0,-485.0
-566.0,-364.0,7010.0,A,-895.0,-574.0,-450.0
-531.0,-368.0,6549.0,A,-611.0,-394.0,-427.0
-487.0,-375.0,6087.0,A,-398.0,-83.0,-406.0
-479.0,-387.0,5729.0,A,-226.0,149.0,-374.0
-507.0,-394.0,5520.0,A,-62.0,220.0,-330.0
-519.0,-411.0,5355.0,A,108.0,164.0,-291.0
-467.0,-455.0,5148.0,A,270.0,55.0,-251.0
-368.0,-496.0,4957.0,A,385.0,-53.0,-196.0
-282.0,-507.0,4827.0,A,441.0,-146.0,-123.0
-259.0,-508.0,4690.0,A,464.0,-219.0,-63.0
-291.0,-527.0,4502.0,A,478.0,-267.0,-37.0
-332.0,-554.0,4347.0,A,498.0,-301.0,-36.0
-331.0,-562.0,4276.0,A,526.0,-332.0,-36.0
-286.0,-568.0,4207.0,A,556.0,-359.0,-30.0
-245.0,-601.0,4085.0,A,560.0,-367.0,-20.0
-259.0,-652.0,3995.0,A,520.0,-352.0,-9.0
-311.0,-687.0,4024.0,A,453.0,-326.0,2.0
-342.0,-707.0,4089.0,A,405.0,-308.0,4.0
-328.0,-727.0,4080.0,A,383.0,-291.0,-2.0
-312.0,-743.0,4034.0,A,355.0,-265.0,-9.0
-324.0,-739.0,4068.0,A,301.0,-230.0,-6.0
-345.0,-739.0,4174.0,A,249.0,-212.0,-7.0
-346.0,-771.0,4241.0,A,230.0,-214.0,-20.0
-337.0,-819.0,4228.0,A,228.0,-203.0,-32.0
-331.0,-829.0,4204.0,A,205.0,-139.0,-24.0
-312.0,-791.0,4214.0,A,152.0,-33.0,0.0
-261.0,-748.0,4239.0,A,102.0,47.0,26.0
-206.0,-738.0,4257.0,A,78.0,58.0,39.0
-193.0,-747.0,4286.0,A,75.0,17.0,37.0
-229.0,-754.0,4326.0,A,76.0,-17.0,16.0
-274.0,-753.0,4353.0,A,87.0,-11.0,-15.0
-297.0,-747.0,4354.0,A,112.0,27.0,-45.0
-293.0,-730.0,4339.0,A,142.0,75.0,-56.0
-289.0,-713.0,4301.0,A,156.0,118.0,-55.0
-305.0,-713.0,4241.0,A,156.0,148.0,-50.0
-336.0,-731.0,4193.0,A,152.0,164.0,-40.0
-346.0,-734.0,4203.0,A,143.0,168.0,-19.0
-319.0,-710.0,4258.0,A,119.0,160.0,2.0
-288.0,-679.0,4300.0,A,90.0,135.0,15.0
-294.0,-663.0,4301.0,A,73.0,99.0,16.0
-315.0,-651.0,4295.0,A,73.0,72.0,17.0
-308.0,-636.0,4317.0,A,71.0,71.0,21.0
-283.0,-631.0,4355.0,A,59.0,84.0,24.0
-286.0,-648.0,4371.0,A,49.0,89.0,26.0
-308.0,-658.0,4355.0,A,55.0,83.0,31.0
-287.0,-637.0,4338.0,A,64.0,79.0,42.0
-224.0,-608.0,4343.0,A,63.0,75.0,58.0
-198.0,-615.0,4362.0,A,54.0,62.0,76.0
-240.0,-647.0,4364.0,A,55.0,43.0,86.0
-273.0,-660.0,4348.0,A,64.0,37.0,81.0
-239.0,-639.0,4336.0,A,68.0,43.0,65.0
-195.0,-624.0,4340.0,A,59.0,44.0,58.0
-208.0,-634.0,4345.0,A,46.0,28.0,60.0
-254.0,-647.0,4350.0,A,36.0,12.0,59.0
-266.0,-637.0,4371.0,A,34.0,3.0,44.0
-253.0,-624.0,4402.0,A,36.0,-8.0,29.0
-254.0,-627.0,4396.0,A,41.0,-30.0,27.0
-260.0,-641.0,4345.0,A,37.0,-38.0,37.0
-241.0,-644.0,4307.0,A,25.0,-19.0,47.0
-224.0,-642.0,4328.0,A,17.0,10.0,55.0
-247.0,-643.0,4357.0,A,28.0,21.0,56.0
-281.0,-644.0,4321.0,A,48.0,20.0,50.0
-269.0,-635.0,4244.0,A,58.0,22.0,42.0
-225.0,-629.0,4223.0,A,49.0,23.0,47.0
-204.0,-637.0,4276.0,A,33.0,0.0,64.0
-210.0,-649.0,4325.0,A,16.0,-46.0,74.0
-213.0,-646.0,4320.0,A,0.0,-76.0,63.0
-212.0,-637.0,4306.0,A,-11.0,-72.0,44.0
-235.0,-637.0,4322.0,A,-11.0,-54.0,34.0
-265.0,-643.0,4344.0,A,1.0,-53.0,32.0
-264.0,-638.0,4335.0,A,12.0,-67.0,26.0
-250.0,-634.0,4316.0,A,15.0,-74.0,20.0
-265.0,-646.0,4311.0,A,9.0,-60.0,18.0
-294.0,-667.0,4311.0,A,3.0,-37.0,17.0
-284.0,-665.0,4301.0,A,-1.0,-20.0,9.0
70.0,-289.0,4277.0,A,-287.0,-51.0,315.0
22.0,-328.0,4314.0,A,-165.0,-67.0,396.0
-11.0,-387.0,4292.0,A,70.0,2.0,529.0
93.0,-314.0,4260.0,A,-165.0,-117.0,382.0
268.0,-25.0,4196.0,A,-1007.0,-528.0,-88.0
280.0,324.0,4058.0,A,-1782.0,-915.0,-544.0
133.0,478.0,3944.0,A,-1838.0,-902.0,-722.0
116.0,352.0,4026.0,A,-1336.0,-514.0,-699.0
346.0,129.0,4267.0,A,-922.0,-120.0,-593.0
518.0,46.0,4420.0,A,-867.0,27.0,-310.0
376.0,151.0,4358.0,A,-931.0,4.0,154.0
139.0,287.0,4251.0,A,-877.0,-11.0,483.0
162.0,310.0,4289.0,A,-746.0,32.0,393.0
362.0,245.0,4417.0,A,-625.0,88.0,66.0
382.0,221.0,4458.0,A,-492.0,134.0,-75.0
180.0,273.0,4397.0,A,-307.0,169.0,49.0
63.0,304.0,4356.0,A,-119.0,183.0,170.0
149.0,255.0,4390.0,A,-1.0,163.0,127.0
223.0,213.0,4440.0,A,16.0,133.0,68.0
158.0,246.0,4483.0,A,-11.0,117.0,125.0
133.0,257.0,4553.0,A,9.0,103.0,218.0
263.0,128.0,4634.0,A,60.0,47.0,244.0
357.0,-48.0,4641.0,A,-112.0,-70.0,254.0
224.0,-81.0,4554.0,A,-714.0,-203.0,299.0
11.0,10.0,4459.0,A,-1459.0,-234.0,293.0
-16.0,7.0,4439.0,A,-1694.0,-62.0,142.0
143.0,-145.0,4483.0,A,-1182.0,260.0,-63.0
266.0,-237.0,4505.0,A,-452.0,518.0,-145.0
231.0,-123.0,4449.0,A,-150.0,522.0,-49.0
131.0,31.0,4335.0,A,-274.0,292.0,97.0
93.0,28.0,4248.0,A,-401.0,19.0,151.0
122.0,-65.0,4251.0,A,-401.0,-149.0,76.0
153.0,-60.0,4322.0,A,-499.0,-212.0,-46.0
139.0,26.0,4364.0,A,-720.0,-215.0,-118.0
94.0,32.0,4324.0,A,-799.0,-171.0,-101.0
71.0,-60.0,4251.0,A,-657.0,-96.0,-51.0
101.0,-102.0,4232.0,A,-567.0,-49.0,-35.0
140.0,-37.0,4276.0,A,-688.0,-61.0,-65.0
108.0,42.0,4329.0,A,-789.0,-66.0,-102.0
5.0,76.0,4357.0,A,-587.0,25.0,-138.0
-66.0,112.0,4388.0,A,-133.0,225.0,-188.0
-44.0,154.0,4453.0,A,316.0,442.0,-243.0
20.0,133.0,4532.0,A,592.0,577.0,-258.0
38.0,40.0,4561.0,A,645.0,576.0,-216.0
11.0,-26.0,4516.0,A,481.0,451.0,-149.0
-1.0,-19.0,4448.0,A,202.0,256.0,-100.0
23.0,6.0,4432.0,A,-21.0,60.0,-71.0
46.0,14.0,4465.0,A,-143.0,-103.0,-44.0
41.0,39.0,4473.0,A,-276.0,-236.0,-5.0
24.0,80.0,4427.0,A,-473.0,-338.0,36.0
35.0,70.0,4394.0,A,-623.0,-394.0,65.0
80.0,-4.0,4421.0,A,-659.0,-414.0,69.0
130.0,-53.0,4446.0,A,-671.0,-446.0,68.0
147.0,-27.0,4395.0,A,-705.0,-494.0,79.0
129.0,13.0,4317.0,A,-627.0,-487.0,90.0
96.0,10.0,4302.0,A,-358.0,-360.0,68.0
66.0,0.0,4337.0,A,-75.0,-160.0,20.0
48.0,10.0,4335.0,A,5.0,-6.0,-19.0
60.0,1.0,4293.0,A,-83.0,39.0,-32.0
110.0,-58.0,4276.0,A,-153.0,4.0,-32.0
164.0,-105.0,4289.0,A,-127.0,-49.0,-13.0
182.0,-82.0,4288.0,A,-64.0,-82.0,35.0
197.0,-36.0,4306.0,A,20.0,-66.0,81.0
267.0,-46.0,4397.0,A,134.0,-6.0,68.0
354.0,-101.0,4497.0,A,198.0,43.0,17.0
343.0,-145.0,4482.0,A,113.0,30.0,-6.0
226.0,-172.0,4392.0,A,-61.0,-17.0,-18.0
143.0,-205.0,4371.0,A,-188.0,-37.0,-81.0
172.0,-217.0,4412.0,A,-250.0,-38.0,-136.0
201.0,-165.0,4355.0,A,-344.0,-103.0,0.0
130.0,-86.0,4205.0,A,-466.0,-231.0,338.0
53.0,-68.0,4169.0,A,-505.0,-301.0,603.0
102.0,-127.0,4307.0,A,-431.0,-224.0,544.0
196.0,-198.0,4397.0,A,-355.0,-76.0,273.0
170.0,-215.0,4293.0,A,-359.0,9.0,109.0
67.0,-185.0,4177.0,A,-442.0,-2.0,161.0
83.0,-153.0,4251.0,A,-614.0,-44.0,253.0
223.0,-159.0,4396.0,A,-904.0,-70.0,244.0
280.0,-208.0,4379.0,A,-1204.0,-61.0,194.0
169.0,-265.0,4249.0,A,-1300.0,34.0,196.0
72.0,-275.0,4240.0,A,-1134.0,258.0,213.0
123.0,-224.0,4402.0,A,-911.0,530.0,184.0
198.0,-158.0,4563.0,A,-849.0,695.0,144.0
139.0,-135.0,4628.0,A,-930.0,692.0,159.0
27.0,-158.0,4647.0,A,-1016.0,611.0,217.0
33.0,-201.0,4650.0,A,-1097.0,541.0,277.0
137.0,-253.0,4602.0,A,-1272.0,468.0,338.0
182.0,-323.0,4552.0,A,-1562.0,332.0,417.0
127.0,-388.0,4600.0,A,-1881.0,144.0,490.0
79.0,-406.0,4728.0,A,-2165.0,-26.0,522.0
104.0,-369.0,4823.0,A,-2374.0,-111.0,514.0
163.0,-326.0,4882.0,A,-2385.0,-60.0,476.0
219.0,-313.0,5009.0,A,-2067.0,133.0,408.0
254.0,-308.0,5223.0,A,-1492.0,391.0,307.0
206.0,-253.0,5432.0,A,-953.0,580.0,198.0
11.0,-141.0,5609.0,A,-672.0,656.0,99.0
-238.0,-41.0,5826.0,A,-591.0,728.0,5.0
-315.0,-31.0,6090.0,A,-513.0,880.0,-98.0
-127.0,-90.0,6324.0,A,-381.0,1011.0,-231.0
155.0,-122.0,6506.0,A,-310.0,928.0,-382.0
293.0,-76.0,6691.0,A,-398.0,608.0,-471.0
255.0,-26.0,6863.0,A,-581.0,245.0,-378.0
219.0,-72.0,6938.0,A,-706.0,36.0,-107.0
317.0,-210.0,6923.0,A,-658.0,-26.0,147.0
490.0,-333.0,6940.0,A,-447.0,-79.0,171.0
588.0,-374.0,7039.0,A,-158.0,-201.0,-28.0
570.0,-370.0,7138.0,A,135.0,-333.0,-246.0
531.0,-385.0,7167.0,A,436.0,-383.0,-341.0
564.0,-438.0,7154.0,A,777.0,-343.0,-355.0
640.0,-503.0,7115.0,A,1119.0,-305.0,-366.0
659.0,-563.0,7017.0,A,1358.0,-378.0,-380.0
572.0,-613.0,6885.0,A,1429.0,-571.0,-389.0
418.0,-639.0,6826.0,A,1397.0,-782.0,-448.0
250.0,-616.0,6864.0,A,1415.0,-870.0,-581.0
93.0,-540.0,6885.0,A,1661.0,-769.0,-728.0
-22.0,-454.0,6790.0,A,2272.0,-512.0,-815.0
-17.0,-448.0,6615.0,A,3252.0,-202.0,-848.0
166.0,-587.0,6438.0,A,4345.0,37.0,-843.0
487.0,-826.0,6282.0,A,5144.0,98.0,-776.0
807.0,-1023.0,6118.0,A,5413.0,-40.0,-638.0
1013.0,-1087.0,5913.0,A,5305.0,-289.0,-506.0
1099.0,-1059.0,5619.0,A,5143.0,-509.0,-462.0
1143.0,-1040.0,5237.0,A,5061.0,-635.0,-511.0
1201.0,-1051.0,4871.0,A,4947.0,-697.0,-612.0
1261.0,-1065.0,4639.0,A,4710.0,-749.0,-765.0
1266.0,-1086.0,4491.0,A,4426.0,-790.0,-964.0
1185.0,-1134.0,4270.0,A,4232.0,-796.0,-1144.0
1038.0,-1154.0,3946.0,A,4173.0,-742.0,-1231.0
889.0,-1085.0,3657.0,A,4250.0,-613.0,-1248.0
795.0,-979.0,3472.0,A,4467.0,-395.0,-1273.0
774.0,-961.0,3265.0,A,4787.0,-135.0,-1339.0
772.0,-1029.0,2914.0,A,5069.0,52.0,-1412.0
705.0,-1045.0,2458.0,A,5142.0,54.0,-1473.0
539.0,-920.0,2000.0,A,4922.0,-143.0,-1530.0
340.0,-731.0,1561.0,A,4463.0,-431.0,-1596.0
201.0,-573.0,1150.0,A,3903.0,-653.0,-1662.0
140.0,-440.0,829.0,A,3381.0,-725.0,-1727.0
95.0,-300.0,639.0,A,2941.0,-667.0,-1777.0
27.0,-187.0,507.0,A,2543.0,-558.0,-1791.0
-48.0,-118.0,362.0,A,2197.0,-433.0,-1766.0
-112.0,-35.0,237.0,A,2031.0,-270.0,-1745.0
-171.0,89.0,189.0,A,2112.0,-71.0,-1761.0
-213.0,176.0,178.0,A,2249.0,60.0,-1801.0
-202.0,161.0,131.0,A,2128.0,7.0,-1841.0
-163.0,141.0,37.0,A,1680.0,-231.0,-1900.0
-190.0,239.0,-59.0,A,1131.0,-523.0,-1980.0
-332.0,412.0,-135.0,A,669.0,-756.0,-2031.0
-518.0,506.0,-160.0,A,211.0,-912.0,-2008.0
-669.0,494.0,-94.0,A,-357.0,-997.0,-1949.0
-806.0,494.0,49.0,A,-894.0,-961.0,-1900.0
-963.0,565.0,188.0,A,-1109.0,-787.0,-1806.0
-1052.0,614.0,295.0,A,-910.0,-575.0,-1553.0
-956.0,560.0,433.0,A,-514.0,-463.0,-1167.0
-723.0,467.0,623.0,A,-219.0,-462.0,-842.0
-555.0,451.0,762.0,A,-198.0,-458.0,-750.0
-555.0,525.0,768.0,A,-445.0,-376.0,-854.0
-611.0,604.0,700.0,A,-812.0,-278.0,-977.0
-568.0,611.0,679.0,A,-1129.0,-273.0,-997.0
-442.0,544.0,752.0,A,-1386.0,-402.0,-939.0
-371.0,448.0,938.0,A,-1747.0,-606.0,-881.0
-439.0,381.0,1269.0,A,-2310.0,-783.0,-853.0
-586.0,367.0,1701.0,A,-2880.0,-818.0,-824.0
-703.0,379.0,2066.0,A,-3148.0,-654.0,-769.0
-723.0,364.0,2261.0,A,-3061.0,-358.0,-687.0
-654.0,301.0,2395.0,A,-2908.0,-113.0,-593.0
-546.0,196.0,2639.0,A,-3003.0,-67.0,-483.0
-446.0,53.0,2994.0,A,-3421.0,-226.0,-350.0
-364.0,-125.0,3362.0,A,-4032.0,-476.0,-204.0
-291.0,-288.0,3749.0,A,-4674.0,-707.0,-79.0
-216.0,-375.0,4234.0,A,-5198.0,-853.0,11.0
-147.0,-392.0,4751.0,A,-5490.0,-875.0,86.0
-90.0,-398.0,5128.0,A,-5521.0,-760.0,178.0
-72.0,-397.0,5346.0,A,-5378.0,-567.0,288.0
-125.0,-320.0,5573.0,A,-5169.0,-388.0,389.0
-247.0,-151.0,5911.0,A,-4934.0,-256.0,459.0
-352.0,-17.0,6251.0,A,-4650.0,-118.0,505.0
-338.0,-51.0,6474.0,A,-4323.0,58.0,565.0
-190.0,-226.0,6628.0,A,-4006.0,214.0,666.0
9.0,-380.0,6825.0,A,-3766.0,256.0,800.0
177.0,-416.0,7037.0,A,-3612.0,170.0,918.0
293.0,-389.0,7155.0,A,-3491.0,34.0,969.0
365.0,-399.0,7160.0,A,-3332.0,-75.0,941.0
409.0,-463.0,7147.0,A,-3142.0,-165.0,876.0
449.0,-528.0,7178.0,A,-3008.0,-276.0,811.0
512.0,-566.0,7221.0,A,-2998.0,-419.0,752.0
583.0,-586.0,7220.0,A,-3063.0,-557.0,681.0
623.0,-597.0,7175.0,A,-3085.0,-642.0,597.0
622.0,-590.0,7117.0,A,-2986.0,-634.0,513.0
620.0,-579.0,7062.0,A,-2774.0,-531.0,445.0
630.0,-589.0,7000.0,A,-2491.0,-368.0,389.0
611.0,-611.0,6919.0,A,-2188.0,-217.0,338.0
530.0,-595.0,6811.0,A,-1905.0,-119.0,274.0
418.0,-533.0,6679.0,A,-1646.0,-62.0,184.0
326.0,-476.0,6533.0,A,-1364.0,-1.0,65.0
262.0,-471.0,6384.0,A,-1037.0,66.0,-61.0
198.0,-483.0,6215.0,A,-723.0,101.0,-169.0
126.0,-457.0,5994.0,A,-504.0,69.0,-250.0
59.0,-403.0,5705.0,A,-374.0,-14.0,-304.0
15.0,-390.0,5396.0,A,-268.0,-112.0,-337.0
-4.0,-433.0,5144.0,A,-151.0,-194.0,-344.0
0.0,-478.0,4987.0,A,-48.0,-241.0,-327.0
20.0,-486.0,4892.0,A,38.0,-229.0,-287.0
43.0,-494.0,4805.0,A,133.0,-159.0,-238.0
66.0,-539.0,4716.0,A,214.0,-70.0,-195.0
88.0,-595.0,4644.0,A,229.0,-14.0,-178.0
103.0,-612.0,4588.0,A,181.0,-4.0,-185.0
93.0,-598.0,4519.0,A,163.0,7.0,-206.0
59.0,-596.0,4436.0,A,257.0,64.0,-227.0
32.0,-622.0,4361.0,A,439.0,161.0,-248.0
29.0,-650.0,4297.0,A,621.0,245.0,-261.0
33.0,-667.0,4225.0,A,714.0,282.0,-259.0
19.0,-677.0,4160.0,A,677.0,278.0,-245.0
-10.0,-677.0,4144.0,A,538.0,278.0,-233.0
-31.0,-660.0,4183.0,A,405.0,316.0,-221.0
-19.0,-656.0,4217.0,A,377.0,395.0,-197.0
24.0,-696.0,4204.0,A,440.0,471.0,-152.0
88.0,-573.0,1652.0,A,4478.0,-535.0,-739.0
114.0,-504.0,1461.0,A,4733.0,-388.0,-709.0
122.0,-467.0,1225.0,A,4975.0,-263.0,-680.0
150.0,-455.0,979.0,A,5144.0,-168.0,-650.0
174.0,-402.0,766.0,A,5098.0,-148.0,-630.0
171.0,-287.0,551.0,A,4783.0,-233.0,-661.0
162.0,-168.0,282.0,A,4327.0,-383.0,-752.0
161.0,-69.0,-18.0,A,3865.0,-545.0,-876.0
126.0,60.0,-268.0,A,3325.0,-714.0,-1005.0
43.0,243.0,-436.0,A,2587.0,-888.0,-1143.0
-18.0,386.0,-542.0,A,1780.0,-997.0,-1277.0
12.0,415.0,-595.0,A,1223.0,-964.0,-1364.0
96.0,388.0,-572.0,A,1043.0,-814.0,-1371.0
136.0,421.0,-488.0,A,1045.0,-662.0,-1340.0
97.0,524.0,-396.0,A,998.0,-575.0,-1335.0
27.0,606.0,-320.0,A,880.0,-521.0,-1380.0
-30.0,604.0,-226.0,A,760.0,-456.0,-1439.0
-66.0,548.0,-112.0,A,611.0,-402.0,-1492.0
-84.0,495.0,-22.0,A,359.0,-394.0,-1547.0
-104.0,491.0,37.0,A,19.0,-413.0,-1614.0
-173.0,568.0,155.0,A,-365.0,-399.0,-1667.0
-313.0,728.0,393.0,A,-825.0,-325.0,-1686.0
-446.0,891.0,690.0,A,-1395.0,-208.0,-1678.0
-476.0,951.0,928.0,A,-1999.0,-101.0,-1667.0
-416.0,875.0,1083.0,A,-2500.0,-65.0,-1649.0
-398.0,743.0,1221.0,A,-2873.0,-152.0,-1613.0
-509.0,651.0,1389.0,A,-3195.0,-340.0,-1562.0
-693.0,627.0,1586.0,A,-3507.0,-524.0,-1512.0
-823.0,623.0,1832.0,A,-3745.0,-584.0,-1456.0
-843.0,585.0,2150.0,A,-3844.0,-485.0,-1359.0
-778.0,484.0,2482.0,A,-3820.0,-292.0,-1193.0
-674.0,338.0,2701.0,A,-3762.0,-126.0,-978.0
-542.0,187.0,2780.0,A,-3783.0,-92.0,-762.0
-386.0,66.0,2844.0,A,-3968.0,-229.0,-585.0
-228.0,-19.0,3003.0,A,-4279.0,-476.0,-445.0
-114.0,-76.0,3202.0,A,-4555.0,-722.0,-326.0
-74.0,-120.0,3348.0,A,-4672.0,-891.0,-226.0
-89.0,-169.0,3507.0,A,-4716.0,-991.0,-170.0
-120.0,-248.0,3847.0,A,-4883.0,-1045.0,-161.0
-155.0,-335.0,4381.0,A,-5216.0,-1013.0,-163.0
-232.0,-363.0,4914.0,A,-5521.0,-817.0,-120.0
-360.0,-295.0,5288.0,A,-5598.0,-454.0,-19.0
-468.0,-190.0,5556.0,A,-5444.0,-16.0,114.0
-474.0,-159.0,5852.0,A,-5186.0,377.0,257.0
-372.0,-234.0,6181.0,A,-4878.0,657.0,401.0
-243.0,-340.0,6464.0,A,-4500.0,792.0,543.0
-156.0,-405.0,6690.0,A,-4121.0,764.0,654.0
-126.0,-442.0,6908.0,A,-3955.0,591.0,703.0
-143.0,-500.0,7082.0,A,-4149.0,337.0,682.0
-193.0,-588.0,7130.0,A,-4589.0,101.0,612.0
-251.0,-672.0,7096.0,A,-4958.0,-36.0,527.0
-289.0,-743.0,7150.0,A,-5023.0,-35.0,464.0
-318.0,-798.0,7354.0,A,-4801.0,99.0,438.0
-387.0,-812.0,7569.0,A,-4447.0,323.0,434.0
-497.0,-747.0,7649.0,A,-4031.0,559.0,411.0
-586.0,-637.0,7621.0,A,-3535.0,729.0,356.0
-589.0,-568.0,7566.0,A,-3003.0,770.0,292.0
-518.0,-589.0,7460.0,A,-2583.0,653.0,244.0
-426.0,-648.0,7240.0,A,-2329.0,389.0,199.0
-341.0,-679.0,6980.0,A,-2085.0,65.0,146.0
-254.0,-680.0,6812.0,A,-1653.0,-192.0,101.0
-182.0,-689.0,6723.0,A,-1055.0,-294.0,83.0
-166.0,-689.0,6567.0,A,-493.0,-256.0,77.0
-220.0,-634.0,6292.0,A,-93.0,-169.0,41.0
-297.0,-528.0,6007.0,A,183.0,-102.0,-26.0
-333.0,-444.0,5807.0,A,369.0,-65.0,-90.0
-318.0,-428.0,5634.0,A,405.0,-45.0,-127.0
-302.0,-452.0,5404.0,A,308.0,-48.0,-154.0
-319.0,-465.0,5133.0,A,271.0,-69.0,-185.0
-361.0,-467.0,4892.0,A,462.0,-70.0,-208.0
-392.0,-473.0,4709.0,A,784.0,-2.0,-205.0
-402.0,-486.0,4582.0,A,1000.0,132.0,-182.0
-389.0,-502.0,4536.0,A,1034.0,296.0,-151.0
-347.0,-547.0,4565.0,A,1045.0,455.0,-111.0
-281.0,-622.0,4597.0,A,1156.0,582.0,-57.0
-233.0,-681.0,4557.0,A,1282.0,637.0,-9.0
-238.0,-677.0,4469.0,A,1250.0,574.0,13.0
-281.0,-644.0,4395.0,A,1021.0,405.0,9.0
-305.0,-644.0,4349.0,A,701.0,195.0,-9.0
-298.0,-680.0,4296.0,A,418.0,21.0,-28.0
-289.0,-694.0,4240.0,A,255.0,-82.0,-42.0
-287.0,-678.0,4211.0,A,238.0,-101.0,-44.0
-256.0,-681.0,4213.0,A,336.0,-41.0,-33.0
-194.0,-728.0,4216.0,A,451.0,59.0,-15.0
-157.0,-760.0,4222.0,A,504.0,131.0,-1.0
-182.0,-730.0,4252.0,A,500.0,148.0,7.0
-223.0,-671.0,4305.0,A,501.0,153.0,7.0
-214.0,-648.0,4350.0,A,524.0,198.0,0.0
-165.0,-665.0,4373.0,A,524.0,257.0,-12.0
-141.0,-672.0,4370.0,A,461.0,262.0,-13.0
-157.0,-651.0,4334.0,A,338.0,186.0,4.0
-171.0,-622.0,4275.0,A,172.0,74.0,26.0
-158.0,-603.0,4247.0,A,-8.0,-20.0,37.0
-149.0,-586.0,4281.0,A,-145.0,-68.0,36.0
-163.0,-568.0,4336.0,A,-160.0,-65.0,36.0
-187.0,-556.0,4345.0,A,-47.0,-16.0,41.0
-197.0,-547.0,4312.0,A,117.0,46.0,43.0
-202.0,-520.0,4303.0,A,247.0,93.0,43.0
-207.0,-480.0,4337.0,A,329.0,118.0,43.0
-206.0,-456.0,4377.0,A,376.0,139.0,43.0
-193.0,-472.0,4395.0,A,375.0,149.0,38.0
-185.0,-504.0,4413.0,A,299.0,129.0,30.0
-191.0,-516.0,4437.0,A,176.0,83.0,21.0
-202.0,-505.0,4453.0,A,76.0,50.0,11.0
-197.0,-497.0,4457.0,A,37.0,49.0,-4.0
-178.0,-509.0,4468.0,A,32.0,60.0,-18.0
-164.0,-515.0,4478.0,A,22.0,57.0,-25.0
-176.0,-492.0,4462.0,A,6.0,47.0,-25.0
-206.0,-454.0,4427.0,A,13.0,44.0,-27.0
-229.0,-445.0,4413.0,A,53.0,46.0,-30.0
-228.0,-471.0,4414.0,A,106.0,39.0,-33.0
-222.0,-491.0,4392.0,A,137.0,30.0,-32.0
-238.0,-465.0,4348.0,A,141.0,32.0,-30.0
-273.0,-415.0,4342.0,A,152.0,52.0,-24.0
-291.0,-391.0,4386.0,A,203.0,82.0,-18.0
-279.0,-412.0,4421.0,A,257.0,106.0,-14.0
-258.0,-450.0,4402.0,A,226.0,96.0,-18.0
-252.0,-483.0,4369.0,A,84.0,43.0,-21.0
-244.0,-509.0,4361.0,A,-64.0,-27.0,-20.0
-218.0,-530.0,4362.0,A,-93.0,-62.0,-14.0
-192.0,-530.0,4345.0,A,12.0,-42.0,-11.0
-194.0,-509.0,4337.0,A,156.0,2.0,-13.0
-223.0,-491.0,4360.0,A,257.0,38.0,-18.0
-248.0,-493.0,4383.0,A,306.0,53.0,-25.0
137.0,-444.0,2339.0,A,4408.0,-1112.0,-910.0
14.0,-341.0,2227.0,A,3979.0,-1099.0,-1093.0
-110.0,-101.0,1928.0,A,3596.0,-1056.0,-1261.0
-82.0,-18.0,1563.0,A,3621.0,-1021.0,-1184.0
45.0,-170.0,1362.0,A,4002.0,-1064.0,-993.0
101.0,-295.0,1346.0,A,4207.0,-1174.0,-976.0
17.0,-204.0,1355.0,A,3782.0,-1230.0,-1181.0
-105.0,-28.0,1309.0,A,2901.0,-1147.0,-1406.0
-156.0,31.0,1265.0,A,2142.0,-968.0,-1496.0
-130.0,8.0,1222.0,A,1799.0,-817.0,-1502.0
-84.0,57.0,1075.0,A,1656.0,-754.0,-1517.0
-41.0,199.0,807.0,A,1480.0,-747.0,-1519.0
7.0,320.0,569.0,A,1359.0,-735.0,-1438.0
65.0,376.0,479.0,A,1413.0,-697.0,-1305.0
109.0,425.0,484.0,A,1448.0,-628.0,-1224.0
131.0,495.0,488.0,A,1208.0,-517.0,-1248.0
130.0,540.0,519.0,A,782.0,-346.0,-1327.0
90.0,565.0,633.0,A,480.0,-134.0,-1397.0
-24.0,648.0,778.0,A,374.0,69.0,-1437.0
-205.0,813.0,843.0,A,261.0,219.0,-1464.0
-369.0,957.0,822.0,A,18.0,301.0,-1485.0
-425.0,982.0,805.0,A,-264.0,325.0,-1493.0
-378.0,933.0,861.0,A,-506.0,302.0,-1470.0
-312.0,939.0,977.0,A,-738.0,261.0,-1406.0
-276.0,1029.0,1118.0,A,-940.0,248.0,-1300.0
-242.0,1105.0,1249.0,A,-1040.0,292.0,-1172.0
-189.0,1079.0,1356.0,A,-1109.0,355.0,-1052.0
-164.0,984.0,1474.0,A,-1367.0,362.0,-973.0
-235.0,900.0,1671.0,A,-1877.0,286.0,-950.0
-382.0,849.0,1941.0,A,-2428.0,192.0,-971.0
-522.0,789.0,2201.0,A,-2793.0,164.0,-982.0
-602.0,712.0,2399.0,A,-2969.0,224.0,-929.0
-621.0,651.0,2592.0,A,-3066.0,314.0,-799.0
-588.0,619.0,2807.0,A,-3141.0,367.0,-637.0
-492.0,567.0,2956.0,A,-3206.0,344.0,-483.0
-348.0,457.0,2947.0,A,-3297.0,240.0,-343.0
-203.0,300.0,2857.0,A,-3420.0,67.0,-200.0
-97.0,128.0,2848.0,A,-3536.0,-131.0,-63.0
-27.0,-66.0,2990.0,A,-3644.0,-287.0,53.0
29.0,-289.0,3230.0,A,-3789.0,-328.0,152.0
76.0,-484.0,3516.0,A,-3933.0,-222.0,253.0
98.0,-557.0,3817.0,A,-3984.0,-14.0,350.0
81.0,-501.0,4076.0,A,-3953.0,210.0,409.0
39.0,-426.0,4248.0,A,-3947.0,398.0,432.0
4.0,-451.0,4391.0,A,-3948.0,563.0,461.0
4.0,-572.0,4593.0,A,-3817.0,747.0,540.0
31.0,-689.0,4829.0,A,-3571.0,944.0,651.0
49.0,-733.0,5003.0,A,-3457.0,1109.0,740.0
36.0,-737.0,5101.0,A,-3589.0,1220.0,773.0
12.0,-757.0,5208.0,A,-3761.0,1299.0,760.0
-11.0,-786.0,5360.0,A,-3762.0,1348.0,718.0
-61.0,-788.0,5519.0,A,-3705.0,1328.0,656.0
-183.0,-775.0,5689.0,A,-3804.0,1208.0,575.0
-367.0,-799.0,5940.0,A,-4007.0,1031.0,491.0
-551.0,-860.0,6258.0,A,-4080.0,863.0,421.0
-677.0,-896.0,6517.0,A,-3979.0,739.0,378.0
-731.0,-874.0,6636.0,A,-3836.0,662.0,366.0
-739.0,-851.0,6683.0,A,-3665.0,663.0,396.0
-731.0,-874.0,6758.0,A,-3316.0,763.0,473.0
-726.0,-916.0,6881.0,A,-2750.0,924.0,583.0
-717.0,-924.0,7013.0,A,-2101.0,1044.0,687.0
-682.0,-928.0,7129.0,A,-1481.0,1042.0,754.0
-602.0,-985.0,7175.0,A,-936.0,889.0,767.0
-497.0,-1077.0,7072.0,A,-627.0,594.0,732.0
-400.0,-1119.0,6813.0,A,-785.0,188.0,654.0
-325.0,-1093.0,6521.0,A,-1384.0,-232.0,549.0
-252.0,-1078.0,6317.0,A,-2026.0,-530.0,440.0
-164.0,-1139.0,6210.0,A,-2304.0,-622.0,359.0
-69.0,-1232.0,6135.0,A,-2161.0,-543.0,317.0
4.0,-1284.0,6065.0,A,-1836.0,-412.0,301.0
23.0,-1275.0,5986.0,A,-1542.0,-317.0,274.0
-19.0,-1232.0,5859.0,A,-1326.0,-274.0,213.0
-105.0,-1166.0,5659.0,A,-1136.0,-256.0,117.0
-189.0,-1077.0,5438.0,A,-927.0,-240.0,4.0
-243.0,-986.0,5256.0,A,-697.0,-222.0,-108.0
-270.0,-927.0,5105.0,A,-505.0,-205.0,-214.0
-290.0,-906.0,4936.0,A,-405.0,-194.0,-303.0
-310.0,-914.0,4764.0,A,-384.0,-177.0,-366.0
-322.0,-941.0,4651.0,A,-358.0,-141.0,-395.0
-324.0,-982.0,4608.0,A,-272.0,-71.0,-396.0
-319.0,-1015.0,4588.0,A,-118.0,28.0,-372.0
-312.0,-1034.0,4558.0,A,101.0,147.0,-329.0
-300.0,-1053.0,4531.0,A,386.0,261.0,-273.0
-286.0,-1079.0,4514.0,A,667.0,343.0,-227.0
-273.0,-1092.0,4489.0,A,836.0,372.0,-212.0
-268.0,-1080.0,4441.0,A,854.0,349.0,-230.0
-275.0,-1064.0,4386.0,A,791.0,285.0,-254.0
-298.0,-1069.0,4339.0,A,702.0,199.0,-266.0
-329.0,-1085.0,4302.0,A,571.0,105.0,-266.0
-349.0,-1096.0,4265.0,A,376.0,27.0,-266.0
-343.0,-1106.0,4224.0,A,184.0,-20.0,-260.0
-321.0,-1127.0,4179.0,A,90.0,-34.0,-235.0
-297.0,-1145.0,4145.0,A,134.0,-28.0,-189.0
-284.0,-1144.0,4143.0,A,266.0,-8.0,-139.0
-286.0,-1125.0,4173.0,A,404.0,23.0,-99.0
-305.0,-1102.0,4200.0,A,485.0,64.0,-69.0
-325.0,-1073.0,4197.0,A,518.0,102.0,-45.0
-323.0,-1045.0,4179.0,A,566.0,133.0,-26.0
-295.0,-1033.0,4173.0,A,673.0,151.0,-14.0
-269.0,-1036.0,4188.0,A,794.0,154.0,-3.0
-260.0,-1025.0,4210.0,A,862.0,144.0,8.0
-255.0,-998.0,4236.0,A,874.0,132.0,25.0
-238.0,-992.0,4259.0,A,862.0,122.0,38.0
-223.0,-1027.0,4268.0,A,800.0,106.0,43.0
-229.0,-1050.0,4268.0,A,650.0,76.0,34.0
-248.0,-1013.0,4285.0,A,466.0,49.0,16.0
-257.0,-949.0,4319.0,A,370.0,48.0,-5.0
-257.0,-933.0,4332.0,A,380.0,77.0,-25.0
-268.0,-961.0,4301.0,A,399.0,110.0,-46.0
-285.0,-964.0,4265.0,A,369.0,133.0,-66.0
-294.0,-915.0,4265.0,A,346.0,150.0,-79.0
-300.0,-863.0,4291.0,A,385.0,171.0,-74.0
-319.0,-843.0,4304.0,A,440.0,190.0,-58.0
-346.0,-834.0,4305.0,A,467.0,206.0,-42.0
-353.0,-804.0,4317.0,A,502.0,220.0,-34.0
-340.0,-772.0,4332.0,A,580.0,235.0,-27.0
-327.0,-761.0,4320.0,A,630.0,233.0,-22.0
-327.0,-766.0,4293.0,A,561.0,202.0,-21.0
-321.0,-768.0,4290.0,A,386.0,147.0,-29.0
-298.0,-769.0,4318.0,A,214.0,94.0,-35.0
-279.0,-770.0,4334.0,A,116.0,63.0,-32.0
-278.0,-765.0,4325.0,A,95.0,55.0,-19.0
-281.0,-752.0,4315.0,A,119.0,62.0,-4.0
-266.0,-753.0,4323.0,A,151.0,68.0,6.0
636.0,-1111.0,2706.0,A,5854.0,-1668.0,-571.0
590.0,-968.0,2224.0,A,6125.0,-1676.0,-626.0
489.0,-773.0,1828.0,A,6126.0,-1680.0,-746.0
401.0,-560.0,1483.0,A,5893.0,-1642.0,-905.0
350.0,-348.0,1134.0,A,5593.0,-1586.0,-1054.0
304.0,-138.0,785.0,A,5298.0,-1532.0,-1153.0
237.0,78.0,456.0,A,4913.0,-1453.0,-1204.0
160.0,288.0,157.0,A,4362.0,-1309.0,-1212.0
117.0,461.0,-83.0,A,3748.0,-1119.0,-1166.0
140.0,573.0,-210.0,A,3210.0,-937.0,-1064.0
216.0,617.0,-228.0,A,2766.0,-813.0,-948.0
295.0,588.0,-205.0,A,2402.0,-763.0,-870.0
356.0,500.0,-192.0,A,2189.0,-784.0,-861.0
417.0,395.0,-171.0,A,2136.0,-848.0,-936.0
487.0,335.0,-123.0,A,2046.0,-907.0,-1108.0
515.0,352.0,-64.0,A,1693.0,-915.0,-1355.0
453.0,431.0,3.0,A,1136.0,-871.0,-1603.0
324.0,531.0,121.0,A,639.0,-800.0,-1773.0
203.0,621.0,285.0,A,319.0,-725.0,-1853.0
121.0,670.0,422.0,A,43.0,-649.0,-1885.0
65.0,664.0,480.0,A,-290.0,-568.0,-1898.0
33.0,610.0,508.0,A,-595.0,-474.0,-1874.0
47.0,546.0,570.0,A,-787.0,-367.0,-1802.0
95.0,501.0,660.0,A,-959.0,-254.0,-1704.0
135.0,490.0,738.0,A,-1237.0,-145.0,-1617.0
142.0,519.0,822.0,A,-1562.0,-27.0,-1551.0
131.0,592.0,946.0,A,-1780.0,115.0,-1504.0
114.0,681.0,1100.0,A,-1882.0,266.0,-1480.0
95.0,735.0,1240.0,A,-2044.0,370.0,-1494.0
79.0,721.0,1367.0,A,-2389.0,382.0,-1542.0
61.0,656.0,1497.0,A,-2849.0,318.0,-1597.0
-17.0,587.0,1620.0,A,-3245.0,224.0,-1628.0
-199.0,564.0,1714.0,A,-3471.0,146.0,-1631.0
-418.0,608.0,1804.0,A,-3545.0,114.0,-1611.0
-528.0,701.0,1926.0,A,-3562.0,153.0,-1572.0
-470.0,776.0,2067.0,A,-3627.0,239.0,-1500.0
-318.0,767.0,2179.0,A,-3832.0,298.0,-1391.0
-169.0,642.0,2252.0,A,-4205.0,260.0,-1257.0
-29.0,414.0,2317.0,A,-4678.0,139.0,-1114.0
125.0,99.0,2418.0,A,-5091.0,7.0,-956.0
263.0,-262.0,2612.0,A,-5313.0,-76.0,-776.0
305.0,-586.0,2981.0,A,-5351.0,-102.0,-597.0
217.0,-764.0,3555.0,A,-5340.0,-53.0,-478.0
24.0,-768.0,4237.0,A,-5384.0,115.0,-447.0
-207.0,-677.0,4826.0,A,-5442.0,433.0,-474.0
-395.0,-605.0,5154.0,A,-5406.0,831.0,-492.0
-459.0,-605.0,5190.0,A,-5278.0,1153.0,-460.0
-396.0,-664.0,5046.0,A,-5175.0,1244.0,-382.0
-308.0,-741.0,4925.0,A,-5171.0,1086.0,-291.0
-325.0,-803.0,5023.0,A,-5199.0,820.0,-214.0
-490.0,-813.0,5439.0,A,-5175.0,664.0,-169.0
-747.0,-750.0,6113.0,A,-5107.0,755.0,-151.0
-1005.0,-622.0,6863.0,A,-5031.0,1081.0,-139.0
-1184.0,-485.0,7446.0,A,-4864.0,1500.0,-96.0
-1237.0,-421.0,7669.0,A,-4501.0,1828.0,-4.0
-1173.0,-496.0,7524.0,A,-4013.0,1896.0,125.0
-1069.0,-684.0,7253.0,A,-3654.0,1640.0,243.0
-1010.0,-874.0,7175.0,A,-3574.0,1153.0,303.0
-1026.0,-964.0,7402.0,A,-3657.0,662.0,293.0
-1084.0,-952.0,7756.0,A,-3688.0,377.0,243.0
-1144.0,-916.0,8004.0,A,-3605.0,364.0,200.0
-1169.0,-906.0,8078.0,A,-3464.0,531.0,185.0
-1127.0,-915.0,8037.0,A,-3257.0,738.0,202.0
-994.0,-931.0,7891.0,A,-2897.0,869.0,254.0
-797.0,-973.0,7604.0,A,-2398.0,856.0,342.0
-598.0,-1030.0,7209.0,A,-1907.0,680.0,435.0
-460.0,-1054.0,6819.0,A,-1545.0,396.0,486.0
-394.0,-1019.0,6493.0,A,-1281.0,104.0,467.0
-380.0,-965.0,6208.0,A,-1044.0,-94.0,398.0
-390.0,-932.0,5937.0,A,-824.0,-157.0,315.0
-418.0,-908.0,5706.0,A,-636.0,-103.0,244.0
-466.0,-862.0,5529.0,A,-445.0,12.0,189.0
-517.0,-811.0,5376.0,A,-226.0,128.0,154.0
-528.0,-796.0,5207.0,A,-6.0,199.0,137.0
-476.0,-825.0,5014.0,A,184.0,219.0,138.0
-388.0,-868.0,4814.0,A,383.0,195.0,160.0
-322.0,-907.0,4622.0,A,603.0,139.0,204.0
-288.0,-942.0,4453.0,A,742.0,61.0,249.0
-253.0,-982.0,4304.0,A,696.0,-16.0,269.0
-189.0,-1026.0,4169.0,A,520.0,-75.0,256.0
-124.0,-1075.0,4061.0,A,394.0,-108.0,235.0
-100.0,-1111.0,4020.0,A,409.0,-123.0,219.0
-123.0,-1114.0,4051.0,A,477.0,-117.0,199.0
-175.0,-1080.0,4106.0,A,492.0,-86.0,158.0
-231.0,-1040.0,4129.0,A,456.0,-32.0,105.0
-276.0,-1015.0,4122.0,A,427.0,31.0,58.0
-301.0,-999.0,4116.0,A,402.0,90.0,21.0
-306.0,-981.0,4122.0,A,354.0,129.0,-10.0
-307.0,-978.0,4127.0,A,323.0,149.0,-27.0
-309.0,-998.0,4140.0,A,395.0,160.0,-16.0
-305.0,-1021.0,4173.0,A,563.0,182.0,8.0
-289.0,-1019.0,4217.0,A,707.0,212.0,18.0
-280.0,-1005.0,4262.0,A,718.0,233.0,-7.0
-292.0,-1001.0,4311.0,A,621.0,232.0,-54.0
-319.0,-1005.0,4359.0,A,510.0,220.0,-93.0
-338.0,-989.0,4373.0,A,422.0,201.0,-116.0
-348.0,-952.0,4350.0,A,325.0,171.0,-128.0
-362.0,-919.0,4333.0,A,236.0,127.0,-142.0
-392.0,-910.0,4358.0,A,233.0,91.0,-156.0
-426.0,-914.0,4391.0,A,332.0,79.0,-156.0
-448.0,-912.0,4388.0,A,412.0,86.0,-137.0
-449.0,-887.0,4359.0,A,374.0,91.0,-105.0
-440.0,-847.0,4346.0,A,291.0,94.0,-70.0
-427.0,-819.0,4347.0,A,321.0,100.0,-40.0
-412.0,-828.0,4345.0,A,462.0,104.0,-14.0
-390.0,-859.0,4347.0,A,548.0,86.0,-4.0
-377.0,-873.0,4362.0,A,477.0,50.0,-16.0
-389.0,-851.0,4360.0,A,353.0,14.0,-46.0
-424.0,-817.0,4319.0,A,316.0,1.0,-70.0
-444.0,-794.0,4269.0,A,366.0,11.0,-82.0
-428.0,-779.0,4249.0,A,414.0,31.0,-87.0
-395.0,-756.0,4234.0,A,428.0,42.0,-94.0
-382.0,-737.0,4192.0,A,437.0,40.0,-92.0
-388.0,-733.0,4157.0,A,431.0,32.0,-78.0
-388.0,-738.0,4183.0,A,390.0,38.0,-61.0
-372.0,-736.0,4242.0,A,343.0,53.0,-53.0
-368.0,-727.0,4268.0,A,337.0,58.0,-51.0
-389.0,-712.0,4253.0,A,340.0,39.0,-53.0
-421.0,-693.0,4257.0,A,302.0,14.0,-58.0
-439.0,-673.0,4292.0,A,246.0,6.0,-64.0
-439.0,-670.0,4316.0,A,247.0,17.0,-55.0
-428.0,-678.0,4306.0,A,297.0,28.0,-27.0
-419.0,-675.0,4296.0,A,312.0,30.0,8.0
-416.0,-655.0,4307.0,A,246.0,24.0,33.0
-410.0,-116.0,4197.0,A,1848.0,262.0,1182.0
-434.0,-76.0,4176.0,A,2260.0,351.0,1190.0
-441.0,19.0,4145.0,A,2475.0,389.0,1136.0
-427.0,127.0,4144.0,A,2415.0,373.0,1044.0
-420.0,171.0,4162.0,A,2084.0,335.0,990.0
-419.0,143.0,4175.0,A,1534.0,301.0,1024.0
-408.0,115.0,4196.0,A,926.0,293.0,1119.0
-380.0,117.0,4245.0,A,484.0,311.0,1199.0
-340.0,106.0,4295.0,A,309.0,341.0,1240.0
-290.0,51.0,4306.0,A,278.0,355.0,1264.0
-251.0,4.0,4274.0,A,254.0,355.0,1283.0
-269.0,27.0,4227.0,A,284.0,371.0,1259.0
-355.0,113.0,4191.0,A,489.0,435.0,1166.0
-452.0,201.0,4188.0,A,795.0,530.0,1026.0
-494.0,244.0,4214.0,A,940.0,602.0,896.0
-482.0,227.0,4237.0,A,733.0,595.0,823.0
-469.0,178.0,4224.0,A,252.0,499.0,824.0
-466.0,142.0,4211.0,A,-250.0,358.0,877.0
-442.0,143.0,4249.0,A,-552.0,247.0,944.0
-383.0,136.0,4316.0,A,-603.0,208.0,999.0
-333.0,82.0,4323.0,A,-552.0,220.0,1056.0
-330.0,20.0,4256.0,A,-584.0,228.0,1128.0
-368.0,27.0,4195.0,A,-709.0,213.0,1194.0
-409.0,86.0,4198.0,A,-735.0,206.0,1213.0
-439.0,115.0,4216.0,A,-530.0,238.0,1178.0
-473.0,102.0,4204.0,A,-202.0,292.0,1113.0
-532.0,127.0,4201.0,A,41.0,330.0,1043.0
-598.0,207.0,4246.0,A,163.0,334.0,969.0
-624.0,254.0,4293.0,A,237.0,313.0,913.0
-587.0,212.0,4264.0,A,236.0,261.0,909.0
-536.0,156.0,4167.0,A,40.0,162.0,978.0
-525.0,157.0,4067.0,A,-313.0,16.0,1086.0
-534.0,168.0,4006.0,A,-591.0,-129.0,1181.0
-490.0,117.0,3980.0,A,-626.0,-216.0,1223.0
-397.0,44.0,3972.0,A,-512.0,-219.0,1219.0
-345.0,28.0,3941.0,A,-430.0,-174.0,1199.0
-391.0,66.0,3857.0,A,-417.0,-127.0,1187.0
-460.0,95.0,3754.0,A,-354.0,-84.0,1163.0
-461.0,106.0,3722.0,A,-143.0,-6.0,1088.0
-397.0,119.0,3772.0,A,201.0,126.0,947.0
-325.0,113.0,3813.0,A,584.0,280.0,777.0
-245.0,56.0,3767.0,A,903.0,384.0,620.0
-132.0,-15.0,3680.0,A,1087.0,411.0,495.0
-45.0,-47.0,3639.0,A,1111.0,397.0,417.0
-68.0,-41.0,3676.0,A,964.0,414.0,423.0
-175.0,-33.0,3782.0,A,635.0,495.0,513.0
-232.0,-7.0,3952.0,A,157.0,625.0,631.0
-177.0,43.0,4136.0,A,-364.0,744.0,718.0
-103.0,57.0,4237.0,A,-828.0,789.0,782.0
-115.0,-11.0,4225.0,A,-1203.0,723.0,847.0
-196.0,-71.0,4203.0,A,-1492.0,582.0,878.0
-238.0,-5.0,4263.0,A,-1639.0,458.0,808.0
-190.0,134.0,4366.0,A,-1575.0,441.0,641.0
-86.0,163.0,4422.0,A,-1338.0,523.0,443.0
15.0,17.0,4439.0,A,-1086.0,595.0,259.0
85.0,-172.0,4476.0,A,-957.0,541.0,90.0
116.0,-256.0,4544.0,A,-1001.0,354.0,-15.0
95.0,-225.0,4623.0,A,-1189.0,137.0,15.0
22.0,-146.0,4740.0,A,-1443.0,9.0,168.0
-83.0,-62.0,4895.0,A,-1631.0,-2.0,297.0
-171.0,-5.0,5008.0,A,-1669.0,39.0,288.0
-197.0,-21.0,5011.0,A,-1627.0,48.0,185.0
-158.0,-103.0,4973.0,A,-1668.0,-23.0,125.0
-104.0,-185.0,4986.0,A,-1830.0,-155.0,162.0
-83.0,-220.0,5011.0,A,-1969.0,-279.0,243.0
-115.0,-228.0,4943.0,A,-1937.0,-320.0,296.0
-192.0,-237.0,4812.0,A,-1757.0,-269.0,303.0
-300.0,-231.0,4745.0,A,-1575.0,-186.0,272.0
-403.0,-206.0,4776.0,A,-1504.0,-147.0,217.0
-452.0,-209.0,4811.0,A,-1546.0,-162.0,161.0
-435.0,-256.0,4804.0,A,-1609.0,-192.0,131.0
-410.0,-303.0,4801.0,A,-1580.0,-199.0,123.0
-428.0,-312.0,4812.0,A,-1403.0,-182.0,118.0
-472.0,-318.0,4778.0,A,-1151.0,-145.0,103.0
-490.0,-357.0,4706.0,A,-952.0,-91.0,92.0
-479.0,-406.0,4679.0,A,-856.0,-35.0,90.0
-474.0,-429.0,4705.0,A,-806.0,-5.0,93.0
-486.0,-448.0,4674.0,A,-749.0,-8.0,95.0
-492.0,-488.0,4548.0,A,-695.0,-29.0,102.0
-499.0,-522.0,4447.0,A,-661.0,-50.0,106.0
-537.0,-504.0,4478.0,A,-621.0,-64.0,97.0
-599.0,-462.0,4577.0,A,-579.0,-58.0,81.0
-638.0,-459.0,4606.0,A,-586.0,-31.0,68.0
-628.0,-505.0,4554.0,A,-657.0,-10.0,63.0
-600.0,-550.0,4509.0,A,-705.0,-30.0,51.0
-588.0,-578.0,4515.0,A,-668.0,-81.0,33.0
-595.0,-621.0,4528.0,A,-632.0,-135.0,24.0
-601.0,-699.0,4529.0,A,-759.0,-194.0,47.0
-583.0,-775.0,4553.0,A,-1068.0,-287.0,96.0
-532.0,-814.0,4625.0,A,-1360.0,-386.0,146.0
-466.0,-821.0,4710.0,A,-1408.0,-411.0,167.0
-432.0,-805.0,4793.0,A,-1187.0,-335.0,160.0
-450.0,-751.0,4926.0,A,-912.0,-242.0,144.0
-464.0,-655.0,5157.0,A,-828.0,-221.0,136.0
-415.0,-576.0,5413.0,A,-988.0,-263.0,132.0
-327.0,-577.0,5523.0,A,-1231.0,-300.0,129.0
-284.0,-636.0,5416.0,A,-1378.0,-331.0,131.0
-316.0,-651.0,5249.0,A,-1404.0,-400.0,143.0
-355.0,-577.0,5267.0,A,-1419.0,-503.0,152.0
-329.0,-488.0,5532.0,A,-1489.0,-565.0,156.0
-235.0,-491.0,5893.0,A,-1546.0,-545.0,163.0
-132.0,-586.0,6227.0,A,-1444.0,-474.0,178.0
-82.0,-670.0,6613.0,A,-1125.0,-405.0,170.0
-147.0,-671.0,7163.0,A,-701.0,-347.0,116.0
-349.0,-622.0,7818.0,A,-381.0,-300.0,24.0
-636.0,-574.0,8414.0,A,-244.0,-280.0,-77.0
-872.0,-549.0,8880.0,A,-136.0,-310.0,-184.0
-909.0,-568.0,9207.0,A,170.0,-400.0,-267.0
-679.0,-684.0,9313.0,A,678.0,-585.0,-227.0
-235.0,-901.0,9102.0,A,1151.0,-926.0,42.0
262.0,-1137.0,8666.0,A,1421.0,-1449.0,516.0
625.0,-1302.0,8231.0,A,1579.0,-2074.0,1014.0
771.0,-1407.0,7909.0,A,1803.0,-2642.0,1335.0
760.0,-1507.0,7630.0,A,2104.0,-2993.0,1372.0
716.0,-1604.0,7363.0,A,2418.0,-3041.0,1107.0
711.0,-1661.0,7192.0,A,2832.0,-2793.0,572.0
756.0,-1693.0,7140.0,A,3541.0,-2360.0,-110.0
830.0,-1734.0,7069.0,A,4544.0,-1918.0,-741.0
878.0,-1752.0,6861.0,A,5577.0,-1620.0,-1162.0
805.0,-1684.0,6538.0,A,6338.0,-1511.0,-1376.0
591.0,-1564.0,6144.0,A,6720.0,-1544.0,-1498.0
356.0,-1496.0,5641.0,A,6805.0,-1644.0,-1605.0
249.0,-1502.0,5062.0,A,6794.0,-1762.0,-1686.0
268.0,-1487.0,4574.0,A,6910.0,-1847.0,-1706.0
299.0,-1404.0,4272.0,A,7229.0,-1855.0,-1661.0
282.0,-1320.0,4009.0,A,7546.0,-1776.0,-1562.0
267.0,-1293.0,3622.0,A,7564.0,-1661.0,-1435.0
275.0,-1270.0,3188.0,A,7230.0,-1568.0,-1320.0
256.0,-1194.0,2892.0,A,6785.0,-1505.0,-1257.0
203.0,-1105.0,2733.0,A,6453.0,-1430.0,-1236.0
203.0,-1068.0,2541.0,A,6262.0,-1338.0,-1221.0
292.0,-1036.0,2262.0,A,6186.0,-1280.0,-1197.0
371.0,-919.0,1978.0,A,6273.0,-1313.0,-1181.0
327.0,-722.0,1696.0,A,6482.0,-1430.0,-1173.0
197.0,-541.0,1304.0,A,6573.0,-1587.0,-1161.0
98.0,-412.0,800.0,A,6339.0,-1744.0,-1154.0
67.0,-278.0,350.0,A,5876.0,-1881.0,-1189.0
31.0,-91.0,82.0,A,5447.0,-1951.0,-1267.0
-56.0,116.0,-54.0,A,5149.0,-1902.0,-1340.0
-156.0,291.0,-148.0,A,4841.0,-1738.0,-1366.0
-201.0,417.0,-208.0,A,4401.0,-1549.0,-1367.0
-185.0,494.0,-230.0,A,3858.0,-1433.0,-1377.0
-131.0,517.0,-283.0,A,3304.0,-1416.0,-1394.0
-47.0,491.0,-400.0,A,2780.0,-1447.0,-1385.0
89.0,445.0,-519.0,A,2333.0,-1469.0,-1343.0
267.0,404.0,-567.0,A,2038.0,-1454.0,-1287.0
427.0,388.0,-565.0,A,1907.0,-1406.0,-1241.0
497.0,422.0,-542.0,A,1799.0,-1326.0,-1222.0
471.0,521.0,-474.0,A,1520.0,-1210.0,-1250.0
396.0,654.0,-349.0,A,1003.0,-1053.0,-1334.0
315.0,764.0,-242.0,A,372.0,-867.0,-1462.0
230.0,821.0,-207.0,A,-199.0,-687.0,-1602.0
162.0,839.0,-200.0,A,-661.0,-563.0,-1730.0
156.0,837.0,-153.0,A,-1097.0,-516.0,-1824.0
214.0,828.0,-89.0,A,-1562.0,-522.0,-1870.0
243.0,832.0,-51.0,A,-1973.0,-516.0,-1863.0
164.0,871.0,-2.0,A,-2226.0,-443.0,-1833.0
15.0,915.0,128.0,A,-2351.0,-288.0,-1815.0
-101.0,914.0,324.0,A,-2481.0,-84.0,-1823.0
-165.0,865.0,522.0,A,-2659.0,117.0,-1832.0
-234.0,824.0,704.0,A,-2839.0,272.0,-1823.0
-326.0,811.0,894.0,A,-3047.0,350.0,-1795.0
-392.0,770.0,1057.0,A,-3428.0,343.0,-1756.0
-417.0,648.0,1142.0,A,-4032.0,270.0,-1694.0
-458.0,490.0,1176.0,A,-4676.0,187.0,-1599.0
-539.0,373.0,1267.0,A,-5116.0,156.0,-1480.0
-606.0,301.0,1474.0,A,-5315.0,207.0,-1365.0
-600.0,202.0,1770.0,A,-5426.0,304.0,-1265.0
-551.0,52.0,2073.0,A,-5603.0,387.0,-1171.0
-530.0,-84.0,2301.0,A,-5905.0,408.0,-1068.0
-580.0,-149.0,2401.0,A,-6344.0,353.0,-967.0
-696.0,-182.0,2457.0,A,-6875.0,249.0,-875.0
-856.0,-264.0,2696.0,A,-7354.0,177.0,-784.0
-1014.0,-409.0,3299.0,A,-7607.0,237.0,-661.0
-1123.0,-539.0,4171.0,A,-7605.0,468.0,-485.0
-1156.0,-593.0,5011.0,A,-7491.0,783.0,-254.0
-1113.0,-597.0,5609.0,A,-7415.0,1042.0,22.0
-982.0,-630.0,5987.0,A,-7379.0,1165.0,339.0
-769.0,-755.0,6262.0,A,-7289.0,1164.0,678.0
-530.0,-977.0,6482.0,A,-7082.0,1079.0,999.0
-354.0,-1260.0,6691.0,A,-6795.0,954.0,1251.0
-293.0,-1533.0,7014.0,A,-6502.0,863.0,1390.0
-354.0,-1709.0,7581.0,A,-6242.0,910.0,1403.0
-524.0,-1722.0,8357.0,A,-5980.0,1142.0,1305.0
-740.0,-1593.0,9133.0,A,-5646.0,1495.0,1148.0
-855.0,-1425.0,9648.0,A,-5196.0,1818.0,993.0
-756.0,-1325.0,9748.0,A,-4673.0,1944.0,888.0
-498.0,-1304.0,9451.0,A,-4184.0,1741.0,831.0
-282.0,-1283.0,8935.0,A,-3834.0,1194.0,788.0
-238.0,-1184.0,8406.0,A,-3630.0,461.0,714.0
-321.0,-1022.0,7969.0,A,-3469.0,-172.0,593.0
-426.0,-875.0,7608.0,A,-3205.0,-487.0,440.0
-502.0,-798.0,7287.0,A,-2785.0,-476.0,301.0
-539.0,-773.0,6992.0,A,-2293.0,-297.0,216.0
-531.0,-764.0,6710.0,A,-1862.0,-119.0,193.0
-486.0,-768.0,6415.0,A,-1531.0,-18.0,209.0
-439.0,-810.0,6135.0,A,-1248.0,2.0,229.0
-400.0,-877.0,5935.0,A,-977.0,-31.0,237.0
-349.0,-923.0,5819.0,A,-748.0,-78.0,235.0
-293.0,-911.0,5700.0,A,-566.0,-103.0,234.0
-283.0,-858.0,5521.0,A,-363.0,-88.0,231.0
-328.0,-797.0,5322.0,A,-57.0,-38.0,213.0
-375.0,-744.0,5155.0,A,361.0,31.0,156.0
-387.0,-687.0,4991.0,A,835.0,99.0,61.0
-394.0,-628.0,4792.0,A,1291.0,146.0,-39.0
-421.0,-587.0,4608.0,A,1635.0,160.0,-96.0
-429.0,-589.0,4512.0,A,1778.0,144.0,-85.0
-379.0,-636.0,4493.0,A,1687.0,100.0,-18.0
-296.0,-708.0,4481.0,A,1431.0,34.0,72.0
-223.0,-778.0,4459.0,A,1119.0,-36.0,163.0
-174.0,-828.0,4460.0,A,835.0,-81.0,231.0
-146.0,-857.0,4482.0,A,623.0,-91.0,255.0
-151.0,-877.0,4475.0,A,498.0,-72.0,226.0
-180.0,-891.0,4424.0,A,433.0,-35.0,164.0
-195.0,-894.0,4361.0,A,375.0,16.0,98.0
-179.0,-895.0,4312.0,A,325.0,66.0,46.0
-163.0,-910.0,4269.0,A,331.0,89.0,13.0
-169.0,-943.0,4239.0,A,396.0,75.0,0.0
-181.0,-968.0,4234.0,A,427.0,46.0,6.0
-177.0,-960.0,4238.0,A,351.0,18.0,22.0
-174.0,-929.0,4217.0,A,212.0,-2.0,33.0
-181.0,-903.0,4181.0,A,117.0,-14.0,34.0
-189.0,-899.0,4172.0,A,89.0,0.0,36.0
-191.0,-905.0,4190.0,A,76.0,45.0,42.0
-200.0,-911.0,4200.0,A,52.0,98.0,45.0
-207.0,-912.0,4190.0,A,53.0,131.0,34.0
-193.0,-910.0,4198.0,A,90.0,134.0,12.0
-170.0,-899.0,4234.0,A,122.0,106.0,-16.0
-183.0,-882.0,4266.0,A,111.0,60.0,-45.0
-227.0,-865.0,4267.0,A,78.0,28.0,-68.0
-254.0,-853.0,4264.0,A,67.0,45.0,-78.0
-244.0,-837.0,4282.0,A,94.0,99.0,-82.0
-238.0,-816.0,4311.0,A,134.0,142.0,-89.0
-257.0,-790.0,4323.0,A,158.0,141.0,-107.0
-281.0,-756.0,4318.0,A,148.0,117.0,-127.0
-767.0,-519.0,4482.0,A,140.0,-290.0,388.0
-823.0,-551.0,4328.0,A,321.0,-370.0,449.0
-921.0,-667.0,4202.0,A,709.0,-473.0,525.0
-781.0,-572.0,4297.0,A,846.0,-342.0,552.0
-346.0,-191.0,4569.0,A,570.0,57.0,506.0
85.0,174.0,4760.0,A,251.0,418.0,445.0
225.0,265.0,4716.0,A,287.0,480.0,449.0
123.0,207.0,4523.0,A,560.0,348.0,514.0
32.0,251.0,4356.0,A,655.0,289.0,579.0
63.0,370.0,4300.0,A,451.0,351.0,619.0
126.0,359.0,4341.0,A,246.0,398.0,669.0
110.0,202.0,4393.0,A,292.0,377.0,731.0
9.0,122.0,4362.0,A,489.0,368.0,738.0
-110.0,259.0,4281.0,A,589.0,399.0,621.0
-173.0,503.0,4325.0,A,541.0,424.0,415.0
-165.0,636.0,4551.0,A,476.0,430.0,221.0
-132.0,576.0,4726.0,A,489.0,457.0,110.0
-128.0,421.0,4631.0,A,539.0,477.0,69.0
-139.0,336.0,4413.0,A,546.0,418.0,67.0
-134.0,377.0,4375.0,A,462.0,285.0,105.0
-133.0,450.0,4456.0,A,301.0,188.0,194.0
-176.0,432.0,4306.0,A,130.0,204.0,304.0
-225.0,347.0,3901.0,A,52.0,314.0,388.0
-221.0,318.0,3702.0,A,109.0,458.0,426.0
-181.0,389.0,4017.0,A,236.0,599.0,432.0
-176.0,465.0,4542.0,A,323.0,701.0,412.0
-203.0,470.0,4777.0,A,330.0,723.0,364.0
-201.0,441.0,4676.0,A,284.0,644.0,313.0
-160.0,443.0,4565.0,A,206.0,487.0,314.0
-133.0,464.0,4603.0,A,81.0,300.0,382.0
-138.0,465.0,4621.0,A,-86.0,156.0,470.0
-164.0,444.0,4477.0,A,-263.0,120.0,523.0
-215.0,424.0,4267.0,A,-406.0,192.0,547.0
-275.0,407.0,4166.0,A,-492.0,285.0,576.0
-255.0,398.0,4218.0,A,-512.0,317.0,618.0
-134.0,394.0,4357.0,A,-500.0,292.0,634.0
-51.0,363.0,4491.0,A,-527.0,266.0,599.0
-133.0,287.0,4568.0,A,-636.0,256.0,519.0
-263.0,230.0,4594.0,A,-758.0,223.0,432.0
-247.0,255.0,4625.0,A,-789.0,130.0,373.0
-131.0,311.0,4671.0,A,-723.0,0.0,358.0
-137.0,289.0,4677.0,A,-653.0,-114.0,345.0
-282.0,198.0,4624.0,A,-613.0,-148.0,281.0
-354.0,127.0,4584.0,A,-544.0,-80.0,170.0
-276.0,74.0,4574.0,A,-450.0,30.0,89.0
-225.0,-33.0,4491.0,A,-452.0,79.0,80.0
-290.0,-111.0,4279.0,A,-612.0,2.0,78.0
-306.0,22.0,4097.0,A,-776.0,-162.0,31.0
-157.0,326.0,4137.0,A,-749.0,-348.0,21.0
-25.0,475.0,4353.0,A,-540.0,-515.0,175.0
-106.0,297.0,4508.0,A,-330.0,-632.0,430.0
-290.0,22.0,4492.0,A,-215.0,-649.0,552.0
-324.0,-41.0,4408.0,A,-139.0,-567.0,410.0
-189.0,74.0,4365.0,A,-63.0,-471.0,146.0
-89.0,129.0,4334.0,A,-39.0,-437.0,-18.0
-143.0,58.0,4268.0,A,-89.0,-417.0,-41.0
-269.0,7.0,4208.0,A,-137.0,-314.0,-39.0
-348.0,43.0,4215.0,A,-122.0,-131.0,-67.0
-334.0,96.0,4258.0,A,-83.0,17.0,-70.0
-232.0,133.0,4264.0,A,-74.0,59.0,-8.0
-76.0,212.0,4215.0,A,-87.0,41.0,67.0
56.0,329.0,4169.0,A,-107.0,37.0,102.0
117.0,407.0,4181.0,A,-163.0,55.0,93.0
122.0,417.0,4243.0,A,-251.0,49.0,52.0
100.0,409.0,4280.0,A,-290.0,-6.0,-34.0
29.0,387.0,4236.0,A,-217.0,-102.0,-148.0
-95.0,321.0,4161.0,A,-92.0,-207.0,-237.0
-217.0,241.0,4173.0,A,-28.0,-285.0,-271.0
-284.0,221.0,4289.0,A,-69.0,-302.0,-277.0
-324.0,239.0,4383.0,A,-176.0,-264.0,-276.0
-363.0,211.0,4357.0,A,-301.0,-201.0,-258.0
-372.0,138.0,4288.0,A,-409.0,-126.0,-218.0
-336.0,117.0,4315.0,A,-472.0,-22.0,-192.0
-307.0,163.0,4424.0,A,-479.0,93.0,-194.0
-322.0,196.0,4505.0,A,-450.0,159.0,-188.0
-336.0,182.0,4532.0,A,-389.0,125.0,-143.0
-304.0,182.0,4569.0,A,-289.0,31.0,-77.0
-272.0,205.0,4602.0,A,-189.0,-42.0,-22.0
-290.0,177.0,4559.0,A,-176.0,-67.0,27.0
-322.0,78.0,4470.0,A,-271.0,-82.0,80.0
-314.0,4.0,4461.0,A,-386.0,-105.0,117.0
-289.0,9.0,4535.0,A,-419.0,-118.0,126.0
-287.0,17.0,4561.0,A,-375.0,-132.0,126.0
-293.0,-40.0,4504.0,A,-309.0,-226.0,105.0
-273.0,-85.0,4508.0,A,-239.0,-430.0,9.0
-256.0,-14.0,4639.0,A,-155.0,-650.0,-166.0
-268.0,120.0,4740.0,A,-87.0,-767.0,-305.0
-285.0,154.0,4656.0,A,-58.0,-805.0,-300.0
-277.0,26.0,4483.0,A,-29.0,-889.0,-197.0
-267.0,-152.0,4407.0,A,59.0,-1018.0,-129.0
-263.0,-240.0,4432.0,A,175.0,-1015.0,-105.0
-236.0,-222.0,4414.0,A,201.0,-755.0,-8.0
-198.0,-190.0,4319.0,A,41.0,-347.0,205.0
-225.0,-210.0,4235.0,A,-288.0,8.0,402.0
-325.0,-264.0,4188.0,A,-679.0,269.0,445.0
-399.0,-300.0,4099.0,A,-979.0,527.0,351.0
-390.0,-318.0,3964.0,A,-1087.0,808.0,231.0
-380.0,-353.0,3888.0,A,-1019.0,1009.0,121.0
-427.0,-406.0,3928.0,A,-889.0,1056.0,2.0
-456.0,-416.0,4014.0,A,-780.0,989.0,-111.0
-380.0,-364.0,4082.0,A,-683.0,875.0,-179.0
-264.0,-310.0,4151.0,A,-568.0,724.0,-223.0
-210.0,-313.0,4245.0,A,-476.0,544.0,-307.0
-218.0,-341.0,4318.0,A,-476.0,373.0,-420.0
-250.0,-338.0,4350.0,A,-590.0,233.0,-489.0
-340.0,-312.0,4397.0,A,-769.0,96.0,-478.0
-486.0,-307.0,4507.0,A,-929.0,-48.0,-434.0
-533.0,-294.0,4628.0,A,-954.0,-167.0,-379.0
-365.0,-221.0,4690.0,A,-763.0,-258.0,-273.0
-114.0,-117.0,4697.0,A,-417.0,-370.0,-99.0
-6.0,-74.0,4699.0,A,-110.0,-520.0,70.0
-43.0,-95.0,4708.0,A,26.0,-640.0,151.0
-43.0,-100.0,4706.0,A,51.0,-675.0,149.0
39.0,-62.0,4695.0,A,74.0,-646.0,127.0
71.0,-61.0,4693.0,A,91.0,-597.0,118.0
-12.0,-126.0,4692.0,A,27.0,-512.0,97.0
-92.0,-179.0,4678.0,A,-100.0,-371.0,56.0
-86.0,-161.0,4648.0,A,-209.0,-214.0,14.0
-66.0,-139.0,4619.0,A,-282.0,-102.0,-8.0
-113.0,-182.0,4602.0,A,-367.0,-36.0,-20.0
-171.0,-243.0,4606.0,A,-445.0,4.0,-25.0
-169.0,-245.0,4614.0,A,-454.0,15.0,-26.0
-134.0,-233.0,4572.0,A,-407.0,-10.0,-21.0
-126.0,-288.0,4469.0,A,-394.0,-37.0,-14.0
-129.0,-373.0,4387.0,A,-432.0,-24.0,7.0
-108.0,-380.0,4408.0,A,-445.0,8.0,47.0
-91.0,-328.0,4465.0,A,-384.0,18.0,94.0
-120.0,-332.0,4432.0,A,-294.0,34.0,135.0
-165.0,-410.0,4338.0,A,-239.0,146.0,195.0
-166.0,-442.0,4351.0,A,-273.0,399.0,318.0
-115.0,-388.0,4493.0,A,-451.0,727.0,520.0
-53.0,-360.0,4581.0,A,-759.0,968.0,755.0
-3.0,-414.0,4536.0,A,-1047.0,971.0,955.0
31.0,-418.0,4566.0,A,-1211.0,737.0,1050.0
49.0,-281.0,4838.0,A,-1409.0,488.0,999.0
37.0,-161.0,5169.0,A,-1854.0,473.0,812.0
-3.0,-267.0,5279.0,A,-2344.0,646.0,580.0
-65.0,-507.0,5255.0,A,-2281.0,641.0,427.0
-136.0,-601.0,5458.0,A,-1418.0,227.0,412.0
-218.0,-494.0,5982.0,A,-335.0,-331.0,476.0
-316.0,-427.0,6544.0,A,155.0,-545.0,523.0
-423.0,-506.0,6926.0,A,-5.0,-309.0,524.0
-468.0,-498.0,7267.0,A,-105.0,-31.0,549.0
-376.0,-201.0,7754.0,A,327.0,-60.0,667.0
-182.0,182.0,8313.0,A,886.0,-231.0,878.0
-50.0,299.0,8746.0,A,858.0,-116.0,1112.0
-80.0,133.0,9000.0,A,165.0,387.0,1310.0
-163.0,-24.0,9101.0,A,-591.0,959.0,1465.0
-113.0,-30.0,9009.0,A,-885.0,1252.0,1611.0
76.0,-45.0,8704.0,A,-729.0,1213.0,1765.0
242.0,-209.0,8322.0,A,-403.0,997.0,1911.0
277.0,-413.0,7982.0,A,-23.0,738.0,2009.0
242.0,-497.0,7623.0,A,477.0,497.0,2026.0
210.0,-486.0,7173.0,A,1159.0,281.0,1949.0
154.0,-496.0,6778.0,A,2042.0,34.0,1791.0
42.0,-538.0,6600.0,A,3100.0,-320.0,1584.0
-37.0,-557.0,6517.0,A,4144.0,-721.0,1375.0
28.0,-557.0,6261.0,A,4813.0,-958.0,1202.0
213.0,-581.0,5838.0,A,4924.0,-924.0,1083.0
356.0,-613.0,5504.0,A,4747.0,-799.0,995.0
353.0,-624.0,5341.0,A,4768.0,-873.0,893.0
247.0,-636.0,5133.0,A,5148.0,-1197.0,726.0
143.0,-687.0,4747.0,A,5625.0,-1574.0,484.0
66.0,-757.0,4336.0,A,5914.0,-1843.0,205.0
-36.0,-820.0,4049.0,A,6027.0,-2025.0,-50.0
-182.0,-879.0,3801.0,A,6116.0,-2159.0,-251.0
-290.0,-916.0,3480.0,A,6229.0,-2203.0,-412.0
-287.0,-864.0,3189.0,A,6332.0,-2151.0,-552.0
-228.0,-732.0,3036.0,A,6433.0,-2125.0,-676.0
-245.0,-633.0,2895.0,A,6510.0,-2187.0,-786.0
-355.0,-620.0,2596.0,A,6453.0,-2223.0,-895.0
-419.0,-571.0,2249.0,A,6205.0,-2129.0,-1004.0
-324.0,-381.0,2091.0,A,5930.0,-2043.0,-1092.0
-141.0,-147.0,2110.0,A,5835.0,-2165.0,-1139.0
-19.0,-36.0,2056.0,A,5884.0,-2421.0,-1169.0
0.0,-38.0,1848.0,A,5822.0,-2493.0,-1217.0
-17.0,-12.0,1655.0,A,5499.0,-2211.0,-1296.0
-41.0,64.0,1572.0,A,5008.0,-1738.0,-1385.0
-103.0,87.0,1449.0,A,4520.0,-1334.0,-1470.0
-210.0,36.0,1176.0,A,4094.0,-1086.0,-1548.0
-312.0,30.0,889.0,A,3729.0,-956.0,-1616.0
-381.0,123.0,762.0,A,3441.0,-925.0,-1656.0
-422.0,236.0,732.0,A,3232.0,-975.0,-1662.0
-428.0,301.0,641.0,A,3030.0,-1006.0,-1641.0
-397.0,358.0,491.0,A,2769.0,-924.0,-1608.0
-383.0,434.0,397.0,A,2466.0,-749.0,-1569.0
-430.0,482.0,344.0,A,2180.0,-579.0,-1539.0
-479.0,484.0,228.0,A,1906.0,-451.0,-1523.0
-426.0,522.0,79.0,A,1604.0,-343.0,-1501.0
-285.0,641.0,54.0,A,1276.0,-260.0,-1445.0
-184.0,766.0,158.0,A,979.0,-231.0,-1363.0
-187.0,810.0,197.0,A,729.0,-210.0,-1294.0
-224.0,807.0,61.0,A,471.0,-105.0,-1266.0
-231.0,835.0,-93.0,A,147.0,98.0,-1265.0
-223.0,901.0,-75.0,A,-218.0,279.0,-1280.0
-226.0,953.0,79.0,A,-555.0,323.0,-1309.0
-216.0,977.0,202.0,A,-841.0,252.0,-1343.0
-199.0,979.0,285.0,A,-1122.0,180.0,-1342.0
-229.0,957.0,477.0,A,-1422.0,143.0,-1295.0
-313.0,918.0,822.0,A,-1672.0,59.0,-1251.0
-368.0,911.0,1165.0,A,-1815.0,-127.0,-1269.0
-350.0,956.0,1366.0,A,-1928.0,-308.0,-1337.0
-309.0,1002.0,1462.0,A,-2169.0,-312.0,-1395.0
-287.0,997.0,1555.0,A,-2566.0,-113.0,-1407.0
-217.0,973.0,1629.0,A,-2988.0,127.0,-1401.0
-50.0,993.0,1622.0,A,-3344.0,276.0,-1403.0
131.0,1052.0,1605.0,A,-3712.0,341.0,-1413.0
192.0,1084.0,1768.0,A,-4149.0,334.0,-1431.0
107.0,1059.0,2197.0,A,-4516.0,158.0,-1494.0
-62.0,998.0,2767.0,A,-4622.0,-220.0,-1635.0
-281.0,934.0,3274.0,A,-4536.0,-545.0,-1837.0
-562.0,880.0,3629.0,A,-4561.0,-434.0,-2038.0
-888.0,863.0,3864.0,A,-4890.0,195.0,-2180.0
-1187.0,907.0,4051.0,A,-5396.0,1016.0,-2218.0
-1378.0,1009.0,4262.0,A,-5824.0,1615.0,-2126.0
-1378.0,1122.0,4580.0,A,-6038.0,1787.0,-1912.0
-1164.0,1198.0,5046.0,A,-6039.0,1510.0,-1657.0
-850.0,1204.0,5580.0,A,-5842.0,852.0,-1480.0
-667.0,1149.0,6037.0,A,-5479.0,65.0,-1456.0
-746.0,1069.0,6329.0,A,-5067.0,-426.0,-1565.0
-979.0,988.0,6468.0,A,-4759.0,-338.0,-1737.0
-1155.0,878.0,6479.0,A,-4597.0,173.0,-1900.0
-1204.0,709.0,6405.0,A,-4484.0,651.0,-2004.0
-1206.0,525.0,6401.0,A,-4292.0,743.0,-2006.0
-1224.0,432.0,6702.0,A,-3962.0,406.0,-1901.0
-1228.0,460.0,7341.0,A,-3495.0,-198.0,-1738.0
-1196.0,528.0,7990.0,A,-2939.0,-824.0,-1593.0
-1159.0,542.0,8214.0,A,-2403.0,-1177.0,-1504.0
-1151.0,510.0,7903.0,A,-2040.0,-1060.0,-1467.0
-1166.0,485.0,7325.0,A,-1921.0,-545.0,-1456.0
-1203.0,485.0,6790.0,A,-1949.0,27.0,-1452.0
-1256.0,499.0,6384.0,A,-1922.0,320.0,-1421.0
-1288.0,538.0,6076.0,A,-1730.0,216.0,-1326.0
-1255.0,596.0,5891.0,A,-1434.0,-180.0,-1161.0
-1192.0,615.0,5877.0,A,-1167.0,-659.0,-974.0
-1172.0,545.0,5963.0,A,-977.0,-997.0,-815.0
-1206.0,431.0,6016.0,A,-827.0,-1042.0,-697.0
-1233.0,352.0,5976.0,A,-704.0,-783.0,-595.0
-1216.0,324.0,5889.0,A,-651.0,-356.0,-488.0
-1159.0,296.0,5790.0,A,-661.0,52.0,-364.0
-1052.0,249.0,5669.0,A,-633.0,297.0,-226.0
-880.0,206.0,5516.0,A,-480.0,313.0,-80.0
-699.0,175.0,5347.0,A,-250.0,149.0,45.0
-598.0,130.0,5179.0,A,-63.0,-65.0,128.0
-590.0,78.0,5029.0,A,28.0,-211.0,161.0
-601.0,47.0,4924.0,A,59.0,-259.0,162.0
212.0,-382.0,1698.0,A,7198.0,-1465.0,-258.0
45.0,-411.0,1279.0,A,6798.0,-1146.0,-552.0
-138.0,-393.0,882.0,A,6318.0,-878.0,-835.0
-236.0,-332.0,459.0,A,5755.0,-654.0,-1031.0
-224.0,-261.0,61.0,A,5337.0,-581.0,-1109.0
-165.0,-194.0,-206.0,A,5262.0,-793.0,-1114.0
-124.0,-116.0,-318.0,A,5432.0,-1255.0,-1113.0
-105.0,-32.0,-373.0,A,5564.0,-1748.0,-1148.0
-90.0,27.0,-455.0,A,5446.0,-2025.0,-1214.0
-79.0,62.0,-555.0,A,5027.0,-1972.0,-1291.0
-93.0,95.0,-632.0,A,4350.0,-1637.0,-1362.0
-134.0,140.0,-688.0,A,3554.0,-1203.0,-1415.0
-174.0,187.0,-713.0,A,2845.0,-889.0,-1434.0
-159.0,247.0,-673.0,A,2357.0,-813.0,-1414.0
-71.0,340.0,-578.0,A,2005.0,-909.0,-1362.0
40.0,457.0,-507.0,A,1612.0,-1032.0,-1304.0
102.0,562.0,-473.0,A,1135.0,-1116.0,-1266.0
118.0,655.0,-390.0,A,704.0,-1196.0,-1271.0
149.0,756.0,-214.0,A,401.0,-1282.0,-1317.0
206.0,855.0,-54.0,A,126.0,-1307.0,-1384.0
224.0,907.0,-1.0,A,-276.0,-1205.0,-1453.0
172.0,912.0,18.0,A,-811.0,-996.0,-1527.0
101.0,907.0,134.0,A,-1336.0,-742.0,-1615.0
55.0,904.0,324.0,A,-1759.0,-498.0,-1718.0
-9.0,873.0,485.0,A,-2133.0,-298.0,-1822.0
-134.0,823.0,609.0,A,-2558.0,-161.0,-1924.0
-274.0,795.0,780.0,A,-3049.0,-64.0,-2027.0
-342.0,796.0,1006.0,A,-3550.0,42.0,-2121.0
-320.0,773.0,1223.0,A,-4007.0,146.0,-2173.0
-238.0,709.0,1397.0,A,-4393.0,166.0,-2170.0
-136.0,647.0,1535.0,A,-4685.0,61.0,-2135.0
-70.0,608.0,1620.0,A,-4919.0,-73.0,-2120.0
-121.0,547.0,1661.0,A,-5190.0,-125.0,-2155.0
-312.0,443.0,1747.0,A,-5530.0,-138.0,-2247.0
-575.0,344.0,1936.0,A,-5805.0,-285.0,-2378.0
-840.0,293.0,2146.0,A,-5863.0,-643.0,-2523.0
-1104.0,249.0,2297.0,A,-5765.0,-1064.0,-2640.0
-1345.0,173.0,2462.0,A,-5760.0,-1341.0,-2693.0
-1438.0,97.0,2738.0,A,-5974.0,-1413.0,-2666.0
-1288.0,82.0,3037.0,A,-6291.0,-1369.0,-2582.0
-975.0,121.0,3236.0,A,-6563.0,-1276.0,-2486.0
-700.0,150.0,3422.0,A,-6812.0,-1123.0,-2425.0
-588.0,100.0,3798.0,A,-7095.0,-902.0,-2424.0
-665.0,-63.0,4356.0,A,-7321.0,-683.0,-2502.0
-931.0,-313.0,4900.0,A,-7333.0,-539.0,-2669.0
-1355.0,-531.0,5356.0,A,-7150.0,-482.0,-2907.0
-1796.0,-611.0,5812.0,A,-6949.0,-481.0,-3120.0
-2090.0,-601.0,6290.0,A,-6865.0,-514.0,-3165.0
-2212.0,-662.0,6749.0,A,-6886.0,-553.0,-2956.0
-2272.0,-834.0,7329.0,A,-6955.0,-555.0,-2575.0
-2326.0,-938.0,8219.0,A,-7012.0,-500.0,-2205.0
-2333.0,-824.0,9222.0,A,-6950.0,-434.0,-1967.0
-2268.0,-576.0,9769.0,A,-6633.0,-410.0,-1828.0
-2191.0,-390.0,9578.0,A,-6037.0,-414.0,-1687.0
-2120.0,-294.0,8981.0,A,-5290.0,-381.0,-1493.0
-1993.0,-175.0,8453.0,A,-4563.0,-292.0,-1275.0
-1776.0,-12.0,8055.0,A,-3935.0,-211.0,-1067.0
-1547.0,82.0,7616.0,A,-3380.0,-238.0,-884.0
-1382.0,41.0,7169.0,A,-2809.0,-440.0,-732.0
-1252.0,-56.0,6907.0,A,-2147.0,-815.0,-619.0
-1085.0,-121.0,6833.0,A,-1415.0,-1258.0,-530.0
-892.0,-150.0,6786.0,A,-778.0,-1582.0,-446.0
-741.0,-180.0,6711.0,A,-413.0,-1609.0,-361.0
-671.0,-214.0,6667.0,A,-346.0,-1312.0,-299.0
-665.0,-261.0,6590.0,A,-425.0,-828.0,-276.0
-704.0,-349.0,6339.0,A,-484.0,-353.0,-285.0
-764.0,-476.0,5947.0,A,-453.0,-14.0,-299.0
-800.0,-585.0,5610.0,A,-336.0,153.0,-298.0
-776.0,-637.0,5397.0,A,-139.0,168.0,-265.0
-710.0,-668.0,5195.0,A,98.0,94.0,-209.0
-645.0,-718.0,4932.0,A,286.0,26.0,-150.0
-602.0,-784.0,4693.0,A,323.0,53.0,-107.0
-566.0,-831.0,4553.0,A,192.0,185.0,-69.0
-539.0,-855.0,4474.0,A,-20.0,349.0,-25.0
-533.0,-871.0,4397.0,A,-172.0,447.0,9.0
-557.0,-894.0,4320.0,A,-160.0,439.0,1.0
-595.0,-928.0,4252.0,A,10.0,360.0,-47.0
-624.0,-964.0,4180.0,A,219.0,280.0,-96.0
-621.0,-977.0,4127.0,A,329.0,236.0,-100.0
-588.0,-963.0,4130.0,A,301.0,220.0,-60.0
-550.0,-950.0,4171.0,A,216.0,198.0,-8.0
-536.0,-959.0,4197.0,A,172.0,152.0,26.0
-533.0,-958.0,4210.0,A,205.0,86.0,44.0
-510.0,-914.0,4243.0,A,266.0,27.0,55.0
-468.0,-850.0,4277.0,A,291.0,0.0,70.0
-440.0,-821.0,4266.0,A,253.0,14.0,87.0
-439.0,-816.0,4241.0,A,189.0,42.0,103.0
-436.0,-787.0,4262.0,A,150.0,51.0,113.0
-411.0,-729.0,4312.0,A,143.0,40.0,121.0
-393.0,-697.0,4320.0,A,127.0,34.0,124.0
-401.0,-704.0,4292.0,A,84.0,44.0,123.0
-412.0,-703.0,4302.0,A,42.0,57.0,112.0
-400.0,-667.0,4354.0,A,34.0,61.0,97.0
-387.0,-639.0,4386.0,A,45.0,69.0,81.0
-406.0,-652.0,4379.0,A,53.0,86.0,65.0
-458.0,-684.0,4382.0,A,63.0,100.0,42.0
-510.0,-695.0,4399.0,A,90.0,99.0,15.0
-545.0,-688.0,4385.0,A,113.0,102.0,-5.0
-555.0,-676.0,4345.0,A,107.0,116.0,-10.0
-543.0,-659.0,4345.0,A,88.0,114.0,0.0
-523.0,-642.0,4386.0,A,106.0,66.0,13.0
-528.0,-650.0,4401.0,A,173.0,-5.0,17.0
-556.0,-672.0,4363.0,A,258.0,-54.0,5.0
-563.0,-665.0,4328.0,A,322.0,-67.0,-11.0
-519.0,-614.0,4326.0,A,363.0,-81.0,-23.0
-467.0,-564.0,4331.0,A,413.0,-129.0,-27.0
-457.0,-549.0,4324.0,A,520.0,-211.0,-39.0
-476.0,-552.0,4331.0,A,688.0,-300.0,-72.0
-473.0,-544.0,4343.0,A,856.0,-367.0,-119.0
-453.0,-535.0,4325.0,A,929.0,-384.0,-157.0
-458.0,-537.0,4290.0,A,883.0,-344.0,-173.0
-495.0,-532.0,4295.0,A,785.0,-269.0,-166.0
-513.0,-509.0,4326.0,A,695.0,-201.0,-147.0
-494.0,-496.0,4308.0,A,604.0,-153.0,-117.0
-477.0,-510.0,4233.0,A,477.0,-114.0,-81.0
-497.0,-527.0,4191.0,A,332.0,-71.0,-43.0
-529.0,-523.0,4214.0,A,209.0,-32.0,-10.0
-541.0,-521.0,4232.0,A,116.0,-4.0,16.0
-530.0,-539.0,4195.0,A,33.0,9.0,39.0
-515.0,-549.0,4169.0,A,-36.0,11.0,63.0
-492.0,-520.0,4216.0,A,-82.0,3.0,86.0
-464.0,-489.0,4295.0,A,-106.0,0.0,101.0
-450.0,-499.0,4323.0,A,-116.0,10.0,97.0
-458.0,-533.0,4296.0,A,-99.0,34.0,76.0
-464.0,-538.0,4252.0,A,-46.0,46.0,47.0
-446.0,-519.0,4213.0,A,28.0,29.0,24.0
-429.0,-514.0,4192.0,A,110.0,-22.0,6.0
-436.0,-521.0,4223.0,A,215.0,-108.0,-10.0
-454.0,-505.0,4298.0,A,340.0,-209.0,-30.0
-460.0,-478.0,4349.0,A,439.0,-289.0,-46.0
-463.0,-484.0,4335.0,A,462.0,-310.0,-56.0
-490.0,-522.0,4311.0,A,419.0,-272.0,-57.0
-517.0,-533.0,4332.0,A,346.0,-200.0,-51.0
-505.0,-497.0,4367.0,A,258.0,-123.0,-34.0
-456.0,-460.0,4352.0,A,143.0,-47.0,-6.0
87.0,-604.0,2672.0,A,8925.0,-2001.0,421.0
87.0,-553.0,2126.0,A,8881.0,-2082.0,252.0
10.0,-495.0,1562.0,A,8624.0,-1954.0,84.0
-129.0,-452.0,1103.0,A,8040.0,-1660.0,-75.0
-235.0,-404.0,744.0,A,7214.0,-1351.0,-231.0
-261.0,-324.0,412.0,A,6432.0,-1181.0,-372.0
-259.0,-223.0,125.0,A,5955.0,-1196.0,-485.0
-287.0,-126.0,-32.0,A,5770.0,-1292.0,-570.0
-314.0,-29.0,-108.0,A,5631.0,-1317.0,-639.0
-295.0,66.0,-248.0,A,5318.0,-1200.0,-689.0
-244.0,153.0,-477.0,A,4822.0,-1002.0,-711.0
-192.0,238.0,-647.0,A,4281.0,-844.0,-707.0
-110.0,350.0,-672.0,A,3825.0,-819.0,-695.0
24.0,477.0,-643.0,A,3482.0,-926.0,-686.0
155.0,575.0,-653.0,A,3182.0,-1090.0,-688.0
197.0,624.0,-654.0,A,2812.0,-1208.0,-704.0
161.0,664.0,-602.0,A,2321.0,-1228.0,-746.0
125.0,721.0,-572.0,A,1759.0,-1166.0,-812.0
124.0,778.0,-632.0,A,1217.0,-1075.0,-890.0
120.0,811.0,-685.0,A,734.0,-993.0,-959.0
94.0,833.0,-615.0,A,320.0,-937.0,-1012.0
69.0,864.0,-470.0,A,-10.0,-894.0,-1056.0
37.0,906.0,-388.0,A,-290.0,-822.0,-1111.0
-63.0,942.0,-372.0,A,-640.0,-667.0,-1185.0
-240.0,958.0,-301.0,A,-1156.0,-441.0,-1271.0
-401.0,939.0,-105.0,A,-1755.0,-233.0,-1355.0
-455.0,897.0,167.0,A,-2266.0,-131.0,-1427.0
-427.0,865.0,457.0,A,-2640.0,-118.0,-1476.0
-397.0,864.0,739.0,A,-2986.0,-92.0,-1494.0
-361.0,872.0,993.0,A,-3370.0,28.0,-1487.0
-268.0,874.0,1198.0,A,-3737.0,239.0,-1483.0
-159.0,886.0,1367.0,A,-4049.0,465.0,-1496.0
-181.0,897.0,1512.0,A,-4383.0,630.0,-1508.0
-396.0,822.0,1633.0,A,-4772.0,662.0,-1499.0
-675.0,618.0,1782.0,A,-5084.0,504.0,-1496.0
-857.0,394.0,2076.0,A,-5177.0,154.0,-1533.0
-932.0,310.0,2531.0,A,-5151.0,-264.0,-1588.0
-963.0,371.0,2991.0,A,-5283.0,-531.0,-1580.0
-942.0,452.0,3300.0,A,-5702.0,-486.0,-1478.0
-824.0,498.0,3496.0,A,-6197.0,-196.0,-1343.0
-683.0,584.0,3684.0,A,-6449.0,93.0,-1264.0
-637.0,747.0,3819.0,A,-6393.0,223.0,-1263.0
-645.0,904.0,3772.0,A,-6290.0,273.0,-1313.0
-530.0,970.0,3594.0,A,-6404.0,389.0,-1388.0
-281.0,955.0,3518.0,A,-6703.0,528.0,-1487.0
-126.0,875.0,3708.0,A,-6909.0,488.0,-1609.0
-234.0,713.0,4114.0,A,-6834.0,198.0,-1766.0
-493.0,504.0,4594.0,A,-6557.0,-166.0,-1973.0
-698.0,374.0,5012.0,A,-6304.0,-377.0,-2213.0
-816.0,373.0,5235.0,A,-6224.0,-371.0,-2412.0
-912.0,398.0,5219.0,A,-6305.0,-256.0,-2493.0
-922.0,346.0,5134.0,A,-6404.0,-200.0,-2440.0
-739.0,277.0,5266.0,A,-6325.0,-371.0,-2305.0
-451.0,288.0,5727.0,A,-5955.0,-819.0,-2160.0
-316.0,341.0,6372.0,A,-5424.0,-1336.0,-2092.0
-449.0,312.0,6991.0,A,-5038.0,-1531.0,-2178.0
-740.0,192.0,7462.0,A,-4986.0,-1196.0,-2436.0
-1062.0,59.0,7680.0,A,-5128.0,-526.0,-2769.0
-1407.0,-75.0,7573.0,A,-5181.0,95.0,-3040.0
-1738.0,-279.0,7259.0,A,-5015.0,463.0,-3164.0
-1913.0,-531.0,7048.0,A,-4681.0,569.0,-3136.0
-1846.0,-704.0,7137.0,A,-4211.0,396.0,-2968.0
-1666.0,-739.0,7416.0,A,-3595.0,-75.0,-2687.0
-1566.0,-723.0,7638.0,A,-2919.0,-675.0,-2364.0
-1602.0,-762.0,7714.0,A,-2386.0,-1065.0,-2106.0
-1682.0,-837.0,7694.0,A,-2088.0,-1045.0,-1958.0
-1735.0,-874.0,7594.0,A,-1914.0,-722.0,-1873.0
-1750.0,-861.0,7356.0,A,-1714.0,-310.0,-1776.0
-1726.0,-848.0,6980.0,A,-1485.0,86.0,-1639.0
-1639.0,-856.0,6554.0,A,-1289.0,435.0,-1462.0
-1498.0,-868.0,6180.0,A,-1107.0,643.0,-1250.0
-1342.0,-873.0,5898.0,A,-845.0,607.0,-1018.0
-1212.0,-886.0,5698.0,A,-484.0,375.0,-813.0
-1137.0,-912.0,5532.0,A,-98.0,115.0,-682.0
-1146.0,-947.0,5367.0,A,239.0,-42.0,-636.0
-1236.0,-981.0,5220.0,A,538.0,-108.0,-642.0
-1349.0,-1010.0,5130.0,A,836.0,-152.0,-658.0
-1402.0,-1016.0,5078.0,A,1113.0,-207.0,-632.0
-1353.0,-988.0,4986.0,A,1282.0,-249.0,-530.0
-1219.0,-933.0,4842.0,A,1263.0,-237.0,-354.0
-1055.0,-879.0,4712.0,A,1088.0,-169.0,-153.0
-905.0,-835.0,4633.0,A,896.0,-88.0,20.0
-784.0,-799.0,4545.0,A,807.0,-41.0,142.0
-681.0,-767.0,4401.0,A,801.0,-21.0,217.0
-596.0,-750.0,4244.0,A,779.0,10.0,249.0
-555.0,-755.0,4138.0,A,717.0,57.0,247.0
-575.0,-776.0,4072.0,A,684.0,70.0,225.0
-628.0,-791.0,4024.0,A,732.0,19.0,200.0
-657.0,-791.0,4015.0,A,810.0,-61.0,180.0
-640.0,-774.0,4063.0,A,845.0,-121.0,175.0
-603.0,-743.0,4115.0,A,820.0,-143.0,193.0
-563.0,-698.0,4122.0,A,768.0,-131.0,233.0
-512.0,-650.0,4097.0,A,699.0,-85.0,273.0
-448.0,-612.0,4079.0,A,611.0,-10.0,299.0
-389.0,-592.0,4062.0,A,519.0,58.0,313.0
-354.0,-576.0,4048.0,A,444.0,84.0,321.0
-341.0,-560.0,4075.0,A,381.0,68.0,315.0
-356.0,-554.0,4149.0,A,316.0,36.0,292.0
-412.0,-568.0,4201.0,A,249.0,17.0,258.0
-491.0,-583.0,4186.0,A,188.0,26.0,232.0
-547.0,-578.0,4167.0,A,127.0,71.0,218.0
-549.0,-555.0,4209.0,A,61.0,130.0,217.0
-517.0,-537.0,4284.0,A,4.0,162.0,228.0
-484.0,-524.0,4325.0,A,-27.0,136.0,249.0
-468.0,-504.0,4344.0,A,-43.0,79.0,271.0
-457.0,-472.0,4375.0,A,-63.0,40.0,289.0
-441.0,-447.0,4392.0,A,-89.0,46.0,298.0
-419.0,-439.0,4355.0,A,-101.0,73.0,298.0
-406.0,-446.0,4316.0,A,-88.0,90.0,284.0
-416.0,-453.0,4345.0,A,-55.0,81.0,259.0
-439.0,-455.0,4414.0,A,-21.0,59.0,231.0
-447.0,-445.0,4436.0,A,0.0,43.0,207.0
-436.0,-431.0,4403.0,A,10.0,40.0,182.0
-433.0,-426.0,4380.0,A,34.0,28.0,156.0
-456.0,-440.0,4389.0,A,88.0,-12.0,134.0
-479.0,-452.0,4391.0,A,159.0,-72.0,123.0
-489.0,-449.0,4378.0,A,204.0,-111.0,116.0
-503.0,-442.0,4372.0,A,202.0,-106.0,110.0
-533.0,-452.0,4366.0,A,168.0,-66.0,106.0
-538.0,-467.0,4326.0,A,131.0,-23.0,109.0
-490.0,-464.0,4278.0,A,99.0,8.0,115.0
-429.0,-443.0,4275.0,A,70.0,25.0,119.0
-414.0,-429.0,4313.0,A,50.0,29.0,118.0
-431.0,-425.0,4326.0,A,44.0,22.0,109.0
-427.0,-422.0,4299.0,A,49.0,20.0,90.0
-411.0,-420.0,4275.0,A,52.0,27.0,63.0
-435.0,-441.0,4279.0,A,57.0,33.0,38.0
-499.0,-476.0,4279.0,A,71.0,15.0,20.0
-547.0,-498.0,4265.0,A,91.0,-21.0,7.0
-552.0,-495.0,4258.0,A,91.0,-52.0,-3.0
-551.0,-492.0,4261.0,A,58.0,-56.0,-4.0
-565.0,-499.0,4250.0,A,5.0,-35.0,2.0
-572.0,-502.0,4233.0,A,-33.0,-10.0,9.0
-280.0,-958.0,1761.0,A,8921.0,-1239.0,845.0
-324.0,-885.0,1457.0,A,8653.0,-1282.0,667.0
-425.0,-799.0,1210.0,A,8329.0,-1385.0,496.0
-482.0,-669.0,945.0,A,7983.0,-1502.0,335.0
-398.0,-466.0,660.0,A,7601.0,-1560.0,188.0
-231.0,-240.0,377.0,A,7190.0,-1546.0,81.0
-148.0,-73.0,103.0,A,6777.0,-1488.0,13.0
-187.0,25.0,-156.0,A,6367.0,-1407.0,-56.0
-224.0,122.0,-371.0,A,5941.0,-1317.0,-169.0
-173.0,256.0,-524.0,A,5500.0,-1258.0,-305.0
-94.0,386.0,-623.0,A,5063.0,-1277.0,-397.0
-35.0,487.0,-675.0,A,4640.0,-1389.0,-416.0
64.0,600.0,-654.0,A,4223.0,-1559.0,-404.0
230.0,752.0,-575.0,A,3813.0,-1720.0,-430.0
331.0,876.0,-524.0,A,3397.0,-1781.0,-522.0
250.0,895.0,-581.0,A,2932.0,-1666.0,-668.0
66.0,839.0,-706.0,A,2358.0,-1363.0,-839.0
-40.0,823.0,-783.0,A,1666.0,-958.0,-1001.0
-25.0,898.0,-763.0,A,920.0,-593.0,-1111.0
34.0,1013.0,-706.0,A,238.0,-393.0,-1142.0
102.0,1105.0,-650.0,A,-283.0,-401.0,-1107.0
205.0,1182.0,-551.0,A,-622.0,-562.0,-1066.0
305.0,1261.0,-369.0,A,-829.0,-749.0,-1076.0
304.0,1312.0,-182.0,A,-981.0,-850.0,-1165.0
175.0,1287.0,-89.0,A,-1119.0,-826.0,-1320.0
1.0,1204.0,-68.0,A,-1271.0,-723.0,-1510.0
-136.0,1122.0,14.0,A,-1481.0,-600.0,-1686.0
-218.0,1062.0,223.0,A,-1810.0,-493.0,-1811.0
-244.0,986.0,501.0,A,-2263.0,-401.0,-1867.0
-215.0,900.0,788.0,A,-2766.0,-305.0,-1869.0
-192.0,877.0,1116.0,A,-3220.0,-170.0,-1842.0
-255.0,951.0,1497.0,A,-3598.0,37.0,-1814.0
-420.0,1022.0,1825.0,A,-3944.0,326.0,-1805.0
-615.0,973.0,1968.0,A,-4302.0,650.0,-1824.0
-773.0,825.0,1956.0,A,-4648.0,905.0,-1851.0
-872.0,708.0,1955.0,A,-4920.0,973.0,-1856.0
-912.0,660.0,2083.0,A,-5085.0,784.0,-1830.0
-945.0,595.0,2296.0,A,-5179.0,409.0,-1816.0
-1089.0,460.0,2494.0,A,-5265.0,39.0,-1862.0
-1420.0,332.0,2661.0,A,-5411.0,-121.0,-1968.0
-1828.0,282.0,2878.0,A,-5656.0,-13.0,-2062.0
-2107.0,272.0,3195.0,A,-5968.0,241.0,-2067.0
-2167.0,258.0,3536.0,A,-6216.0,441.0,-1948.0
-2071.0,316.0,3720.0,A,-6308.0,459.0,-1719.0
-1839.0,509.0,3654.0,A,-6346.0,325.0,-1408.0
-1392.0,747.0,3499.0,A,-6551.0,142.0,-1060.0
-723.0,891.0,3569.0,A,-6907.0,-99.0,-743.0
-30.0,971.0,3976.0,A,-7058.0,-524.0,-554.0
444.0,1089.0,4486.0,A,-6711.0,-1133.0,-572.0
592.0,1169.0,4815.0,A,-6093.0,-1628.0,-833.0
413.0,991.0,5016.0,A,-5726.0,-1630.0,-1314.0
-59.0,540.0,5374.0,A,-5792.0,-1120.0,-1948.0
-722.0,109.0,5959.0,A,-5942.0,-504.0,-2627.0
-1341.0,-42.0,6510.0,A,-5834.0,-208.0,-3221.0
-1697.0,8.0,6810.0,A,-5531.0,-322.0,-3588.0
-1773.0,41.0,6984.0,A,-5248.0,-712.0,-3638.0
-1693.0,18.0,7256.0,A,-4940.0,-1261.0,-3386.0
-1553.0,73.0,7599.0,A,-4467.0,-1837.0,-2986.0
-1378.0,219.0,7786.0,A,-3969.0,-2138.0,-2646.0
-1236.0,300.0,7734.0,A,-3757.0,-1889.0,-2504.0
-1231.0,207.0,7566.0,A,-3830.0,-1180.0,-2552.0
-1392.0,18.0,7400.0,A,-3819.0,-442.0,-2696.0
-1629.0,-143.0,7239.0,A,-3446.0,-23.0,-2844.0
-1840.0,-245.0,7089.0,A,-2825.0,55.0,-2946.0
-1975.0,-324.0,6999.0,A,-2213.0,-51.0,-2962.0
-2024.0,-387.0,6957.0,A,-1702.0,-238.0,-2864.0
-2001.0,-435.0,6861.0,A,-1267.0,-406.0,-2660.0
-1968.0,-488.0,6665.0,A,-949.0,-414.0,-2407.0
-1982.0,-560.0,6436.0,A,-806.0,-194.0,-2154.0
-2021.0,-622.0,6241.0,A,-770.0,128.0,-1919.0
-1999.0,-644.0,6037.0,A,-690.0,364.0,-1694.0
-1896.0,-649.0,5774.0,A,-512.0,443.0,-1478.0
-1773.0,-674.0,5504.0,A,-296.0,409.0,-1267.0
-1676.0,-713.0,5335.0,A,-105.0,291.0,-1051.0
-1569.0,-721.0,5299.0,A,67.0,81.0,-830.0
-1425.0,-683.0,5322.0,A,243.0,-186.0,-631.0
-1288.0,-627.0,5323.0,A,412.0,-412.0,-481.0
-1223.0,-594.0,5273.0,A,539.0,-519.0,-381.0
-1214.0,-595.0,5191.0,A,618.0,-500.0,-310.0
-1203.0,-611.0,5081.0,A,675.0,-401.0,-253.0
-1156.0,-609.0,4929.0,A,733.0,-267.0,-199.0
-1084.0,-579.0,4733.0,A,761.0,-130.0,-136.0
-988.0,-534.0,4542.0,A,716.0,-15.0,-50.0
-872.0,-498.0,4415.0,A,626.0,55.0,43.0
-766.0,-481.0,4363.0,A,601.0,53.0,115.0
-715.0,-474.0,4329.0,A,691.0,-23.0,139.0
-709.0,-465.0,4285.0,A,805.0,-127.0,124.0
-694.0,-439.0,4262.0,A,824.0,-202.0,99.0
-642.0,-400.0,4288.0,A,772.0,-244.0,89.0
-594.0,-371.0,4308.0,A,759.0,-291.0,96.0
-595.0,-380.0,4266.0,A,811.0,-339.0,105.0
-632.0,-416.0,4192.0,A,837.0,-337.0,97.0
-645.0,-437.0,4164.0,A,781.0,-263.0,75.0
-615.0,-420.0,4186.0,A,682.0,-163.0,53.0
-578.0,-400.0,4194.0,A,585.0,-85.0,46.0
-580.0,-412.0,4173.0,A,478.0,-28.0,50.0
-606.0,-439.0,4173.0,A,368.0,17.0,56.0
-611.0,-434.0,4213.0,A,295.0,40.0,62.0
-574.0,-397.0,4243.0,A,269.0,37.0,73.0
-531.0,-368.0,4235.0,A,240.0,37.0,83.0
-521.0,-367.0,4223.0,A,189.0,53.0,86.0
-547.0,-373.0,4239.0,A,157.0,61.0,76.0
-581.0,-363.0,4260.0,A,170.0,38.0,63.0
-603.0,-350.0,4258.0,A,187.0,6.0,54.0
-604.0,-340.0,4243.0,A,170.0,-6.0,54.0
-579.0,-323.0,4242.0,A,136.0,2.0,59.0
-529.0,-286.0,4251.0,A,114.0,19.0,68.0
-477.0,-250.0,4260.0,A,92.0,44.0,74.0
-454.0,-236.0,4264.0,A,65.0,74.0,73.0
-477.0,-244.0,4261.0,A,51.0,92.0,59.0
-521.0,-252.0,4247.0,A,58.0,87.0,38.0
-553.0,-248.0,4247.0,A,61.0,70.0,19.0
-555.0,-236.0,4284.0,A,54.0,45.0,11.0
-553.0,-232.0,4336.0,A,57.0,11.0,12.0
-574.0,-240.0,4351.0,A,70.0,-16.0,13.0
-611.0,-253.0,4330.0,A,58.0,-9.0,5.0
-621.0,-251.0,4316.0,A,21.0,19.0,-4.0
-591.0,-235.0,4328.0,A,-2.0,31.0,-7.0
-559.0,-227.0,4332.0,A,-5.0,11.0,-5.0
-572.0,-244.0,4314.0,A,-13.0,-8.0,-8.0
-616.0,-264.0,4300.0,A,-31.0,-8.0,-22.0
-644.0,-265.0,4301.0,A,-24.0,-6.0,-37.0
-640.0,-254.0,4290.0,A,7.0,-21.0,-46.0
-640.0,-260.0,4266.0,A,22.0,-33.0,-48.0
-212.0,-669.0,390.0,A,6385.0,-1316.0,4.0
-2.0,-518.0,300.0,A,6326.0,-1579.0,-64.0
164.0,-357.0,229.0,A,6127.0,-1817.0,-137.0
195.0,-281.0,119.0,A,5805.0,-1880.0,-264.0
91.0,-313.0,-41.0,A,5403.0,-1705.0,-463.0
-43.0,-340.0,-221.0,A,4962.0,-1357.0,-694.0
-122.0,-270.0,-380.0,A,4510.0,-973.0,-877.0
-131.0,-145.0,-508.0,A,4093.0,-684.0,-961.0
-108.0,-47.0,-603.0,A,3773.0,-560.0,-956.0
-76.0,31.0,-662.0,A,3602.0,-611.0,-922.0
-38.0,126.0,-680.0,A,3525.0,-774.0,-908.0
12.0,218.0,-667.0,A,3380.0,-938.0,-920.0
76.0,276.0,-631.0,A,3041.0,-1010.0,-932.0
144.0,341.0,-597.0,A,2544.0,-992.0,-930.0
200.0,457.0,-601.0,A,1999.0,-947.0,-916.0
250.0,588.0,-649.0,A,1442.0,-919.0,-907.0
301.0,667.0,-674.0,A,850.0,-898.0,-913.0
333.0,706.0,-618.0,A,279.0,-886.0,-949.0
298.0,751.0,-526.0,A,-185.0,-890.0,-1019.0
202.0,802.0,-489.0,A,-604.0,-879.0,-1113.0
110.0,818.0,-471.0,A,-1128.0,-802.0,-1206.0
65.0,806.0,-310.0,A,-1743.0,-711.0,-1290.0
31.0,807.0,72.0,A,-2212.0,-736.0,-1374.0
-21.0,831.0,527.0,A,-2416.0,-883.0,-1467.0
-57.0,850.0,853.0,A,-2581.0,-918.0,-1542.0
-40.0,858.0,1036.0,A,-3045.0,-591.0,-1571.0
-46.0,871.0,1212.0,A,-3837.0,69.0,-1568.0
-183.0,884.0,1415.0,A,-4649.0,758.0,-1597.0
-438.0,867.0,1536.0,A,-5166.0,1193.0,-1705.0
-671.0,816.0,1545.0,A,-5342.0,1310.0,-1870.0
-802.0,746.0,1616.0,A,-5359.0,1178.0,-2016.0
-891.0,677.0,1906.0,A,-5432.0,881.0,-2089.0
-998.0,641.0,2354.0,A,-5652.0,515.0,-2075.0
-1050.0,694.0,2793.0,A,-5958.0,226.0,-1984.0
-922.0,855.0,3206.0,A,-6220.0,111.0,-1831.0
-650.0,1056.0,3680.0,A,-6364.0,141.0,-1677.0
-452.0,1188.0,4184.0,A,-6408.0,216.0,-1630.0
-507.0,1215.0,4545.0,A,-6409.0,300.0,-1786.0
-738.0,1189.0,4695.0,A,-6391.0,401.0,-2122.0
-872.0,1175.0,4752.0,A,-6343.0,454.0,-2505.0
-735.0,1178.0,4827.0,A,-6202.0,295.0,-2785.0
-449.0,1160.0,4915.0,A,-5887.0,-154.0,-2922.0
-269.0,1092.0,5032.0,A,-5432.0,-725.0,-2990.0
-298.0,991.0,5310.0,A,-5092.0,-1067.0,-3104.0
-452.0,892.0,5787.0,A,-5140.0,-930.0,-3324.0
-651.0,810.0,6270.0,A,-5523.0,-402.0,-3629.0
-933.0,710.0,6531.0,A,-5834.0,153.0,-3947.0
-1307.0,555.0,6600.0,A,-5719.0,367.0,-4214.0
-1653.0,349.0,6670.0,A,-5177.0,88.0,-4387.0
-1868.0,151.0,6820.0,A,-4429.0,-583.0,-4447.0
-2002.0,16.0,6982.0,A,-3639.0,-1398.0,-4389.0
-2159.0,-33.0,7147.0,A,-2917.0,-2055.0,-4245.0
-2319.0,-11.0,7370.0,A,-2410.0,-2315.0,-4067.0
-2384.0,47.0,7579.0,A,-2211.0,-2115.0,-3897.0
-2345.0,91.0,7572.0,A,-2218.0,-1581.0,-3727.0
-2286.0,82.0,7294.0,A,-2278.0,-916.0,-3536.0
-2244.0,24.0,6933.0,A,-2362.0,-272.0,-3325.0
-2194.0,-52.0,6678.0,A,-2479.0,241.0,-3128.0
-2145.0,-147.0,6516.0,A,-2482.0,515.0,-2961.0
-2150.0,-272.0,6378.0,A,-2197.0,490.0,-2805.0
-2187.0,-410.0,6305.0,A,-1673.0,231.0,-2627.0
-2181.0,-509.0,6364.0,A,-1131.0,-102.0,-2421.0
-2121.0,-547.0,6472.0,A,-670.0,-391.0,-2204.0
-2078.0,-548.0,6488.0,A,-237.0,-582.0,-1994.0
-2069.0,-527.0,6387.0,A,148.0,-622.0,-1786.0
-2027.0,-488.0,6235.0,A,350.0,-469.0,-1570.0
-1906.0,-452.0,6016.0,A,346.0,-165.0,-1335.0
-1754.0,-463.0,5654.0,A,304.0,154.0,-1096.0
-1614.0,-520.0,5188.0,A,344.0,376.0,-878.0
-1483.0,-568.0,4807.0,A,417.0,460.0,-703.0
-1365.0,-563.0,4654.0,A,462.0,395.0,-562.0
-1299.0,-524.0,4681.0,A,531.0,189.0,-438.0
-1280.0,-481.0,4739.0,A,644.0,-74.0,-323.0
-1247.0,-440.0,4725.0,A,699.0,-242.0,-236.0
-1178.0,-410.0,4639.0,A,631.0,-222.0,-185.0
-1131.0,-410.0,4522.0,A,547.0,-82.0,-154.0
-1126.0,-434.0,4417.0,A,573.0,49.0,-114.0
-1097.0,-438.0,4333.0,A,656.0,117.0,-54.0
-986.0,-399.0,4258.0,A,666.0,134.0,23.0
-841.0,-350.0,4183.0,A,598.0,111.0,102.0
-735.0,-318.0,4142.0,A,562.0,39.0,168.0
-678.0,-286.0,4165.0,A,604.0,-58.0,200.0
-643.0,-246.0,4233.0,A,673.0,-144.0,192.0
-647.0,-228.0,4280.0,A,710.0,-195.0,153.0
-703.0,-257.0,4278.0,A,704.0,-210.0,104.0
-775.0,-296.0,4257.0,A,648.0,-181.0,60.0
-806.0,-299.0,4260.0,A,549.0,-114.0,37.0
-794.0,-269.0,4276.0,A,445.0,-44.0,44.0
-758.0,-241.0,4270.0,A,377.0,-6.0,82.0
-698.0,-217.0,4230.0,A,322.0,13.0,131.0
-616.0,-185.0,4186.0,A,245.0,49.0,171.0
-553.0,-149.0,4179.0,A,156.0,99.0,187.0
-539.0,-129.0,4211.0,A,100.0,124.0,178.0
-554.0,-120.0,4249.0,A,86.0,102.0,146.0
-569.0,-116.0,4254.0,A,96.0,49.0,103.0
-593.0,-119.0,4235.0,A,114.0,-3.0,58.0
-635.0,-135.0,4229.0,A,134.0,-39.0,24.0
-670.0,-141.0,4264.0,A,129.0,-49.0,0.0
-674.0,-130.0,4319.0,A,89.0,-43.0,-10.0
-675.0,-120.0,4355.0,A,39.0,-32.0,-10.0
-693.0,-131.0,4349.0,A,8.0,-25.0,-3.0
-707.0,-141.0,4318.0,A,-12.0,-10.0,4.0
-689.0,-128.0,4294.0,A,-32.0,9.0,9.0
-671.0,-103.0,4306.0,A,-32.0,14.0,17.0
-684.0,-91.0,4348.0,A,3.0,-10.0,27.0
-712.0,-83.0,4386.0,A,38.0,-41.0,33.0
-722.0,-72.0,4387.0,A,39.0,-53.0,31.0
-730.0,-76.0,4357.0,A,20.0,-47.0,28.0
-759.0,-106.0,4324.0,A,20.0,-45.0,32.0
-778.0,-132.0,4307.0,A,31.0,-46.0,45.0
-744.0,-116.0,4295.0,A,24.0,-41.0,62.0
-689.0,-77.0,4287.0,A,-5.0,-25.0,82.0
-679.0,-61.0,4290.0,A,-34.0,-8.0,93.0
-723.0,-81.0,4307.0,A,-55.0,5.0,87.0
-762.0,-102.0,4321.0,A,-67.0,7.0,64.0
-767.0,-107.0,4323.0,A,-62.0,-7.0,41.0
-761.0,-106.0,4314.0,A,-46.0,-36.0,28.0
-778.0,-119.0,4296.0,A,-46.0,-52.0,25.0
-819.0,-146.0,4268.0,A,-78.0,-43.0,20.0
-882.0,-182.0,4255.0,A,-110.0,-25.0,17.0
-947.0,-209.0,4281.0,A,-117.0,-23.0,21.0
-974.0,-209.0,4334.0,A,-117.0,-34.0,38.0
-942.0,-184.0,4363.0,A,-139.0,-44.0,60.0
-897.0,-166.0,4350.0,A,-166.0,-47.0,83.0
-117.0,-947.0,1068.0,A,7806.0,-1601.0,259.0
93.0,-740.0,860.0,A,7670.0,-1786.0,233.0
162.0,-576.0,652.0,A,7459.0,-1713.0,96.0
167.0,-446.0,451.0,A,7014.0,-1338.0,-118.0
120.0,-391.0,194.0,A,6350.0,-816.0,-345.0
26.0,-392.0,-105.0,A,5700.0,-410.0,-525.0
-28.0,-325.0,-315.0,A,5282.0,-272.0,-630.0
48.0,-118.0,-365.0,A,5107.0,-372.0,-670.0
190.0,121.0,-362.0,A,5009.0,-563.0,-677.0
233.0,245.0,-470.0,A,4812.0,-697.0,-696.0
129.0,259.0,-685.0,A,4425.0,-670.0,-759.0
7.0,300.0,-862.0,A,3870.0,-491.0,-867.0
-17.0,432.0,-908.0,A,3260.0,-295.0,-982.0
16.0,604.0,-883.0,A,2732.0,-246.0,-1056.0
7.0,755.0,-876.0,A,2324.0,-375.0,-1072.0
-42.0,880.0,-898.0,A,1957.0,-564.0,-1060.0
-50.0,979.0,-906.0,A,1535.0,-696.0,-1060.0
23.0,1066.0,-889.0,A,1059.0,-783.0,-1086.0
115.0,1177.0,-849.0,A,601.0,-899.0,-1124.0
142.0,1310.0,-784.0,A,211.0,-1058.0,-1179.0
74.0,1368.0,-683.0,A,-129.0,-1196.0,-1270.0
-40.0,1304.0,-525.0,A,-445.0,-1283.0,-1400.0
-121.0,1228.0,-257.0,A,-723.0,-1362.0,-1531.0
-96.0,1267.0,135.0,A,-954.0,-1471.0,-1627.0
22.0,1346.0,539.0,A,-1224.0,-1522.0,-1686.0
127.0,1309.0,793.0,A,-1708.0,-1335.0,-1739.0
85.0,1191.0,895.0,A,-2491.0,-808.0,-1812.0
-133.0,1168.0,993.0,A,-3421.0,-69.0,-1920.0
-423.0,1233.0,1127.0,A,-4179.0,600.0,-2069.0
-649.0,1187.0,1147.0,A,-4572.0,982.0,-2255.0
-779.0,983.0,1033.0,A,-4695.0,1045.0,-2447.0
-870.0,841.0,1086.0,A,-4791.0,871.0,-2603.0
-939.0,893.0,1592.0,A,-4974.0,524.0,-2689.0
-941.0,980.0,2373.0,A,-5192.0,86.0,-2713.0
-881.0,924.0,2959.0,A,-5380.0,-274.0,-2710.0
-889.0,806.0,3163.0,A,-5560.0,-383.0,-2732.0
-1095.0,771.0,3219.0,A,-5754.0,-229.0,-2817.0
-1476.0,760.0,3338.0,A,-5927.0,2.0,-2975.0
-1886.0,644.0,3460.0,A,-6042.0,110.0,-3166.0
-2208.0,503.0,3547.0,A,-6114.0,3.0,-3318.0
-2373.0,517.0,3804.0,A,-6138.0,-336.0,-3338.0
-2289.0,699.0,4351.0,A,-6065.0,-877.0,-3154.0
-1879.0,935.0,4906.0,A,-5908.0,-1452.0,-2770.0
-1242.0,1205.0,5077.0,A,-5832.0,-1760.0,-2313.0
-642.0,1512.0,4873.0,A,-6009.0,-1583.0,-1984.0
-296.0,1680.0,4670.0,A,-6377.0,-1032.0,-1948.0
-232.0,1496.0,4716.0,A,-6633.0,-476.0,-2225.0
-390.0,1057.0,4967.0,A,-6531.0,-240.0,-2707.0
-724.0,700.0,5364.0,A,-6121.0,-412.0,-3223.0
-1150.0,572.0,5989.0,A,-5643.0,-922.0,-3625.0
-1512.0,498.0,6825.0,A,-5215.0,-1639.0,-3825.0
-1733.0,324.0,7613.0,A,-4768.0,-2346.0,-3833.0
-1918.0,127.0,8070.0,A,-4289.0,-2703.0,-3744.0
-2209.0,10.0,8162.0,A,-3997.0,-2411.0,-3668.0
-2574.0,-90.0,8029.0,A,-4110.0,-1476.0,-3631.0
-2844.0,-240.0,7783.0,A,-4505.0,-292.0,-3572.0
-2900.0,-347.0,7476.0,A,-4744.0,591.0,-3401.0
-2740.0,-320.0,7194.0,A,-4501.0,815.0,-3080.0
-2419.0,-254.0,7027.0,A,-3840.0,400.0,-2641.0
-2056.0,-288.0,6984.0,A,-3055.0,-323.0,-2185.0
-1836.0,-409.0,6990.0,A,-2342.0,-953.0,-1837.0
-1877.0,-514.0,6976.0,A,-1758.0,-1215.0,-1683.0
-2076.0,-603.0,6890.0,A,-1344.0,-1057.0,-1696.0
-2220.0,-734.0,6698.0,A,-1132.0,-629.0,-1756.0
-2220.0,-864.0,6417.0,A,-1023.0,-173.0,-1737.0
-2147.0,-891.0,6141.0,A,-838.0,108.0,-1591.0
-2031.0,-811.0,5948.0,A,-507.0,154.0,-1337.0
-1809.0,-717.0,5818.0,A,-126.0,35.0,-1023.0
-1488.0,-654.0,5677.0,A,200.0,-123.0,-711.0
-1227.0,-608.0,5513.0,A,482.0,-225.0,-482.0
-1160.0,-589.0,5360.0,A,741.0,-225.0,-390.0
-1250.0,-640.0,5219.0,A,933.0,-131.0,-420.0
-1359.0,-732.0,5052.0,A,1012.0,6.0,-487.0
-1416.0,-783.0,4863.0,A,1035.0,109.0,-512.0
-1420.0,-760.0,4713.0,A,1093.0,119.0,-464.0
-1372.0,-715.0,4632.0,A,1199.0,43.0,-356.0
-1266.0,-678.0,4582.0,A,1277.0,-64.0,-212.0
-1136.0,-627.0,4512.0,A,1268.0,-140.0,-60.0
-1026.0,-552.0,4423.0,A,1171.0,-153.0,68.0
-946.0,-488.0,4343.0,A,1024.0,-106.0,149.0
-875.0,-450.0,4286.0,A,871.0,-39.0,185.0
-813.0,-417.0,4238.0,A,758.0,0.0,193.0
-772.0,-377.0,4187.0,A,718.0,-12.0,192.0
-752.0,-357.0,4130.0,A,732.0,-64.0,188.0
-739.0,-365.0,4090.0,A,758.0,-127.0,182.0
-726.0,-365.0,4090.0,A,766.0,-182.0,176.0
-703.0,-333.0,4132.0,A,747.0,-221.0,175.0
-670.0,-293.0,4170.0,A,694.0,-231.0,177.0
-644.0,-281.0,4163.0,A,609.0,-207.0,178.0
-648.0,-288.0,4125.0,A,510.0,-157.0,170.0
-681.0,-291.0,4116.0,A,433.0,-109.0,148.0
-708.0,-282.0,4159.0,A,402.0,-74.0,116.0
-714.0,-271.0,4212.0,A,413.0,-48.0,79.0
-713.0,-261.0,4225.0,A,424.0,-17.0,50.0
-723.0,-257.0,4200.0,A,391.0,17.0,31.0
-742.0,-262.0,4182.0,A,312.0,40.0,23.0
-765.0,-272.0,4194.0,A,246.0,27.0,22.0
-782.0,-260.0,4230.0,A,243.0,-21.0,26.0
-777.0,-217.0,4266.0,A,280.0,-77.0,37.0
-747.0,-166.0,4291.0,A,278.0,-97.0,49.0
-716.0,-140.0,4296.0,A,213.0,-76.0,54.0
-710.0,-136.0,4282.0,A,138.0,-45.0,49.0
-708.0,-130.0,4262.0,A,115.0,-44.0,41.0
-693.0,-108.0,4262.0,A,133.0,-72.0,33.0
-688.0,-92.0,4284.0,A,148.0,-104.0,22.0
-731.0,-95.0,4310.0,A,139.0,-119.0,4.0
-792.0,-108.0,4316.0,A,117.0,-110.0,-21.0
-812.0,-110.0,4310.0,A,89.0,-82.0,-44.0
-794.0,-101.0,4313.0,A,63.0,-48.0,-59.0
-798.0,-97.0,4335.0,A,48.0,-19.0,-67.0
-834.0,-106.0,4357.0,A,49.0,-3.0,-66.0
-850.0,-120.0,4362.0,A,50.0,2.0,-55.0
-826.0,-123.0,4351.0,A,48.0,-2.0,-35.0
-808.0,-118.0,4347.0,A,56.0,-15.0,-15.0
-822.0,-111.0,4355.0,A,80.0,-32.0,0.0
-837.0,-111.0,4363.0,A,92.0,-37.0,12.0
-829.0,-119.0,4355.0,A,77.0,-24.0,16.0
-829.0,-133.0,4340.0,A,50.0,-4.0,12.0
-853.0,-143.0,4328.0,A,37.0,4.0,5.0
-873.0,-142.0,4323.0,A,33.0,6.0,5.0
-867.0,-134.0,4312.0,A,18.0,12.0,12.0
-859.0,-137.0,4291.0,A,2.0,26.0,21.0
-854.0,-148.0,4267.0,A,4.0,37.0,25.0
-817.0,-146.0,4255.0,A,25.0,36.0,31.0
-365.0,108.0,3916.0,A,-10.0,56.0,25.0
-370.0,137.0,3922.0,A,-1.0,57.0,10.0
-374.0,136.0,3926.0,A,15.0,49.0,-5.0
-361.0,106.0,3918.0,A,35.0,37.0,-15.0
-332.0,80.0,3908.0,A,49.0,27.0,-19.0
-316.0,83.0,3908.0,A,57.0,19.0,-13.0
-338.0,96.0,3921.0,A,58.0,15.0,1.0
-366.0,97.0,3935.0,A,54.0,13.0,21.0
-363.0,92.0,3942.0,A,45.0,12.0,33.0
-338.0,107.0,3940.0,A,36.0,11.0,39.0
-336.0,129.0,3940.0,A,26.0,16.0,43.0
-356.0,123.0,3944.0,A,19.0,24.0,52.0
-362.0,87.0,3946.0,A,14.0,34.0,60.0
-341.0,65.0,3936.0,A,16.0,41.0,64.0
-329.0,76.0,3919.0,A,21.0,50.0,63.0
-338.0,90.0,3909.0,A,22.0,59.0,62.0
-344.0,79.0,3913.0,A,14.0,66.0,58.0
-334.0,67.0,3919.0,A,3.0,65.0,52.0
-334.0,85.0,3917.0,A,-6.0,59.0,47.0
-356.0,116.0,3907.0,A,-17.0,53.0,49.0
-370.0,117.0,3899.0,A,-28.0,51.0,55.0
-350.0,92.0,3895.0,A,-35.0,53.0,62.0
-320.0,76.0,3900.0,A,-29.0,59.0,66.0
-315.0,84.0,3911.0,A,-15.0,61.0,67.0
-331.0,87.0,3926.0,A,0.0,60.0,66.0
-338.0,73.0,3934.0,A,5.0,57.0,59.0
-332.0,67.0,3941.0,A,2.0,56.0,50.0
-331.0,82.0,3953.0,A,-5.0,50.0,45.0
-342.0,93.0,3970.0,A,-11.0,29.0,50.0
-357.0,81.0,3972.0,A,-17.0,10.0,58.0
-365.0,66.0,3958.0,A,-30.0,17.0,63.0
-365.0,73.0,3944.0,A,-55.0,57.0,61.0
-363.0,93.0,3948.0,A,-77.0,94.0,55.0
-358.0,95.0,3958.0,A,-82.0,99.0,45.0
-353.0,74.0,3956.0,A,-67.0,75.0,34.0
-346.0,60.0,3941.0,A,-50.0,50.0,26.0
-338.0,66.0,3931.0,A,-38.0,33.0,25.0
-335.0,82.0,3933.0,A,-31.0,16.0,26.0
-344.0,88.0,3941.0,A,-26.0,-3.0,27.0
-364.0,82.0,3950.0,A,-27.0,-11.0,26.0
-378.0,63.0,3956.0,A,-31.0,-2.0,30.0
-379.0,42.0,3955.0,A,-34.0,17.0,37.0
-374.0,34.0,3945.0,A,-33.0,34.0,45.0
-373.0,46.0,3937.0,A,-39.0,52.0,51.0
-374.0,60.0,3942.0,A,-50.0,71.0,56.0
-373.0,62.0,3955.0,A,-59.0,84.0,54.0
-369.0,58.0,3958.0,A,-60.0,86.0,43.0
-369.0,68.0,3948.0,A,-62.0,86.0,29.0
-370.0,82.0,3936.0,A,-70.0,88.0,18.0
-369.0,81.0,3934.0,A,-77.0,89.0,17.0
-359.0,66.0,3941.0,A,-72.0,80.0,22.0
-344.0,62.0,3954.0,A,-60.0,68.0,30.0
-335.0,69.0,3964.0,A,-49.0,59.0,35.0
-345.0,66.0,3966.0,A,-40.0,52.0,31.0
-367.0,46.0,3959.0,A,-31.0,42.0,23.0
-373.0,33.0,3954.0,A,-28.0,31.0,15.0
-358.0,37.0,3955.0,A,-34.0,29.0,16.0
-343.0,45.0,3957.0,A,-44.0,31.0,21.0
-353.0,43.0,3951.0,A,-48.0,33.0,30.0
-371.0,43.0,3947.0,A,-51.0,33.0,42.0
-371.0,53.0,3954.0,A,-55.0,39.0,59.0
-353.0,68.0,3968.0,A,-57.0,47.0,68.0
