Subject,Class,AccelerometerX,AccelerometerY,AccelerometerZ
U001,0,-317,-3000,925
U001,0,-284,-2968,903
U001,0,-243,-2987,933
U001,0,-193,-3051,936
U001,0,-150,-3059,915
U001,0,-97,-3107,928
U001,0,-15,-3156,952
U001,0,36,-3285,946
U001,0,58,-3336,962
U001,0,60,-3381,925
U001,0,56,-3449,846
U001,0,52,-3455,793
U001,0,69,-3455,746
U001,0,26,-3471,671
U001,0,24,-3464,550
U001,0,-4,-3445,464
U001,0,22,-3400,440
U001,0,64,-3360,441
U001,0,58,-3295,456
U001,0,-67,-3549,522
U001,0,-147,-3716,631
U001,0,-9,-3657,659
U001,0,112,-3617,567
U001,0,93,-3573,545
U001,0,52,-3600,642
U001,0,50,-3747,637
U001,0,44,-3840,625
U001,0,-38,-3888,713
U001,0,2,-3931,711
U001,0,4,-4033,715
U001,0,-32,-4119,753
U001,0,-18,-4158,781
U001,0,3,-4211,788
U001,0,-9,-4230,785
U001,0,-36,-4282,706
U001,0,-46,-4358,580
U001,0,-40,-4445,424
U001,0,-31,-4505,339
U001,0,-39,-4547,352
U001,0,-122,-4660,701
U001,0,-637,-4872,1158
U001,0,-964,-5287,1218
U001,0,-1043,-5466,1269
U001,0,-1044,-5511,1147
U001,0,-784,-5391,619
U001,0,-321,-5082,254
U001,0,-76,-4724,521
U001,0,-82,-4345,774
U001,0,41,-4166,583
U001,0,-46,-4248,856
U001,0,-316,-4092,1004
U001,0,-611,-3960,1219
U001,0,-1067,-3927,1603
U001,0,-1470,-4071,1847
U001,0,-1593,-4285,1549
U001,0,-1389,-4472,1128
U001,0,-1138,-4446,941
U001,0,-1043,-4170,997
U001,0,-1032,-3853,1104
U001,0,-1049,-3822,1211
U001,0,-1091,-3730,1223
U001,0,-1123,-3577,1298
U001,0,-1050,-3422,1454
U001,0,-1003,-3294,1611
U001,0,-942,-3386,1612
U001,0,-816,-3431,1550
U001,0,-721,-3644,1433
U001,0,-797,-3766,1301
U001,0,-908,-3718,1162
U001,0,-901,-3761,1035
U001,0,-877,-3641,966
U001,0,-868,-3557,930
U001,0,-847,-3449,961
U001,0,-869,-3392,946
U001,0,-813,-3427,883
U001,0,-755,-3439,803
U001,0,-693,-3477,761
U001,0,-693,-3511,796
U001,0,-714,-3533,818
U001,0,-707,-3517,836
U001,0,-687,-3475,829
U001,0,-628,-3495,825
U001,0,-583,-3509,780
U001,0,-520,-3478,719
U001,0,-507,-3497,674
U001,0,-502,-3531,627
U001,0,-432,-3563,571
U001,0,-399,-3560,550
U001,0,-387,-3567,607
U001,0,-424,-3568,691
U001,0,-372,-3509,688
U001,0,-360,-3489,670
U001,0,-425,-3432,714
U001,0,-474,-3334,741
U001,0,-480,-3375,737
U001,0,-526,-3326,749
U001,0,-549,-3314,763
U001,0,-537,-3344,674
U001,0,-575,-3461,698
U001,0,-578,-3582,745
U001,0,-571,-3643,775
U001,0,-581,-3703,813
U001,0,-575,-3788,861
U001,0,-527,-3871,823
U001,0,-515,-4021,749
U001,0,-464,-4237,688
U001,0,-390,-4401,705
U001,0,-356,-4477,751
U001,0,-396,-4650,806
U001,0,-442,-4808,883
U001,0,-422,-4891,958
U001,0,-381,-4919,1000
U001,0,-368,-4846,971
U001,0,-369,-4801,888
U001,0,-517,-4741,953
U001,0,-749,-4873,1122
U001,0,-247,-5190,1573
U001,0,144,-5539,1909
U001,0,-142,-5555,1709
U001,0,-698,-5275,1505
U001,0,-860,-4961,1487
U001,0,-770,-4641,1492
U001,0,-727,-4295,1462
U001,0,-714,-4066,1422
U001,0,-659,-3784,1436
U001,0,-586,-3440,1410
U001,0,-514,-3001,1543
U001,0,-467,-2646,1819
U001,0,-581,-2406,2091
U001,0,-698,-2455,2261
U001,0,-604,-2704,2090
U001,0,-439,-3198,1882
U001,0,-337,-3729,1953
U001,0,-320,-4134,1926
U001,0,-377,-4541,1775
U001,0,-491,-4535,1531
U001,0,-430,-4220,1488
U001,0,-289,-4080,1564
U001,0,-298,-4138,1621
U001,0,-343,-4256,1581
U001,0,-412,-4131,1642
U001,0,-321,-3908,1523
U001,0,-125,-3668,1339
U001,0,-21,-3437,1209
U001,0,64,-3257,1076
U001,0,108,-3096,982
U001,0,103,-2959,902
U001,0,81,-2894,799
U001,0,21,-2772,776
U001,0,-12,-2673,811
U001,0,-70,-2713,823
U001,0,-59,-2733,852
U001,0,-35,-2804,896
U001,0,-29,-2986,873
U001,0,17,-3111,838
U001,0,84,-3193,790
U001,0,126,-3262,677
U001,0,144,-3335,582
U001,0,195,-3351,497
U001,0,208,-3395,382
U001,0,158,-3402,337
U001,0,138,-3400,312
U001,0,97,-3352,321
U001,0,46,-3259,362
U001,0,42,-3156,375
U001,0,37,-3121,371
U001,0,30,-3277,389
U001,0,31,-3449,394
U001,0,120,-3645,433
U001,0,187,-3930,461
U001,0,95,-4125,488
U001,0,69,-4217,507
U001,0,92,-4292,512
U001,0,64,-4360,398
U001,0,70,-4370,264
U001,0,61,-4387,184
U001,0,103,-4398,119
U001,0,221,-4409,27
U001,0,309,-4415,-31
U001,0,470,-4431,-40
U001,0,640,-4664,-63
U001,0,773,-4836,-94
U001,0,778,-4912,-111
U001,0,639,-5126,81
U001,0,-146,-5418,690
U001,0,-997,-5470,938
U001,0,-1012,-5429,1011
U001,0,-580,-5350,954
U001,0,-552,-5132,764
U001,0,-648,-4900,529
U001,0,-494,-4815,468
U001,0,-182,-4656,445
U001,0,-88,-4315,592
U001,0,-423,-4158,913
U001,0,-1234,-4432,1788
U001,0,-1848,-4839,2444
U001,0,-1731,-4954,1986
U001,0,-1311,-4833,1021
U001,0,-989,-4765,356
U001,0,-974,-4869,359
U001,0,-956,-4739,557
U001,0,-844,-4586,711
U001,0,-921,-4511,990
U001,0,-962,-4266,1063
U001,0,-938,-3915,1008
U001,0,-832,-3662,972
U001,0,-805,-3521,978
U001,0,-844,-3418,977
U001,0,-783,-3376,899
U001,0,-677,-3354,793
U001,0,-619,-3328,775
U001,0,-624,-3292,747
U001,0,-650,-3281,682
U001,0,-646,-3231,683
U001,0,-648,-3162,694
U001,0,-684,-3099,672
U001,0,-659,-3102,648
U001,0,-668,-3085,657
U001,0,-693,-3126,601
U001,0,-672,-3195,522
U001,0,-651,-3219,465
U001,0,-572,-3292,393
U001,0,-495,-3356,427
U001,0,-468,-3401,495
U001,0,-445,-3418,551
U001,0,-365,-3387,538
U001,0,-341,-3358,550
U001,0,-357,-3372,565
U001,0,-323,-3423,528
U001,0,-273,-3458,506
U001,0,-236,-3512,490
U001,0,-232,-3527,417
U001,0,-209,-3539,405
U001,0,-268,-3557,383
U001,0,-359,-3518,339
U001,0,-442,-3524,356
U001,0,-535,-3622,345
U001,0,-649,-3730,413
U001,0,-710,-3793,533
U001,0,-684,-3853,682
U001,0,-576,-3971,808
U001,0,-539,-4148,839
U001,0,-522,-4311,927
U001,0,-664,-4456,948
U001,0,-719,-4627,1006
U001,0,-671,-4744,1044
U001,0,-587,-4783,1006
U001,0,-583,-4848,916
U001,0,-651,-4933,770
U001,0,-574,-4884,894
U001,0,-857,-4911,546
U001,0,-407,-4907,962
U001,0,-4,-5022,1428
U001,0,-34,-5055,1567
U001,0,-367,-4877,1496
U001,0,-648,-4579,1632
U001,0,-787,-4169,1752
U001,0,-690,-3692,1654
U001,0,-557,-3385,1424
U001,0,-365,-3029,1261
U001,0,-235,-2609,1401
U001,0,-619,-2335,1977
U001,0,-812,-2513,2512
U001,0,-598,-3001,2690
U001,0,-420,-3775,2734
U001,0,-573,-4431,2586
U001,0,-745,-4981,2318
U001,0,-847,-5168,2023
U001,0,-671,-5124,1678
U001,0,-471,-4952,1598
U001,0,-298,-4425,1502
U001,0,-282,-4241,1350
U001,0,-382,-4088,1388
U001,0,-461,-3792,1388
U001,0,-417,-3541,1343
U001,0,-281,-3393,1336
U001,0,-159,-3301,1186
U001,0,-3,-3161,965
U001,0,125,-2995,877
U001,0,183,-2928,817
U001,0,137,-2858,834
U001,0,124,-2768,900
U001,0,79,-2800,888
U001,0,49,-2892,766
U001,0,-9,-2982,756
U001,0,-1,-3009,745
U001,0,-53,-3055,786
U001,0,-113,-3074,730
U001,0,-83,-3032,693
U001,0,38,-3040,595
U001,0,72,-3088,526
U001,0,19,-3136,442
U001,0,7,-3177,309
U001,0,25,-3212,216
U001,0,32,-3236,139
U001,0,75,-3211,88
U001,0,126,-3147,77
U001,0,192,-3142,47
U001,0,218,-3142,63
U001,0,230,-3132,221
U001,0,19,-3740,281
U001,0,64,-4249,423
U001,0,241,-4281,687
U001,0,283,-4507,767
U001,0,298,-4782,699
U001,0,297,-4817,590
U001,0,317,-4940,488
U001,0,424,-5098,240
U001,0,561,-5097,-8
U001,0,664,-5077,-151
U001,0,738,-5095,-350
U001,0,800,-4926,-475
U001,0,914,-4859,-312
U001,0,558,-5051,448
U001,0,-515,-5225,861
U001,0,-1106,-5496,1019
U001,0,-1085,-5254,1254
U001,0,-924,-5200,1424
U001,0,-1070,-5429,1305
U001,0,-838,-5098,1010
U001,0,-472,-4876,841
U001,0,-257,-4559,795
U001,0,-289,-4199,893
U001,0,-660,-4000,1122
U001,0,-1354,-4102,1567
U001,0,-1693,-4282,1606
U001,0,-1439,-4452,1164
U001,0,-1169,-4529,1005
U001,0,-1172,-4659,1017
U001,0,-1076,-4742,885
U001,0,-975,-4609,845
U001,0,-915,-4375,965
U001,0,-881,-4086,1022
U001,0,-846,-3694,934
U001,0,-800,-3386,948
U001,0,-785,-3219,977
U001,0,-834,-3173,1047
U001,0,-871,-3167,1066
U001,0,-816,-3213,990
U001,0,-723,-3308,914
U001,0,-733,-3329,900
U001,0,-759,-3328,897
U001,0,-752,-3295,854
U001,0,-762,-3235,752
U001,0,-776,-3182,712
U001,0,-746,-3173,694
U001,0,-736,-3144,704
U001,0,-749,-3169,678
U001,0,-685,-3202,603
U001,0,-565,-3260,619
U001,0,-562,-3289,651
U001,0,-565,-3374,664
U001,0,-535,-3402,580
U001,0,-515,-3343,594
U001,0,-484,-3345,627
U001,0,-455,-3373,683
U001,0,-434,-3434,694
U001,0,-432,-3481,672
U001,0,-419,-3568,668
U001,0,-394,-3642,648
U001,0,-412,-3584,627
U001,0,-421,-3574,659
U001,0,-484,-3545,682
U001,0,-592,-3537,500
U001,0,-643,-3498,406
U001,0,-699,-3546,480
U001,0,-799,-3571,537
U001,0,-759,-3618,644
U001,0,-695,-3759,857
U001,0,-731,-3952,946
U001,0,-707,-4134,1074
U001,0,-738,-4330,1152
U001,0,-809,-4588,1279
U001,0,-863,-4656,1348
U001,0,-803,-4961,1260
U001,0,-748,-5068,1320
U001,0,-651,-5105,1324
U001,0,-597,-5286,1335
U001,0,-524,-5309,1410
U001,0,-538,-5313,1403
U001,0,-589,-5148,1328
U001,0,-388,-5033,1299
U001,0,-396,-4938,1264
U001,0,-505,-4688,1102
U001,0,-551,-4188,1023
U001,0,-490,-3799,1062
U001,0,-484,-3333,1215
U001,0,-245,-2962,1456
U001,0,-66,-2710,2076
U001,0,-317,-2789,2918
U001,0,-516,-2906,3096
U001,0,-597,-3364,2465
U001,0,-401,-3873,1931
U001,0,-387,-4060,1638
U001,0,-494,-3934,1484
U001,0,-388,-3912,1459
U001,0,-254,-3738,1477
U001,0,-131,-3713,1288
U001,0,-75,-3591,1095
U001,0,-231,-3545,1222
U001,0,-324,-3633,1337
U001,0,-228,-3559,1248
U001,0,-193,-3598,1251
U001,0,-63,-3502,1186
U001,0,48,-3430,1025
U001,0,53,-3366,950
U001,0,80,-3327,868
U001,0,72,-3304,756
U001,0,74,-3204,641
U001,0,63,-3189,579
U001,0,53,-3212,578
U001,0,55,-3204,577
U001,0,45,-3195,650
U001,0,30,-3224,619
U001,0,54,-3184,635
U001,0,110,-3118,591
U001,0,146,-3108,525
U001,0,164,-3053,464
U001,0,165,-3100,439
U001,0,164,-3182,394
U001,0,146,-3239,328
U001,0,166,-3311,238
U001,0,212,-3385,174
U001,0,273,-3433,154
U001,0,305,-3478,163
U001,0,305,-3608,232
U001,0,269,-3763,449
U001,0,138,-3915,725
U001,0,12,-4294,907
U001,0,72,-4601,897
U001,0,248,-4777,779
U001,0,334,-4943,704
U001,0,390,-5036,485
U001,0,444,-5234,304
U001,0,514,-5298,277
U001,0,508,-5373,245
U001,0,312,-5393,359
U001,0,58,-5528,561
U001,0,-277,-5448,875
U001,0,-375,-5416,975
U001,0,-227,-5394,810
U001,0,-253,-5284,723
U001,0,-395,-5003,755
U001,0,-201,-4734,788
U001,0,-170,-4406,687
U001,0,-364,-4153,614
U001,0,-695,-4124,1069
U001,0,-1263,-4226,1781
U001,0,-1666,-4410,1973
U001,0,-1561,-4464,1575
U001,0,-1259,-4451,1066
U001,0,-1000,-4411,898
U001,0,-887,-4375,833
U001,0,-896,-4322,927
U001,0,-901,-4193,1026
U001,0,-882,-3983,1105
U001,0,-890,-3768,1126
U001,0,-845,-3523,1039
U001,0,-825,-3237,1004
U001,0,-807,-3118,1042
U001,0,-814,-3035,1017
U001,0,-729,-3035,966
U001,0,-656,-3071,948
U001,0,-642,-3109,945
U001,0,-647,-3190,932
U001,0,-664,-3200,922
U001,0,-671,-3155,863
U001,0,-686,-3149,835
U001,0,-670,-3097,804
U001,0,-663,-3105,809
U001,0,-645,-3115,802
U001,0,-657,-3108,751
U001,0,-653,-3161,775
U001,0,-605,-3230,786
U001,0,-565,-3217,732
U001,0,-533,-3194,691
U001,0,-520,-3245,706
U001,0,-479,-3282,664
U001,0,-459,-3375,681
U001,0,-417,-3502,673
U001,0,-408,-3590,650
U001,0,-417,-3603,622
U001,0,-390,-3677,594
U001,0,-396,-3764,584
U001,0,-431,-3851,572
U001,0,-504,-3950,519
U001,0,-500,-3959,397
U001,0,-519,-3963,342
U001,0,-689,-3973,264
U001,0,-782,-4105,157
U001,0,-880,-4203,199
U001,0,-890,-4251,413
U001,0,-772,-4223,734
U001,0,-597,-4202,1075
U001,0,-411,-4010,1579
U001,0,-603,-4261,1492
U001,0,-791,-4456,1452
U001,0,-727,-4502,1401
U001,0,-671,-4753,1289
U001,0,-601,-4900,1296
U001,0,-584,-4977,1411
U001,0,-493,-5118,1541
U001,0,-603,-5163,1637
U001,0,-805,-5021,1680
U001,0,-722,-4818,1628
U001,0,-644,-4568,1604
U001,0,-737,-4181,1380
U001,0,-724,-3831,1109
U001,0,-502,-3428,1150
U001,0,-336,-3019,1367
U001,0,-229,-2558,1688
U001,0,-336,-2482,2561
U001,0,-340,-3030,3288
U001,0,-395,-3709,3259
U001,0,-575,-4489,2715
U001,0,-625,-4947,2263
U001,0,-525,-4965,1954
U001,0,-596,-4550,1644
U001,0,-526,-4290,1461
U001,0,-386,-3839,1397
U001,0,-435,-3673,1244
U001,0,-417,-3719,1239
U001,0,-446,-3749,1307
U001,0,-414,-3567,1373
U001,0,-337,-3484,1290
U001,0,-228,-3406,1232
U001,0,-67,-3331,1049
U001,0,94,-3221,813
U001,0,104,-3116,793
U001,0,91,-3080,723
U001,0,120,-2998,678
U001,0,18,-3073,581
U001,0,37,-3064,556
U001,0,37,-3109,590
U001,0,24,-3170,616
U001,0,54,-3173,707
U001,0,94,-3148,748
U001,0,156,-3149,723
U001,0,207,-3142,650
U001,0,255,-3155,556
U001,0,218,-3175,483
U001,0,198,-3200,430
U001,0,202,-3241,377
U001,0,207,-3261,296
U001,0,204,-3230,255
U001,0,241,-3170,242
U001,0,299,-3111,229
U001,0,373,-3095,279
U001,0,374,-3174,456
U001,0,95,-3710,589
U001,0,73,-4111,618
U001,0,173,-4210,627
U001,0,112,-4381,685
U001,0,158,-4663,641
U001,0,149,-4902,698
U001,0,123,-4975,768
U001,0,181,-4938,613
U001,0,294,-5032,299
U001,0,430,-4863,115
U001,0,553,-4844,101
U001,0,437,-4975,471
U001,0,-166,-5340,868
U001,0,-532,-5541,940
U001,0,-439,-5620,961
U001,0,-156,-5449,987
U001,0,-183,-5267,870
U001,0,-232,-5117,678
U001,0,-250,-4887,741
U001,0,-343,-4560,905
U001,0,-420,-4334,940
U001,0,-727,-4341,1291
U001,0,-1291,-4497,1854
U001,0,-1536,-4674,1836
U001,0,-1476,-4668,1412
U001,0,-1283,-4557,897
U001,0,-1048,-4554,821
U001,0,-979,-4534,968
U001,0,-901,-4389,1000
U001,0,-929,-4155,1117
U001,0,-976,-3940,1183
U001,0,-1024,-3704,1225
U001,0,-1013,-3455,1146
U001,0,-927,-3319,964
U001,0,-884,-3242,903
U001,0,-908,-3125,920
U001,0,-898,-3067,962
U001,0,-796,-3076,951
U001,0,-711,-3182,915
U001,0,-697,-3267,865
U001,0,-682,-3297,814
U001,0,-644,-3307,824
U001,0,-653,-3264,795
U001,0,-667,-3207,753
U001,0,-625,-3216,759
U001,0,-598,-3228,767
U001,0,-568,-3222,748
U001,0,-548,-3227,701
U001,0,-527,-3256,691
U001,0,-523,-3315,663
U001,0,-486,-3343,578
U001,0,-437,-3362,535
U001,0,-412,-3386,548
U001,0,-392,-3369,566
U001,0,-428,-3338,647
U001,0,-423,-3340,616
U001,0,-406,-3379,589
U001,0,-411,-3490,523
U001,0,-445,-3513,537
U001,0,-418,-3483,506
U001,0,-438,-3609,462
U001,0,-531,-3679,540
U001,0,-632,-3713,533
U001,0,-689,-3738,521
U001,0,-721,-3743,601
U001,0,-752,-3764,767
U001,0,-641,-3986,897
U001,0,-532,-4041,1127
U001,0,-591,-4119,1123
U001,0,-668,-4231,1081
U001,0,-718,-4453,1097
U001,0,-821,-4668,1209
U001,0,-799,-4833,1271
U001,0,-762,-5094,1308
U001,0,-740,-5254,1394
U001,0,-626,-5376,1417
U001,0,-666,-5396,1469
U001,0,-784,-5149,1501
U001,0,-706,-5138,1427
U001,0,-655,-5131,1420
U001,0,-704,-4978,1408
U001,0,-635,-4753,1464
U001,0,-508,-4567,1743
U001,0,-560,-4283,2005
U001,0,-493,-3981,2004
U001,0,-287,-3625,1923
U001,0,-163,-3091,2059
U001,0,-556,-2858,2666
U001,0,-691,-2702,2541
U001,0,-520,-2772,2015
U001,0,-385,-2914,1639
U001,0,-487,-3257,1461
U001,0,-607,-3411,1397
U001,0,-568,-3597,1292
U001,0,-439,-3579,1097
U001,0,-255,-3524,982
U001,0,-174,-3383,1010
U001,0,-228,-3386,1252
U001,0,-235,-3399,1474
U001,0,-241,-3515,1548
U001,0,-205,-3536,1401
U001,0,-94,-3476,1173
U001,0,39,-3392,1071
U001,0,123,-3333,1062
U001,0,163,-3226,1043
U001,0,202,-3160,996
U001,0,140,-3168,1003
U001,0,53,-3194,938
U001,0,39,-3177,864
U001,0,36,-3128,885
U001,0,35,-3084,864
U001,0,63,-3096,817
U001,0,118,-3077,754
U001,0,164,-3083,704
U001,0,215,-3118,672
U001,0,256,-3164,643
U001,0,261,-3278,586
U001,0,260,-3367,525
U001,0,252,-3426,466
U001,0,336,-3406,380
U001,0,385,-3341,364
U001,0,349,-3273,347
U001,0,348,-3263,266
U001,0,415,-3168,299
U001,0,322,-3497,531
U001,0,-93,-4168,651
U001,0,-23,-4388,759
U001,0,206,-4320,662
U001,0,385,-4549,551
U001,0,351,-4937,508
U001,0,261,-5163,455
U001,0,384,-5237,279
U001,0,518,-5376,159
U001,0,411,-5451,265
U001,0,44,-5547,707
U001,0,-403,-5629,968
U001,0,-492,-5628,965
U001,0,-255,-5501,953
U001,0,-359,-5404,1070
U001,0,-681,-5392,1244
U001,0,-670,-5199,1234
U001,0,-500,-4797,1095
U001,0,-348,-4435,890
U001,0,-368,-4132,808
U001,0,-567,-3990,1153
U001,0,-1025,-3976,1646
U001,0,-1370,-4187,1661
U001,0,-1303,-4346,1385
U001,0,-1126,-4374,1186
U001,0,-1083,-4490,1007
U001,0,-1114,-4552,1005
U001,0,-946,-4331,1029
U001,0,-813,-4015,1038
U001,0,-833,-3802,1097
U001,0,-865,-3583,1144
U001,0,-851,-3376,1120
U001,0,-850,-3233,1161
U001,0,-850,-3185,1140
U001,0,-768,-3215,1123
U001,0,-657,-3286,1079
U001,0,-645,-3337,984
U001,0,-673,-3299,887
U001,0,-668,-3240,818
U001,0,-693,-3177,831
U001,0,-700,-3117,817
U001,0,-666,-3093,808
U001,0,-624,-3049,789
U001,0,-572,-3074,751
U001,0,-568,-3132,713
U001,0,-535,-3180,665
U001,0,-501,-3239,689
U001,0,-417,-3243,631
U001,0,-423,-3295,536
U001,0,-414,-3322,465
U001,0,-375,-3347,443
U001,0,-347,-3370,478
U001,0,-346,-3390,512
U001,0,-385,-3386,581
U001,0,-329,-3472,572
U001,0,-303,-3524,576
U001,0,-328,-3483,615
U001,0,-316,-3634,522
U001,0,-364,-3627,541
U001,0,-460,-3676,471
U001,0,-554,-3643,448
U001,0,-582,-3739,383
U001,0,-657,-3862,531
U001,0,-720,-3910,638
U001,0,-748,-4000,771
U001,0,-741,-4151,929
U001,0,-794,-4283,1112
U001,0,-798,-4507,1242
U001,0,-712,-4886,1214
U001,0,-665,-4927,1298
U001,0,-604,-4946,1213
U001,0,-546,-4982,1001
U001,0,-633,-4933,905
U001,0,-862,-4822,827
U001,0,-706,-4927,866
U001,0,-307,-5138,1212
U001,0,12,-5212,1563
U001,0,-165,-5182,1489
U001,0,-378,-4926,1445
U001,0,-504,-4624,1460
U001,0,-479,-4315,1490
U001,0,-462,-3946,1521
U001,0,-472,-3581,1496
U001,0,-495,-3248,1466
U001,0,-415,-2932,1423
U001,0,-355,-2629,1722
U001,0,-416,-2655,2495
U001,0,-437,-2986,2920
U001,0,-361,-3557,2819
U001,0,-295,-4080,2661
U001,0,-349,-4490,2264
U001,0,-340,-4662,2027
U001,0,-263,-4616,1766
U001,0,-198,-4369,1508
U001,0,-108,-3994,1363
U001,0,-212,-3872,1240
U001,0,-263,-3803,1142
U001,0,-266,-3730,1210
U001,0,-212,-3659,1252
U001,0,-152,-3640,1300
U001,0,-68,-3490,1266
U001,0,132,-3386,1053
U001,0,216,-3272,1044
U001,0,184,-3174,1012
U001,0,143,-3134,925
U001,0,106,-3052,782
U001,0,81,-2973,696
U001,0,99,-2849,691
U001,0,-47,-2966,595
U001,0,13,-2901,630
U001,0,102,-2890,729
U001,0,151,-2966,773
U001,0,189,-3032,764
U001,0,226,-3094,726
U001,0,260,-3172,723
U001,0,283,-3210,661
U001,0,273,-3271,573
U001,0,276,-3288,468
U001,0,302,-3254,367
U001,0,313,-3249,322
U001,0,378,-3243,297
U001,0,429,-3243,285
U001,0,501,-3292,204
U001,0,545,-3381,170
U001,0,514,-3553,315
U001,0,315,-4029,416
U001,0,367,-4212,592
U001,0,461,-4424,706
U001,0,409,-4597,771
U001,0,349,-4761,787
U001,0,326,-4798,754
U001,0,386,-4950,644
U001,0,470,-5017,467
U001,0,506,-5116,246
U001,0,592,-5030,-65
U001,0,641,-4945,-168
U001,0,639,-4894,97
U001,0,363,-5106,709
U001,0,-318,-5161,1230
U001,0,-769,-5163,1235
U001,0,-660,-5251,1298
U001,0,-512,-5294,1522
U001,0,-612,-5262,1678
U001,0,-569,-5093,1389
U001,0,-453,-4792,1299
U001,0,-360,-4328,1120
U001,0,-360,-3879,936
U001,0,-561,-3689,1073
U001,0,-1050,-3761,1547
U001,0,-1384,-4025,1589
U001,0,-1285,-4303,1281
U001,0,-1214,-4594,1148
U001,0,-1139,-4712,1081
U001,0,-1061,-4732,999
U001,0,-1097,-4512,1039
U001,0,-1093,-4113,1188
U001,0,-1041,-3753,1227
U001,0,-1003,-3495,1303
U001,0,-999,-3318,1368
U001,0,-1012,-3258,1381
U001,0,-961,-3320,1324
U001,0,-917,-3465,1243
U001,0,-973,-3484,1078
U001,0,-1025,-3392,959
U001,0,-1009,-3272,932
U001,0,-1002,-3220,931
U001,0,-1042,-3117,895
U001,0,-1054,-3090,852
U001,0,-981,-3083,950
U001,0,-906,-3040,961
U001,0,-846,-3071,945
U001,0,-857,-3145,974
U001,0,-793,-3168,906
U001,0,-791,-3258,924
U001,0,-818,-3345,951
U001,0,-823,-3406,919
U001,0,-761,-3462,903
U001,0,-732,-3452,885
U001,0,-671,-3411,875
U001,0,-598,-3364,796
U001,0,-553,-3327,735
U001,0,-497,-3403,764
U001,0,-421,-3429,690
U001,0,-371,-3480,640
U001,0,-333,-3560,606
U001,0,-312,-3590,587
U001,0,-330,-3624,576
U001,0,-342,-3606,499
U001,0,-311,-3637,504
U001,0,-302,-3705,548
U001,0,-425,-3732,526
U001,0,-417,-3848,380
U001,0,-377,-3941,457
U001,0,-351,-4033,796
U001,0,-370,-4110,924
U001,0,-422,-4143,1147
U001,0,-608,-4204,1290
U001,0,-714,-4406,1193
U001,0,-686,-4486,1172
U001,0,-590,-4577,1095
U001,0,-482,-4661,848
U001,0,-348,-4699,799
U001,0,-289,-4804,809
U001,0,-227,-4850,1048
U001,0,-241,-4955,1203
U001,0,-261,-5022,1273
U001,0,-332,-5074,1384
U001,0,-399,-4904,1258
U001,0,-324,-4746,1309
U001,0,-452,-4635,1363
U001,0,-623,-4392,1256
U001,0,-699,-4146,1343
U001,0,-638,-3814,1545
U001,0,-454,-3622,1883
U001,0,-337,-3552,2588
U001,0,-138,-3824,3170
U001,0,9,-3881,3332
U001,0,-609,-3904,2889
U001,0,-655,-4102,2276
U001,0,-633,-4010,1679
U001,0,-656,-3686,1236
U001,0,-657,-3638,1385
U001,0,-672,-3763,1570
U001,0,-627,-3662,1561
U001,0,-474,-3578,1534
U001,0,-287,-3412,1406
U001,0,-149,-3257,1299
U001,0,-244,-3277,1454
U001,0,-314,-3399,1492
U001,0,-294,-3499,1399
U001,0,-178,-3532,1375
U001,0,-67,-3482,1230
U001,0,11,-3449,1081
U001,0,74,-3360,964
U001,0,71,-3330,882
U001,0,51,-3313,926
U001,0,29,-3334,921
U001,0,73,-3308,904
U001,0,106,-3333,868
U001,0,163,-3349,877
U001,0,235,-3363,864
U001,0,290,-3328,856
U001,0,264,-3357,913
U001,0,341,-3348,846
U001,0,370,-3363,823
U001,0,355,-3381,823
U001,0,349,-3370,747
U001,0,345,-3361,619
U001,0,372,-3324,521
U001,0,406,-3273,488
U001,0,440,-3257,483
U001,0,496,-3268,490
U001,0,535,-3278,492
U001,0,574,-3202,521
U001,0,562,-3309,516
U001,0,464,-3440,566
U001,0,229,-3723,787
U001,0,52,-3894,881
U001,0,169,-4011,820
U001,0,348,-4270,740
U001,0,439,-4609,736
U001,0,397,-4872,805
U001,0,414,-5079,842
U001,0,457,-5148,849
U001,0,412,-5144,859
U001,0,360,-5186,883
U001,0,392,-5231,773
U001,0,384,-5394,767
U001,0,351,-5468,840
U001,0,217,-5255,1101
U001,0,-350,-5426,1748
U001,0,-1065,-5660,2474
U001,0,-1296,-5689,2256
U001,0,-663,-5502,1526
U001,0,-259,-5269,1265
U001,0,-307,-4776,970
U001,0,-345,-4424,931
U001,0,-438,-4094,1142
U001,0,-680,-3795,1340
U001,0,-822,-3567,1387
U001,0,-860,-3443,1295
U001,0,-913,-3460,1223
U001,0,-848,-3426,1086
U001,0,-781,-3309,949
U001,0,-779,-3249,912
U001,0,-751,-3195,938
U001,0,-740,-3116,947
U001,0,-733,-3011,960
U001,0,-735,-2919,1030
U001,0,-759,-2876,1070
U001,0,-764,-2921,1101
U001,0,-673,-3057,1122
U001,0,-638,-3203,1170
U001,0,-684,-3364,1174
U001,0,-707,-3423,1138
U001,0,-735,-3422,1026
U001,0,-736,-3419,971
U001,0,-754,-3378,951
U001,0,-753,-3375,919
U001,0,-736,-3434,893
U001,0,-786,-3479,896
U001,0,-729,-3484,835
U001,0,-651,-3547,818
U001,0,-606,-3583,789
U001,0,-583,-3610,766
U001,0,-550,-3612,727
U001,0,-540,-3586,754
U001,0,-504,-3488,739
U001,0,-538,-3433,763
U001,0,-566,-3458,725
U001,0,-470,-3444,625
U001,0,-397,-3472,579
U001,0,-371,-3471,628
U001,0,-340,-3475,689
U001,0,-298,-3476,699
U001,0,-309,-3565,692
U001,0,-307,-3744,654
U001,0,-290,-3838,662
U001,0,-347,-3828,588
U001,0,-498,-3866,410
U001,0,-579,-3992,433
U001,0,-801,-4055,486
U001,0,-895,-4108,589
U001,0,-780,-4157,831
U001,0,-677,-4266,1026
U001,0,-605,-4361,1135
U001,0,-598,-4461,1179
U001,0,-674,-4665,1140
U001,0,-678,-4796,1138
U001,0,-637,-4898,1134
U001,0,-599,-5073,1250
U001,0,-562,-5190,1506
U001,0,-399,-5301,1690
U001,0,-506,-5169,1702
U001,0,-602,-4978,1564
U001,0,-529,-4815,1373
U001,0,-541,-4569,1352
U001,0,-493,-4238,1205
U001,0,-508,-3811,1246
U001,0,-432,-3622,1552
U001,0,-335,-3549,2162
U001,0,-311,-3703,3004
U001,0,-318,-3902,3570
U001,0,-773,-4169,3341
U001,0,-859,-4523,2571
U001,0,-722,-4534,1885
U001,0,-812,-4216,1584
U001,0,-827,-4084,1666
U001,0,-739,-4023,1810
U001,0,-524,-3919,1786
U001,0,-410,-3782,1679
U001,0,-236,-3526,1498
U001,0,-138,-3302,1394
U001,0,-149,-3300,1345
U001,0,-233,-3293,1373
U001,0,-156,-3244,1303
U001,0,-15,-3175,1102
U001,0,70,-3090,1011
U001,0,134,-3027,928
U001,0,129,-2957,844
U001,0,185,-2934,775
U001,0,195,-2878,803
U001,0,179,-2872,812
U001,0,192,-2963,815
U001,0,154,-3026,827
U001,0,146,-3058,919
U001,0,157,-3114,988
U001,0,199,-3144,957
U001,0,260,-3150,884
U001,0,314,-3143,818
U001,0,310,-3134,776
U001,0,286,-3182,709
U001,0,256,-3232,591
U001,0,253,-3249,434
U001,0,247,-3248,327
U001,0,284,-3222,308
U001,0,338,-3192,308
U001,0,387,-3163,326
U001,0,506,-3091,330
U001,0,577,-3165,365
U001,0,548,-3333,523
U001,0,336,-3800,661
U001,0,347,-3829,782
U001,0,407,-3854,868
U001,0,322,-4211,868
U001,0,207,-4615,795
U001,0,251,-4792,675
U001,0,368,-4885,500
U001,0,565,-5092,301
U001,0,676,-5255,139
U001,0,687,-5311,370
U001,0,434,-5541,796
U001,0,58,-5544,1180
U001,0,-213,-5509,1355
U001,0,-159,-5605,1103
U001,0,-57,-5559,794
U001,0,-101,-5317,574
U001,0,-7,-5079,463
U001,0,138,-4792,565
U001,0,78,-4588,676
U001,0,-27,-4422,766
U001,0,-331,-4392,1220
U001,0,-879,-4389,1862
U001,0,-1239,-4552,2220
U001,0,-1079,-4488,1848
U001,0,-768,-4251,1317
U001,0,-709,-4166,1062
U001,0,-743,-4089,1048
U001,0,-778,-4089,1117
U001,0,-712,-3974,1046
U001,0,-781,-3869,1200
U001,0,-843,-3801,1448
U001,0,-847,-3589,1448
U001,0,-855,-3470,1363
U001,0,-878,-3396,1258
U001,0,-887,-3350,1165
U001,0,-858,-3349,1101
U001,0,-768,-3516,1008
U001,0,-706,-3621,907
U001,0,-741,-3600,893
U001,0,-759,-3546,945
U001,0,-745,-3443,908
U001,0,-756,-3341,830
U001,0,-744,-3272,799
U001,0,-777,-3207,796
U001,0,-770,-3180,782
U001,0,-742,-3215,795
U001,0,-711,-3249,796
U001,0,-646,-3311,852
U001,0,-605,-3381,833
U001,0,-606,-3435,835
U001,0,-581,-3456,807
U001,0,-509,-3452,700
U001,0,-459,-3429,623
U001,0,-482,-3436,627
U001,0,-488,-3459,623
U001,0,-442,-3515,601
U001,0,-420,-3531,507
U001,0,-382,-3566,481
U001,0,-342,-3560,550
U001,0,-318,-3519,577
U001,0,-310,-3487,646
U001,0,-348,-3501,727
U001,0,-393,-3632,656
U001,0,-410,-3715,495
U001,0,-496,-3707,374
U001,0,-496,-3823,365
U001,0,-619,-3934,374
U001,0,-673,-3938,458
U001,0,-680,-3998,570
U001,0,-679,-4154,708
U001,0,-631,-4300,885
U001,0,-532,-4435,1026
U001,0,-521,-4596,1077
U001,0,-533,-4742,1033
U001,0,-558,-4763,1002
U001,0,-562,-4728,1016
U001,0,-683,-4692,912
U001,0,-864,-4647,802
U001,0,-772,-4615,907
U001,0,-609,-4667,1121
U001,0,-402,-4805,1323
U001,0,-234,-4896,1416
U001,0,-295,-4930,1357
U001,0,-314,-4823,1262
U001,0,-311,-4672,1229
U001,0,-394,-4400,1154
U001,0,-471,-3999,1367
U001,0,-444,-3684,1735
U001,0,-255,-3595,2227
U001,0,-168,-3678,2686
U001,0,78,-3862,3010
U001,0,-409,-4027,3082
U001,0,-861,-4152,2776
U001,0,-722,-4267,2215
U001,0,-462,-4345,1702
U001,0,-343,-4231,1642
U001,0,-180,-4296,1924
U001,0,-169,-4197,1932
U001,0,-176,-3957,1823
U001,0,-45,-3678,1660
U001,0,-27,-3396,1416
U001,0,-22,-3235,1313
U001,0,-7,-3220,1250
U001,0,-24,-3226,1159
U001,0,-99,-3183,1197
U001,0,20,-3136,1074
U001,0,124,-3073,931
U001,0,149,-2979,943
U001,0,152,-2981,971
U001,0,199,-2952,858
U001,0,242,-2934,762
U001,0,254,-2921,834
U001,0,118,-3054,807
U001,0,98,-3041,819
U001,0,150,-3095,826
U001,0,197,-3108,809
U001,0,272,-3144,790
U001,0,335,-3173,782
U001,0,343,-3215,768
U001,0,325,-3215,719
U001,0,305,-3275,602
U001,0,297,-3305,491
U001,0,307,-3284,421
U001,0,327,-3288,403
U001,0,327,-3295,438
U001,0,375,-3313,437
U001,0,440,-3299,414
U001,0,489,-3301,417
U001,0,505,-3350,428
U001,0,551,-3438,519
U001,0,390,-3728,637
U001,0,305,-3934,690
U001,0,318,-4113,643
U001,0,376,-4213,546
U001,0,341,-4571,397
U001,0,282,-4917,305
U001,0,308,-4886,265
U001,0,504,-4787,201
U001,0,608,-4882,139
U001,0,761,-4822,-38
U001,0,1057,-4887,-62
U001,0,983,-5090,107
U001,0,441,-5140,614
U001,0,-20,-5260,1114
U001,0,-528,-5247,1257
U001,0,-807,-5349,1163
U001,0,-645,-5529,1229
U001,0,-428,-5335,1064
U001,0,-179,-4962,788
U001,0,-183,-4677,816
U001,0,-223,-4344,772
U001,0,-133,-4094,703
U001,0,-313,-4071,1194
U001,0,-812,-4174,1881
U001,0,-1128,-4340,2143
U001,0,-1147,-4417,1764
U001,0,-1018,-4357,1275
U001,0,-866,-4348,1108
U001,0,-828,-4378,1019
U001,0,-799,-4322,977
U001,0,-774,-4209,1079
U001,0,-760,-4081,1134
U001,0,-778,-3867,1223
U001,0,-787,-3638,1240
U001,0,-814,-3468,1196
U001,0,-785,-3309,1111
U001,0,-829,-3230,1118
U001,0,-871,-3231,1064
U001,0,-702,-3336,960
U001,0,-674,-3396,915
U001,0,-721,-3389,906
U001,0,-663,-3484,850
U001,0,-642,-3407,736
U001,0,-697,-3321,711
U001,0,-687,-3309,740
U001,0,-692,-3272,792
U001,0,-659,-3305,753
U001,0,-594,-3315,740
U001,0,-552,-3323,613
U001,0,-536,-3342,583
U001,0,-463,-3390,596
U001,0,-405,-3425,598
U001,0,-380,-3389,498
U001,0,-314,-3383,497
U001,0,-264,-3412,530
U001,0,-227,-3411,480
U001,0,-206,-3396,481
U001,0,-173,-3389,493
U001,0,-129,-3417,440
U001,0,-101,-3431,410
U001,0,-128,-3510,429
U001,0,-166,-3496,443
U001,0,-201,-3624,452
U001,0,-261,-3705,441
U001,0,-381,-3736,347
U001,0,-460,-3812,282
U001,0,-534,-3878,331
U001,0,-624,-3892,409
U001,0,-656,-3935,475
U001,0,-608,-3909,594
U001,0,-558,-4047,604
U001,0,-612,-4258,782
U001,0,-657,-4243,1088
U001,0,-730,-4499,983
U001,0,-698,-4784,940
U001,0,-665,-4989,910
U001,0,-487,-5130,965
U001,0,-553,-5213,893
U001,0,-488,-5306,999
U001,0,-423,-5355,1225
U001,0,-280,-5536,1473
U001,0,-239,-5601,1544
U001,0,-272,-5524,1584
U001,0,-389,-5383,1615
U001,0,-528,-5148,1459
U001,0,-678,-4668,1536
U001,0,-704,-4164,1597
U001,0,-618,-3730,1433
U001,0,-550,-3409,1503
U001,0,-411,-3258,1948
U001,0,-214,-3225,2448
U001,0,-479,-3126,2891
U001,0,-679,-3235,2753
U001,0,-572,-3671,2237
U001,0,-565,-3797,1704
U001,0,-530,-3843,1620
U001,0,-470,-3839,1639
U001,0,-378,-3848,1605
U001,0,-237,-3700,1488
U001,0,-211,-3464,1392
U001,0,-304,-3395,1382
U001,0,-346,-3291,1378
U001,0,-356,-3210,1388
U001,0,-237,-3197,1264
U001,0,-207,-3166,1285
U001,0,-120,-3136,1152
U001,0,-6,-3063,970
U001,0,59,-3029,894
U001,0,82,-3006,854
U001,0,59,-3033,857
U001,0,59,-3064,771
U001,0,78,-3093,713
U001,0,62,-3160,733
U001,0,34,-3238,775
U001,0,54,-3295,744
U001,0,105,-3296,681
U001,0,164,-3307,597
U001,0,238,-3267,516
U001,0,283,-3241,443
U001,0,309,-3254,338
U001,0,331,-3270,244
U001,0,364,-3327,183
U001,0,397,-3382,146
U001,0,450,-3388,122
U001,0,556,-3356,86
U001,0,683,-3288,80
U001,0,802,-3255,109
U001,0,670,-3346,342
U001,0,470,-3325,612
U001,0,-25,-3814,689
U001,0,-147,-4149,736
U001,0,167,-4284,797
U001,0,446,-4379,709
U001,0,546,-4685,515
U001,0,491,-5011,432
U001,0,429,-5281,312
U001,0,520,-5280,80
U001,0,760,-5222,-237
U001,0,990,-5163,-481
U001,0,1270,-5091,-520
U001,0,1106,-5036,-229
U001,0,551,-5080,586
U001,0,-609,-5223,1332
U001,0,-1432,-5409,1489
U001,0,-1187,-5046,1402
U001,0,-985,-5004,1317
U001,0,-996,-4892,1191
U001,0,-843,-4725,1335
U001,0,-487,-4448,1274
U001,0,-354,-4055,1083
U001,0,-525,-3775,1036
U001,0,-940,-3825,1294
U001,0,-1322,-4079,1506
U001,0,-1414,-4386,1390
U001,0,-1337,-4759,1272
U001,0,-1257,-5002,1256
U001,0,-1230,-5183,1181
U001,0,-1158,-4961,1163
U001,0,-1082,-4590,1258
U001,0,-991,-4215,1218
U001,0,-899,-3785,1038
U001,0,-915,-3392,1018
U001,0,-928,-3091,1009
U001,0,-902,-3023,972
U001,0,-869,-3129,905
U001,0,-862,-3137,819
U001,0,-833,-3177,768
U001,0,-842,-3247,724
U001,0,-880,-3269,718
U001,0,-878,-3246,735
U001,0,-789,-3232,769
U001,0,-768,-3203,754
U001,0,-707,-3178,659
U001,0,-592,-3260,591
U001,0,-550,-3287,597
U001,0,-573,-3297,492
U001,0,-504,-3332,480
U001,0,-427,-3357,429
U001,0,-431,-3315,391
U001,0,-380,-3336,428
U001,0,-304,-3348,444
U001,0,-262,-3316,390
U001,0,-278,-3285,414
U001,0,-276,-3300,419
U001,0,-265,-3336,379
U001,0,-330,-3339,480
U001,0,-380,-3329,521
U001,0,-402,-3422,472
U001,0,-453,-3577,466
U001,0,-531,-3664,538
U001,0,-656,-3714,502
U001,0,-687,-3799,574
U001,0,-819,-3920,558
U001,0,-797,-3798,647
U001,0,-758,-3833,638
U001,0,-681,-3900,711
U001,0,-727,-4049,811
U001,0,-697,-4252,969
U001,0,-707,-4498,1001
U001,0,-720,-4752,987
U001,0,-748,-5015,979
U001,0,-683,-5206,897
U001,0,-707,-5269,717
U001,0,-681,-5254,650
U001,0,-322,-5318,957
U001,0,-12,-5485,1299
U001,0,26,-5609,1438
U001,0,-245,-5500,1417
U001,0,-434,-5243,1542
U001,0,-588,-5140,1846
U001,0,-587,-4758,1988
U001,0,-856,-4226,2161
U001,0,-963,-3699,1803
U001,0,-769,-3291,1216
U001,0,-609,-2779,1201
U001,0,-468,-2704,1591
U001,0,-425,-2475,2159
U001,0,-584,-2945,2908
U001,0,-769,-3327,2854
U001,0,-718,-3684,2382
U001,0,-678,-4173,2074
U001,0,-480,-4375,1962
U001,0,-273,-4302,1899
U001,0,-230,-4205,1768
U001,0,-209,-3980,1503
U001,0,-309,-3743,1312
U001,0,-248,-3623,1122
U001,0,-301,-3555,1225
U001,0,-420,-3543,1313
U001,0,-347,-3447,1236
U001,0,-90,-3314,1063
U001,0,212,-3184,1009
U001,0,230,-3163,919
U001,0,322,-3048,884
U001,0,298,-3025,877
U001,0,178,-3022,842
U001,0,118,-3080,788
U001,0,112,-3049,723
U001,0,68,-3144,800
U001,0,38,-3202,853
U001,0,34,-3211,867
U001,0,75,-3178,892
U001,0,130,-3099,846
U001,0,162,-3127,699
U001,0,95,-3045,530
U001,0,111,-3020,395
U001,0,166,-3037,302
U001,0,164,-3069,230
U001,0,146,-3050,159
U001,0,200,-3056,139
U001,0,243,-3050,183
U001,0,242,-3068,279
U001,0,256,-3275,369
U001,0,76,-3639,491
U001,0,15,-3835,620
U001,0,66,-3934,650
U001,0,131,-4236,621
U001,0,126,-4735,522
U001,0,227,-4810,458
U001,0,276,-4749,299
U001,0,409,-4746,55
U001,0,582,-4846,-74
U001,0,573,-5043,-194
U001,0,648,-5204,-182
U001,0,479,-5386,-15
U001,0,51,-5410,332
U001,0,-402,-5418,838
U001,0,-992,-5413,1126
U001,0,-1088,-5569,1051
U001,0,-817,-5705,984
U001,0,-681,-5393,1020
U001,0,-602,-5125,1231
U001,0,-534,-4953,1357
U001,0,-491,-4482,1229
U001,0,-708,-4404,1436
U001,0,-1149,-4442,2012
U001,0,-1329,-4594,2222
U001,0,-1285,-4630,1803
U001,0,-1178,-4512,1305
U001,0,-1049,-4475,1162
U001,0,-927,-4528,1088
U001,0,-931,-4385,1062
U001,0,-996,-4228,1205
U001,0,-987,-3912,1317
U001,0,-894,-3598,1274
U001,0,-875,-3239,1164
U001,0,-859,-2934,1052
U001,0,-777,-2748,1079
U001,0,-703,-2652,1167
U001,0,-669,-2777,1236
U001,0,-662,-2877,1300
U001,0,-624,-2988,1211
U001,0,-689,-3157,977
U001,0,-652,-3206,794
U001,0,-568,-3173,719
U001,0,-602,-3230,651
U001,0,-608,-3253,655
U001,0,-567,-3301,650
U001,0,-556,-3345,628
U001,0,-574,-3326,662
U001,0,-538,-3304,667
U001,0,-451,-3293,683
U001,0,-355,-3241,704
U001,0,-336,-3222,598
U001,0,-347,-3182,536
U001,0,-388,-3136,589
U001,0,-411,-3162,622
U001,0,-402,-3174,615
U001,0,-363,-3225,575
U001,0,-369,-3277,570
U001,0,-387,-3284,569
U001,0,-361,-3333,500
U001,0,-370,-3383,402
U001,0,-463,-3496,367
U001,0,-520,-3647,369
U001,0,-647,-3737,378
U001,0,-777,-3771,437
U001,0,-874,-3754,469
U001,0,-811,-3809,657
U001,0,-713,-4059,986
U001,0,-793,-4276,1112
U001,0,-921,-4537,1185
U001,0,-847,-4713,1407
U001,0,-765,-4897,1457
U001,0,-641,-5025,1365
U001,0,-581,-5143,1338
U001,0,-596,-5382,1367
U001,0,-530,-5638,1564
U001,0,-340,-5879,1890
U001,0,-526,-5792,1943
U001,0,-794,-5581,1764
U001,0,-705,-5396,1682
U001,0,-640,-5191,1640
U001,0,-701,-4777,1545
U001,0,-781,-4353,1777
U001,0,-945,-3826,1708
U001,0,-750,-3580,1402
U001,0,-502,-3337,1596
U001,0,-334,-2893,1925
U001,0,-472,-2675,2441
U001,0,-521,-2865,2823
U001,0,-541,-2962,2926
U001,0,-598,-3280,2785
U001,0,-654,-3639,2321
U001,0,-602,-3939,1821
U001,0,-517,-4008,1211
U001,0,-454,-3933,926
U001,0,-518,-3623,799
U001,0,-543,-3619,869
U001,0,-573,-3644,1163
U001,0,-595,-3687,1294
U001,0,-398,-3568,1384
U001,0,-268,-3604,1595
U001,0,-6,-3528,1495
U001,0,163,-3376,1306
U001,0,154,-3379,1019
U001,0,95,-3283,890
U001,0,-45,-3199,862
U001,0,-84,-3162,845
U001,0,-40,-3081,837
U001,0,-77,-3069,857
U001,0,-119,-3043,883
U001,0,-72,-2996,896
U001,0,-8,-2926,866
U001,0,41,-2940,808
U001,0,105,-2897,705
U001,0,145,-2949,637
U001,0,123,-2996,626
U001,0,85,-3055,608
U001,0,52,-3103,548
U001,0,98,-3120,427
U001,0,130,-3125,350
U001,0,138,-3112,329
U001,0,128,-3081,340
U001,0,117,-3097,410
U001,0,203,-3072,674
U001,0,-23,-3647,759
U001,0,-95,-3924,803
U001,0,101,-4022,790
U001,0,191,-4102,654
U001,0,332,-4339,474
U001,0,288,-4659,523
U001,0,176,-4977,655
U001,0,130,-5215,621
U001,0,178,-5297,380
U001,0,335,-5208,91
U001,0,513,-5065,-156
U001,0,762,-4914,-287
U001,0,601,-5093,214
U001,0,-109,-5375,856
U001,0,-954,-5603,987
U001,0,-1038,-5485,1067
U001,0,-713,-5302,1294
U001,0,-708,-5233,1286
U001,0,-769,-5033,1233
U001,0,-736,-4783,1231
U001,0,-580,-4411,1106
U001,0,-345,-4073,870
U001,0,-371,-3800,849
U001,0,-671,-3700,1037
U001,0,-1075,-3862,1379
U001,0,-1290,-4272,1526
U001,0,-1327,-4675,1544
U001,0,-1203,-4887,1379
U001,0,-1139,-4968,1276
U001,0,-1111,-4911,1281
U001,0,-1024,-4616,1295
U001,0,-913,-4194,1254
U001,0,-829,-3835,1261
U001,0,-810,-3535,1322
U001,0,-832,-3326,1394
U001,0,-844,-3247,1364
U001,0,-774,-3345,1250
U001,0,-705,-3338,1066
U001,0,-720,-3331,991
U001,0,-751,-3236,991
U001,0,-744,-3158,888
U001,0,-715,-3053,824
U001,0,-665,-2929,759
U001,0,-650,-2866,781
U001,0,-582,-2831,750
U001,0,-554,-2920,696
U001,0,-491,-2997,695
U001,0,-476,-3070,659
U001,0,-395,-3160,549
U001,0,-376,-3234,526
U001,0,-373,-3288,507
U001,0,-316,-3280,430
U001,0,-282,-3266,470
U001,0,-265,-3258,558
U001,0,-256,-3232,605
U001,0,-264,-3262,662
U001,0,-260,-3255,677
U001,0,-246,-3324,579
U001,0,-228,-3380,551
U001,0,-308,-3441,477
U001,0,-400,-3522,442
U001,0,-416,-3579,393
U001,0,-494,-3682,418
U001,0,-545,-3812,382
U001,0,-554,-3801,481
U001,0,-621,-3876,452
U001,0,-576,-3866,633
U001,0,-610,-3914,779
U001,0,-624,-4015,918
U001,0,-612,-4136,1069
U001,0,-629,-4386,1166
U001,0,-683,-4547,1188
U001,0,-745,-4726,1184
U001,0,-717,-4863,1094
U001,0,-615,-4936,947
U001,0,-594,-4976,862
U001,0,-902,-5014,654
U001,0,-1171,-5112,545
U001,0,-509,-5165,1131
U001,0,-22,-5299,1764
U001,0,-238,-5324,1707
U001,0,-424,-5158,1519
U001,0,-427,-5015,1547
U001,0,-375,-4760,1915
U001,0,-461,-4393,1921
U001,0,-615,-3935,1764
U001,0,-538,-3581,1738
U001,0,-539,-3197,1731
U001,0,-552,-2877,1977
U001,0,-581,-2499,2591
U001,0,-574,-2692,3045
U001,0,-473,-3135,2891
U001,0,-535,-3581,2305
U001,0,-516,-4253,1886
U001,0,-456,-4797,1826
U001,0,-283,-4958,1788
U001,0,-271,-4832,1714
U001,0,-345,-4555,1655
U001,0,-315,-4160,1475
U001,0,-251,-3809,1352
U001,0,-219,-3625,1245
U001,0,-178,-3503,1182
U001,0,-124,-3467,1202
U001,0,26,-3382,1128
U001,0,84,-3403,1082
U001,0,143,-3359,988
U001,0,256,-3292,950
U001,0,257,-3211,966
U001,0,292,-3168,956
U001,0,226,-3081,964
U001,0,123,-3064,936
U001,0,46,-3035,851
U001,0,57,-3010,809
U001,0,72,-3016,849
U001,0,44,-3042,840
U001,0,45,-3068,805
U001,0,32,-3010,775
U001,0,68,-3041,707
U001,0,112,-3084,563
U001,0,106,-3154,430
U001,0,132,-3213,343
U001,0,139,-3214,321
U001,0,130,-3271,312
U001,0,147,-3331,294
U001,0,171,-3425,250
U001,0,212,-3474,224
U001,0,237,-3570,186
U001,0,259,-3670,150
U001,0,250,-3825,169
U001,0,231,-3906,276
U001,0,266,-3867,401
U001,0,256,-4026,430
U001,0,244,-4330,326
U001,0,327,-4500,300
U001,0,329,-4443,443
U001,0,386,-4377,503
U001,0,313,-4457,380
U001,0,416,-4598,323
U001,0,462,-4674,324
U001,0,488,-4742,263
U001,0,662,-4836,113
U001,0,589,-4816,224
U001,0,113,-4935,498
U001,0,-538,-5101,791
U001,0,-863,-5215,688
U001,0,-506,-5230,742
U001,0,-293,-5269,764
U001,0,-520,-5190,874
U001,0,-596,-5099,1144
U001,0,-650,-4956,1278
U001,0,-670,-4669,1356
U001,0,-906,-4759,1547
U001,0,-1332,-5017,1872
U001,0,-1414,-5185,1948
U001,0,-1259,-5052,1303
U001,0,-994,-4728,761
U001,0,-764,-4302,758
U001,0,-727,-4150,818
U001,0,-844,-4130,921
U001,0,-892,-3965,1073
U001,0,-884,-3740,1188
U001,0,-816,-3561,1169
U001,0,-739,-3417,1050
U001,0,-741,-3228,1005
U001,0,-792,-3126,1037
U001,0,-756,-3032,1078
U001,0,-801,-2991,1068
U001,0,-845,-3004,1013
U001,0,-819,-3146,951
U001,0,-835,-3254,862
U001,0,-839,-3312,828
U001,0,-852,-3365,819
U001,0,-840,-3367,846
U001,0,-884,-3290,750
U001,0,-912,-3217,695
U001,0,-909,-3208,702
U001,0,-848,-3246,671
U001,0,-780,-3228,633
U001,0,-744,-3274,630
U001,0,-736,-3318,524
U001,0,-605,-3356,582
U001,0,-558,-3396,619
U001,0,-564,-3436,592
U001,0,-568,-3452,587
U001,0,-564,-3415,620
U001,0,-547,-3402,705
U001,0,-579,-3429,735
U001,0,-644,-3481,698
U001,0,-676,-3511,629
U001,0,-679,-3500,591
U001,0,-611,-3540,434
U001,0,-555,-3576,357
U001,0,-605,-3642,329
U001,0,-614,-3752,385
U001,0,-620,-3752,486
U001,0,-667,-3836,430
U001,0,-632,-3864,446
U001,0,-622,-3856,485
U001,0,-674,-3858,541
U001,0,-754,-3972,466
U001,0,-659,-3918,710
U001,0,-681,-3894,977
U001,0,-724,-4091,993
U001,0,-700,-4246,929
U001,0,-729,-4378,991
U001,0,-785,-4485,1064
U001,0,-756,-4546,1059
U001,0,-634,-4579,941
U001,0,-595,-4610,800
U001,0,-534,-4709,796
U001,0,-504,-4919,927
U001,0,-433,-5181,1103
U001,0,-331,-5401,1346
U001,0,-401,-5229,1374
U001,0,-368,-5151,1545
U001,0,-370,-5087,1727
U001,0,-434,-4950,1816
U001,0,-551,-4660,1931
U001,0,-608,-4355,2047
U001,0,-841,-4083,1772
U001,0,-935,-3873,1616
U001,0,-848,-3790,1739
U001,0,-702,-3841,2126
U001,0,-586,-3853,2523
U001,0,-521,-3897,2693
U001,0,-570,-3928,2564
U001,0,-599,-3991,2483
U001,0,-464,-3954,2189
U001,0,-449,-3815,1903
U001,0,-395,-3651,1687
U001,0,-425,-3481,1572
U001,0,-439,-3416,1471
U001,0,-422,-3211,1401
U001,0,-394,-2911,1329
U001,0,-376,-2911,1257
U001,0,-419,-3001,1354
U001,0,-442,-3022,1459
U001,0,-386,-3020,1312
U001,0,-303,-3007,1157
U001,0,-253,-3000,1133
U001,0,-243,-3033,1144
U001,0,-200,-3090,1123
U001,0,-147,-3109,1127
U001,0,-89,-3110,1141
U001,0,3,-3126,1167
U001,0,-38,-3307,1149
U001,0,-50,-3406,1177
U001,0,-43,-3422,1208
U001,0,-48,-3522,1235
U001,0,-1,-3517,1206
U001,0,48,-3424,1198
U001,0,41,-3384,1170
U001,0,66,-3441,1104
U001,0,51,-3454,960
U001,0,89,-3371,900
U001,0,118,-3339,874
U001,0,116,-3315,803
U001,0,104,-3269,749
U001,0,99,-3231,677
U001,0,77,-3219,662
U001,0,52,-3244,667
U001,0,34,-3220,612
U001,0,42,-3189,533
U001,0,37,-3262,465
U001,0,50,-3371,516
U001,0,122,-3526,733
U001,0,48,-3728,930
U001,0,34,-3926,930
U001,0,173,-3909,852
U001,0,239,-4010,684
U001,0,228,-4110,502
U001,0,120,-4284,406
U001,0,180,-4297,316
U001,0,289,-4354,299
U001,0,299,-4582,262
U001,0,279,-4648,211
U001,0,314,-4696,118
U001,0,324,-4722,-44
U001,0,288,-4735,-115
U001,0,387,-4643,-52
U001,0,325,-4714,360
U001,0,-416,-4946,960
U001,0,-986,-4929,1140
U001,0,-1291,-4830,1414
U001,0,-1169,-5028,1804
U001,0,-992,-5162,1611
U001,0,-843,-4966,1252
U001,0,-456,-4792,1073
U001,0,-254,-4549,1221
U001,0,-337,-4109,1027
U001,0,-393,-3903,992
U001,0,-673,-3953,1378
U001,0,-1081,-4170,1748
U001,0,-1239,-4341,1761
U001,0,-1107,-4425,1398
U001,0,-1001,-4524,1079
U001,0,-978,-4597,1017
U001,0,-919,-4573,1066
U001,0,-977,-4395,1136
U001,0,-1022,-4105,1208
U001,0,-1004,-3828,1277
U001,0,-951,-3599,1269
U001,0,-969,-3455,1341
U001,0,-996,-3355,1438
U001,0,-977,-3417,1404
U001,0,-953,-3604,1267
U001,0,-979,-3674,1130
U001,0,-986,-3727,1059
U001,0,-928,-3778,1039
U001,0,-873,-3687,1002
U001,0,-811,-3556,950
U001,0,-731,-3434,861
U001,0,-760,-3345,849
U001,0,-736,-3271,887
U001,0,-763,-3254,892
U001,0,-806,-3240,912
U001,0,-827,-3268,925
U001,0,-814,-3322,863
U001,0,-711,-3398,803
U001,0,-708,-3501,806
U001,0,-709,-3605,766
U001,0,-684,-3683,775
U001,0,-669,-3693,788
U001,0,-633,-3709,800
U001,0,-626,-3706,807
U001,0,-574,-3694,777
U001,0,-509,-3689,751
U001,0,-433,-3707,730
U001,0,-367,-3740,687
U001,0,-316,-3734,648
U001,0,-327,-3728,635
U001,0,-304,-3706,571
U001,0,-289,-3694,585
U001,0,-303,-3721,580
U001,0,-331,-3706,577
U001,0,-371,-3717,618
U001,0,-395,-3710,674
U001,0,-448,-3711,730
U001,0,-554,-3718,841
U001,0,-566,-3820,906
U001,0,-593,-3862,976
U001,0,-595,-3891,1010
U001,0,-604,-3888,1021
U001,0,-630,-3871,980
U001,0,-637,-3883,944
U001,0,-685,-3887,897
U001,0,-710,-3911,767
U001,0,-667,-3994,632
U001,0,-555,-4138,498
U001,0,-480,-4188,388
U001,0,-532,-4297,461
U001,0,-267,-4414,613
U001,0,123,-4575,990
U001,0,238,-4618,1352
U001,0,139,-4563,1416
U001,0,-8,-4409,1303
U001,0,-193,-4209,1177
U001,0,-201,-4036,1179
U001,0,-254,-3920,1297
U001,0,-371,-3907,1656
U001,0,-340,-3951,2203
U001,0,-304,-4176,2617
U001,0,-597,-4324,2624
U001,0,-895,-4406,2416
U001,0,-1089,-4374,2170
U001,0,-925,-4372,1817
U001,0,-602,-4319,1499
U001,0,-600,-4150,1523
U001,0,-528,-4141,1776
U001,0,-388,-4126,1783
U001,0,-311,-4047,1711
U001,0,-277,-3900,1663
U001,0,-227,-3795,1462
U001,0,-84,-3621,1143
U001,0,27,-3512,1018
U001,0,119,-3536,1062
U001,0,88,-3610,1161
U001,0,24,-3710,1216
U001,0,12,-3777,1109
U001,0,46,-3667,951
U001,0,81,-3523,892
U001,0,110,-3411,854
U001,0,149,-3252,790
U001,0,122,-3232,802
U001,0,150,-3207,786
U001,0,181,-3190,745
U001,0,190,-3220,775
U001,0,218,-3267,802
U001,0,227,-3340,854
U001,0,273,-3405,855
U001,0,318,-3421,813
U001,0,361,-3466,766
U001,0,384,-3508,718
U001,0,401,-3572,653
U001,0,366,-3635,605
U001,0,382,-3696,510
U001,0,398,-3711,419
U001,0,439,-3707,369
U001,0,465,-3652,362
U001,0,442,-3548,343
U001,0,476,-3466,268
U001,0,519,-3389,266
U001,0,581,-3340,302
U001,0,627,-3427,357
U001,0,617,-3619,425
U001,0,673,-3676,504
U001,0,647,-3830,547
U001,0,631,-3986,564
U001,0,595,-4241,577
U001,0,611,-4420,517
U001,0,639,-4498,492
U001,0,565,-4569,473
U001,0,550,-4522,378
U001,0,540,-4645,264
U001,0,542,-4651,164
U001,0,622,-4645,95
U001,0,661,-4721,137
U001,0,534,-4955,441
U001,0,315,-5019,980
U001,0,-91,-4958,1068
U001,0,-101,-4877,849
U001,0,112,-4786,827
U001,0,140,-4862,921
U001,0,21,-4899,908
U001,0,24,-4801,869
U001,0,15,-4564,764
U001,0,-40,-4308,613
U001,0,-113,-4207,551
U001,0,-279,-4146,666
U001,0,-593,-4213,1022
U001,0,-1083,-4516,1599
U001,0,-1317,-4617,1823
U001,0,-1223,-4528,1589
U001,0,-1019,-4305,1122
U001,0,-882,-4207,896
U001,0,-853,-4230,922
U001,0,-865,-4100,920
U001,0,-876,-3928,949
U001,0,-939,-3830,984
U001,0,-1028,-3756,1066
U001,0,-1076,-3664,1135
U001,0,-1102,-3589,1101
U001,0,-1098,-3530,1022
U001,0,-1103,-3465,1027
U001,0,-1087,-3417,1038
U001,0,-1056,-3467,998
U001,0,-986,-3578,997
U001,0,-939,-3686,990
U001,0,-912,-3705,928
U001,0,-908,-3684,835
U001,0,-913,-3609,823
U001,0,-947,-3505,837
U001,0,-990,-3415,906
U001,0,-1003,-3338,920
U001,0,-964,-3277,876
U001,0,-945,-3254,783
U001,0,-934,-3293,732
U001,0,-880,-3349,715
U001,0,-843,-3386,681
U001,0,-802,-3450,669
U001,0,-754,-3456,596
U001,0,-703,-3443,607
U001,0,-687,-3445,614
U001,0,-637,-3457,603
U001,0,-593,-3454,610
U001,0,-589,-3416,636
U001,0,-587,-3419,601
U001,0,-532,-3402,521
U001,0,-518,-3403,477
U001,0,-523,-3448,473
U001,0,-535,-3483,451
U001,0,-516,-3569,454
U001,0,-482,-3706,409
U001,0,-475,-3816,436
U001,0,-485,-3937,502
U001,0,-469,-4022,597
U001,0,-429,-4067,614
U001,0,-443,-4025,464
U001,0,-471,-3968,349
U001,0,-490,-4038,331
U001,0,-528,-4052,309
U001,0,-575,-4031,373
U001,0,-567,-4015,446
U001,0,-544,-4025,566
U001,0,-598,-4056,670
U001,0,-625,-4211,660
U001,0,-664,-4432,536
U001,0,-638,-4605,638
U001,0,-575,-4635,819
U001,0,-489,-4678,898
U001,0,-390,-4726,923
U001,0,-389,-4804,1017
U001,0,-442,-4948,1213
U001,0,-377,-5066,1342
U001,0,-473,-5009,1358
U001,0,-527,-4856,1297
U001,0,-383,-4748,1298
U001,0,-432,-4586,1232
U001,0,-517,-4462,946
U001,0,-608,-4292,811
U001,0,-664,-4013,1003
U001,0,-699,-3859,1059
U001,0,-650,-3734,1273
U001,0,-469,-3782,1827
U001,0,-424,-3858,2480
U001,0,-343,-3952,2761
U001,0,-384,-3904,2717
U001,0,-323,-3909,2382
U001,0,-504,-3905,2231
U001,0,-637,-3903,2017
U001,0,-567,-3787,1538
U001,0,-494,-3683,1348
U001,0,-534,-3647,1498
U001,0,-515,-3743,1690
U001,0,-445,-3704,1752
U001,0,-374,-3536,1662
U001,0,-305,-3517,1467
U001,0,-234,-3550,1341
U001,0,-230,-3605,1362
U001,0,-296,-3736,1436
U001,0,-362,-3878,1393
U001,0,-140,-3574,1215
U001,0,-81,-3231,1228
U001,0,-128,-3205,1243
U001,0,-123,-3205,1139
U001,0,-109,-3183,1064
U001,0,-99,-3065,1073
U001,0,-65,-3015,1068
U001,0,-80,-3111,1054
U001,0,-63,-3157,991
U001,0,-20,-3190,954
U001,0,14,-3211,983
U001,0,46,-3174,1012
U001,0,69,-3193,995
U001,0,122,-3235,952
U001,0,165,-3248,863
U001,0,217,-3247,811
U001,0,241,-3308,774
U001,0,268,-3377,751
U001,0,306,-3410,714
U001,0,373,-3421,644
U001,0,469,-3449,559
U001,0,566,-3472,500
U001,0,654,-3481,462
U001,0,739,-3448,453
U001,0,586,-3609,520
U001,0,533,-3698,508
U001,0,376,-3972,582
U001,0,365,-3954,712
U001,0,402,-3998,802
U001,0,316,-4160,785
U001,0,315,-4466,682
U001,0,302,-4565,777
U001,0,363,-4562,811
U001,0,371,-4666,658
U001,0,277,-4763,448
U001,0,320,-4757,344
U001,0,457,-4689,198
U001,0,495,-4672,86
U001,0,504,-4685,188
U001,0,382,-4795,604
U001,0,89,-4640,997
U001,0,-112,-4804,1119
U001,0,-182,-5052,1034
U001,0,-197,-5167,1049
U001,0,-324,-5054,1066
U001,0,-362,-4937,1185
U001,0,-345,-4796,1124
U001,0,-280,-4410,875
U001,0,-187,-3946,767
U001,0,-254,-3766,1027
U001,0,-626,-3718,1555
U001,0,-1239,-3940,2202
U001,0,-1650,-4224,2241
U001,0,-1509,-4453,1769
U001,0,-1216,-4662,1517
U001,0,-1082,-4710,1335
U001,0,-978,-4739,1237
U001,0,-860,-4499,1131
U001,0,-841,-4106,1188
U001,0,-1010,-3803,1350
U001,0,-1035,-3568,1308
U001,0,-1007,-3302,1214
U001,0,-965,-3172,1249
U001,0,-896,-3146,1331
U001,0,-851,-3151,1290
U001,0,-768,-3191,1221
U001,0,-650,-3288,1096
U001,0,-608,-3368,970
U001,0,-669,-3376,938
U001,0,-721,-3355,900
U001,0,-731,-3327,856
U001,0,-723,-3282,811
U001,0,-591,-3284,776
U001,0,-636,-3327,806
U001,0,-624,-3436,745
U001,0,-552,-3511,662
U001,0,-538,-3546,631
U001,0,-541,-3546,546
U001,0,-507,-3565,534
U001,0,-433,-3532,513
U001,0,-361,-3515,527
U001,0,-259,-3423,477
U001,0,-203,-3324,491
U001,0,-202,-3246,553
U001,0,-256,-3174,612
U001,0,-232,-3181,664
U001,0,-264,-3176,777
U001,0,-327,-3190,850
U001,0,-379,-3235,679
U001,0,-423,-3329,554
U001,0,-543,-3421,552
U001,0,-612,-3518,444
U001,0,-628,-3608,250
U001,0,-685,-3719,178
U001,0,-678,-3845,202
U001,0,-611,-3973,457
U001,0,-522,-4114,798
U001,0,-516,-4230,994
U001,0,-544,-4377,1111
U001,0,-501,-4528,1168
U001,0,-445,-4697,1159
U001,0,-467,-4836,1050
U001,0,-526,-4927,913
U001,0,-544,-4989,842
U001,0,-750,-5004,873
U001,0,-836,-5106,1038
U001,0,-665,-5339,1333
U001,0,-492,-5506,1463
U001,0,-537,-5421,1525
U001,0,-672,-5268,1488
U001,0,-709,-5158,1429
U001,0,-687,-4902,1389
U001,0,-733,-4545,1317
U001,0,-775,-4124,1406
U001,0,-748,-3687,1459
U001,0,-635,-3311,1560
U001,0,-531,-3075,1981
U001,0,-263,-2907,2445
U001,0,-61,-2885,2711
U001,0,-212,-3220,2766
U001,0,-344,-3629,2514
U001,0,-388,-3821,1988
U001,0,-306,-4133,1665
U001,0,-335,-4241,1548
U001,0,-398,-4189,1447
U001,0,-381,-4009,1267
U001,0,-326,-3713,1272
U001,0,-310,-3490,1315
U001,0,-223,-3400,1195
U001,0,-168,-3320,1199
U001,0,-181,-3363,1270
U001,0,-185,-3439,1384
U001,0,-125,-3479,1381
U001,0,-23,-3461,1223
U001,0,33,-3392,1076
U001,0,57,-3401,1006
U001,0,50,-3376,951
U001,0,33,-3373,887
U001,0,49,-3389,807
U001,0,15,-3392,816
U001,0,-22,-3367,867
U001,0,2,-3355,884
U001,0,65,-3354,884
U001,0,104,-3309,879
U001,0,118,-3314,888
U001,0,119,-3292,846
U001,0,127,-3286,692
U001,0,150,-3250,521
U001,0,183,-3212,433
U001,0,194,-3216,374
U001,0,184,-3203,341
U001,0,222,-3173,306
U001,0,231,-3138,260
U001,0,282,-3075,192
U001,0,361,-3074,121
U001,0,394,-3104,69
U001,0,384,-3222,116
U001,0,268,-3543,224
U001,0,152,-3657,365
U001,0,53,-3868,488
U001,0,86,-4162,425
U001,0,117,-4365,424
U001,0,257,-4485,506
U001,0,374,-4718,479
U001,0,339,-4936,444
U001,0,398,-5054,331
U001,0,491,-5171,113
U001,0,721,-5185,-6
U001,0,788,-5126,-87
U001,0,779,-5066,-18
U001,0,373,-5163,360
U001,0,-390,-5291,879
U001,0,-1045,-5465,1206
U001,0,-874,-5376,1304
U001,0,-443,-5253,1196
U001,0,-546,-5379,1153
U001,0,-593,-5168,1052
U001,0,-444,-5043,1088
U001,0,-327,-4631,1117
U001,0,-185,-4284,951
U001,0,-286,-4202,1040
U001,0,-828,-4348,1516
U001,0,-1352,-4494,1797
U001,0,-1440,-4512,1473
U001,0,-1269,-4443,1059
U001,0,-1168,-4365,908
U001,0,-1102,-4325,817
U001,0,-1063,-4166,801
U001,0,-1056,-4027,861
U001,0,-1072,-3862,930
U001,0,-972,-3578,906
U001,0,-899,-3414,935
U001,0,-888,-3271,960
U001,0,-854,-3142,961
U001,0,-788,-3091,1006
U001,0,-753,-3119,956
U001,0,-731,-3233,949
U001,0,-660,-3380,927
U001,0,-648,-3438,874
U001,0,-713,-3415,870
U001,0,-748,-3347,839
U001,0,-732,-3281,751
U001,0,-690,-3238,727
U001,0,-653,-3179,752
U001,0,-654,-3162,685
U001,0,-628,-3192,672
U001,0,-584,-3255,622
U001,0,-564,-3308,599
U001,0,-606,-3358,540
U001,0,-561,-3391,552
U001,0,-468,-3406,570
U001,0,-468,-3396,544
U001,0,-435,-3354,503
U001,0,-433,-3289,494
U001,0,-435,-3281,549
U001,0,-432,-3372,603
U001,0,-427,-3458,598
U001,0,-406,-3494,537
U001,0,-371,-3543,502
U001,0,-375,-3512,509
U001,0,-409,-3563,426
U001,0,-461,-3561,450
U001,0,-546,-3634,364
U001,0,-567,-3640,241
U001,0,-624,-3704,220
U001,0,-649,-3771,339
U001,0,-583,-3843,568
U001,0,-552,-3879,735
U001,0,-611,-4047,837
U001,0,-674,-4199,941
U001,0,-558,-4348,1128
U001,0,-481,-4443,1168
U001,0,-431,-4562,1121
U001,0,-413,-4636,1125
U001,0,-515,-4678,1028
U001,0,-468,-4787,1091
U001,0,-485,-5094,1382
U001,0,-320,-5443,1690
U001,0,-107,-5737,2096
U001,0,-313,-5818,2345
U001,0,-423,-5792,2042
U001,0,-576,-5596,1780
U001,0,-874,-5076,1982
U001,0,-948,-4483,1947
U001,0,-994,-3884,1603
U001,0,-925,-3395,1404
U001,0,-841,-2984,1289
U001,0,-770,-2728,1518
U001,0,-803,-2605,1969
U001,0,-902,-2859,2747
U001,0,-833,-3233,3062
U001,0,-847,-3704,2903
U001,0,-917,-4120,2381
U001,0,-861,-4343,2022
U001,0,-918,-4186,1721
U001,0,-929,-3901,1606
U001,0,-816,-3637,1532
U001,0,-711,-3420,1327
U001,0,-662,-3428,1263
U001,0,-637,-3510,1268
U001,0,-526,-3391,1253
U001,0,-433,-3330,1274
U001,0,-354,-3242,1254
U001,0,-273,-3306,1164
U001,0,-171,-3290,1099
U001,0,-88,-3206,1077
U001,0,-93,-3274,1075
U001,0,-116,-3288,1091
U001,0,-74,-3304,1022
U001,0,-59,-3285,1006
U001,0,-50,-3233,1026
U001,0,-63,-3265,1090
U001,0,-237,-3425,1096
U001,0,-224,-3380,1070
U001,0,-124,-3221,917
U001,0,-115,-3157,767
U001,0,-74,-3058,572
U001,0,-49,-2946,435
U001,0,-27,-2977,383
U001,0,30,-3001,310
U001,0,87,-3038,282
U001,0,90,-3113,305
U001,0,58,-3260,334
U001,0,63,-3402,366
U001,0,98,-3499,377
U001,0,187,-3519,333
U001,0,282,-3612,257
U001,0,311,-3759,226
U001,0,327,-3889,312
U001,0,384,-3978,524
U001,0,353,-4036,627
U001,0,342,-4279,612
U001,0,307,-4804,460
U001,0,367,-4834,331
U001,0,344,-4815,237
U001,0,383,-4766,134
U001,0,360,-4817,96
U001,0,211,-4899,-72
U001,0,164,-4871,-276
U001,0,231,-4756,-340
U001,0,381,-4658,-217
U001,0,168,-4716,408
U001,0,-658,-4796,1164
U001,0,-1185,-4931,1308
U001,0,-1150,-5331,1324
U001,0,-832,-5154,1451
U001,0,-966,-4823,1457
U001,0,-837,-4925,1146
U001,0,-304,-4614,1072
U001,0,-234,-4067,1108
U001,0,-214,-3767,794
U001,0,-328,-3833,979
U001,0,-886,-4081,1552
U001,0,-1327,-4521,1837
U001,0,-1297,-4848,1541
U001,0,-1157,-4948,1287
U001,0,-1071,-4981,1146
U001,0,-1063,-4847,1177
U001,0,-1045,-4532,1255
U001,0,-884,-4133,1185
U001,0,-769,-3878,1155
U001,0,-707,-3678,1155
U001,0,-688,-3543,1229
U001,0,-702,-3425,1314
U001,0,-749,-3359,1306
U001,0,-738,-3420,1207
U001,0,-650,-3475,1091
U001,0,-648,-3499,960
U001,0,-658,-3455,906
U001,0,-617,-3334,878
U001,0,-622,-3188,811
U001,0,-684,-3114,775
U001,0,-654,-3060,728
U001,0,-575,-3037,702
U001,0,-548,-3079,669
U001,0,-473,-3128,557
U001,0,-364,-3197,636
U001,0,-393,-3212,769
U001,0,-463,-3235,823
U001,0,-502,-3266,816
U001,0,-425,-3248,773
U001,0,-350,-3272,759
U001,0,-326,-3306,768
U001,0,-279,-3297,727
U001,0,-250,-3333,723
U001,0,-231,-3379,687
U001,0,-223,-3426,627
U001,0,-197,-3448,496
U001,0,-185,-3445,405
U001,0,-229,-3421,430
U001,0,-287,-3388,414
U001,0,-391,-3448,337
U001,0,-442,-3536,328
U001,0,-542,-3629,440
U001,0,-515,-3786,661
U001,0,-568,-3889,889
U001,0,-694,-4009,900
U001,0,-710,-4009,925
U001,0,-648,-4135,947
U001,0,-643,-4315,970
U001,0,-713,-4596,813
U001,0,-672,-4793,733
U001,0,-563,-4901,866
U001,0,-493,-4997,1038
U001,0,-413,-5089,1253
U001,0,-458,-5188,1490
U001,0,-232,-5407,1772
U001,0,-14,-5799,2092
U001,0,-295,-5645,2296
U001,0,-508,-5489,2234
U001,0,-617,-5342,2238
U001,0,-804,-4947,2289
U001,0,-926,-4344,1980
U001,0,-868,-3833,1469
U001,0,-644,-3364,1244
U001,0,-544,-2921,1300
U001,0,-557,-2357,1589
U001,0,-726,-2176,2373
U001,0,-611,-2565,3009
U001,0,-451,-3078,3135
U001,0,-535,-3659,2840
U001,0,-608,-4308,2293
U001,0,-524,-4572,1966
U001,0,-533,-4586,1810
U001,0,-520,-4442,1637
U001,0,-434,-4028,1614
U001,0,-445,-3833,1496
U001,0,-471,-3802,1436
U001,0,-411,-3622,1410
U001,0,-291,-3545,1431
U001,0,-103,-3362,1378
U001,0,-24,-3227,1366
U001,0,54,-3169,1173
U001,0,198,-3099,929
U001,0,245,-3000,878
U001,0,230,-2907,828
U001,0,106,-2922,761
U001,0,80,-2867,712
U001,0,6,-2844,691
U001,0,55,-2807,737
U001,0,76,-2843,759
U001,0,74,-2884,791
U001,0,49,-2922,794
U001,0,87,-2940,757
U001,0,79,-2944,731
U001,0,109,-3002,657
U001,0,121,-3094,531
U001,0,96,-3171,426
U001,0,77,-3240,346
U001,0,98,-3296,286
U001,0,128,-3322,271
U001,0,195,-3347,291
U001,0,270,-3344,299
U001,0,291,-3371,340
U001,0,275,-3520,404
U001,0,147,-3675,533
U001,0,100,-3826,669
U001,0,-30,-4159,745
U001,0,68,-4289,690
U001,0,307,-4438,517
U001,0,437,-4588,368
U001,0,439,-4808,162
U001,0,385,-5175,54
U001,0,479,-5303,35
U001,0,532,-5358,71
U001,0,529,-5338,4
U001,0,565,-5225,-109
U001,0,608,-5158,178
U001,0,71,-5175,814
U001,0,-598,-5359,1084
U001,0,-876,-5520,1066
U001,0,-674,-5636,966
U001,0,-693,-5418,1014
U001,0,-760,-5072,1170
U001,0,-698,-4659,1184
U001,0,-491,-4305,1015
U001,0,-423,-3972,1109
U001,0,-602,-3863,1383
U001,0,-1088,-4001,1839
U001,0,-1412,-4265,1960
U001,0,-1222,-4523,1599
U001,0,-948,-4636,1284
U001,0,-908,-4794,1291
U001,0,-942,-4801,1336
U001,0,-884,-4598,1313
U001,0,-820,-4296,1341
U001,0,-773,-3983,1330
U001,0,-767,-3663,1270
U001,0,-797,-3421,1284
U001,0,-802,-3251,1276
U001,0,-805,-3235,1237
U001,0,-821,-3277,1130
U001,0,-801,-3220,1026
U001,0,-773,-3241,1015
U001,0,-780,-3264,1032
U001,0,-834,-3216,988
U001,0,-833,-3107,851
U001,0,-826,-3008,796
U001,0,-796,-2991,799
U001,0,-816,-2978,778
U001,0,-749,-3025,744
U001,0,-713,-2984,666
U001,0,-650,-3034,693
U001,0,-578,-3070,674
U001,0,-545,-3143,711
U001,0,-542,-3215,739
U001,0,-505,-3252,751
U001,0,-439,-3277,741
U001,0,-424,-3244,675
U001,0,-403,-3269,660
U001,0,-396,-3358,684
U001,0,-351,-3423,658
U001,0,-313,-3472,660
U001,0,-312,-3536,664
U001,0,-317,-3528,635
U001,0,-324,-3533,560
U001,0,-426,-3618,474
U001,0,-530,-3705,407
U001,0,-650,-3703,413
U001,0,-802,-3671,353
U001,0,-886,-3615,320
U001,0,-821,-3611,416
U001,0,-705,-3764,657
U001,0,-660,-3940,932
U001,0,-573,-4163,1170
U001,0,-603,-4384,1214
U001,0,-630,-4668,1133
U001,0,-624,-4851,1105
U001,0,-594,-5026,1025
U001,0,-562,-5091,972
U001,0,-696,-5076,915
U001,0,-716,-5184,940
U001,0,-523,-5224,1261
U001,0,-224,-5423,1473
U001,0,-356,-5531,1410
U001,0,-411,-5456,1494
U001,0,-422,-5320,1638
U001,0,-423,-5071,1665
U001,0,-480,-4569,1803
U001,0,-547,-4096,1751
U001,0,-570,-3681,1435
U001,0,-520,-3208,1418
U001,0,-567,-2816,1589
U001,0,-571,-2488,1979
U001,0,-706,-2528,2544
U001,0,-764,-2949,2852
U001,0,-740,-3539,2627
U001,0,-790,-4106,2307
U001,0,-837,-4420,2108
U001,0,-811,-4356,2002
U001,0,-768,-4303,1823
U001,0,-714,-4118,1762
U001,0,-686,-3863,1602
U001,0,-600,-3747,1458
U001,0,-610,-3812,1434
U001,0,-537,-3818,1393
U001,0,-470,-3608,1378
U001,0,-326,-3430,1311
U001,0,-227,-3266,1277
U001,0,-83,-3055,1214
U001,0,12,-3115,1040
U001,0,38,-3114,970
U001,0,92,-3079,953
U001,0,13,-3096,874
U001,0,-4,-3117,815
U001,0,19,-3106,788
U001,0,17,-3084,825
U001,0,-31,-3162,890
U001,0,12,-3143,929
U001,0,42,-3117,881
U001,0,66,-3072,831
U001,0,105,-3109,687
U001,0,130,-3066,438
U001,0,131,-3019,258
U001,0,119,-3068,128
U001,0,113,-3100,76
U001,0,125,-3140,43
U001,0,183,-3206,17
U001,0,259,-3255,91
U001,0,310,-3300,139
U001,0,340,-3344,179
U001,0,360,-3463,223
U001,0,344,-3653,338
U001,0,347,-3674,470
U001,0,167,-4185,553
U001,0,23,-4495,745
U001,0,34,-4551,764
U001,0,151,-4449,705
U001,0,240,-4635,553
U001,0,233,-4884,548
U001,0,309,-5066,448
U001,0,450,-5180,239
U001,0,525,-5320,194
U001,0,352,-5508,553
U001,0,-132,-5584,1053
U001,0,-486,-5772,1143
U001,0,-235,-5881,866
U001,0,26,-5628,708
U001,0,-252,-5470,852
U001,0,-359,-5286,947
U001,0,-226,-5046,853
U001,0,-150,-4686,758
U001,0,-147,-4463,828
U001,0,-426,-4325,1276
U001,0,-999,-4292,2005
U001,0,-1418,-4350,2147
U001,0,-1439,-4349,1569
U001,0,-1211,-4291,1078
U001,0,-1075,-4313,958
U001,0,-1088,-4403,1025
U001,0,-1112,-4405,1163
U001,0,-969,-4195,1225
U001,0,-848,-4002,1278
U001,0,-876,-3839,1360
U001,0,-877,-3567,1338
U001,0,-820,-3263,1225
U001,0,-866,-3065,1219
U001,0,-918,-2927,1179
U001,0,-931,-2844,1190
U001,0,-926,-2904,1188
U001,0,-938,-2908,1124
U001,0,-930,-2939,973
U001,0,-952,-3041,919
U001,0,-936,-3067,904
U001,0,-923,-3083,901
U001,0,-905,-3087,873
U001,0,-811,-3053,888
U001,0,-776,-3057,882
U001,0,-754,-3047,859
U001,0,-766,-3072,891
U001,0,-742,-3078,825
U001,0,-737,-3122,804
U001,0,-757,-3120,804
U001,0,-744,-3145,794
U001,0,-693,-3179,783
U001,0,-674,-3196,811
U001,0,-624,-3252,804
U001,0,-578,-3291,834
U001,0,-560,-3312,825
U001,0,-508,-3326,736
U001,0,-496,-3414,713
U001,0,-535,-3465,722
U001,0,-552,-3509,666
U001,0,-556,-3592,695
U001,0,-628,-3680,667
U001,0,-683,-3704,587
U001,0,-730,-3760,606
U001,0,-832,-3719,741
U001,0,-928,-3825,672
U001,0,-802,-3877,920
U001,0,-764,-3955,1147
U001,0,-688,-4151,1361
U001,0,-643,-4411,1488
U001,0,-653,-4597,1497
U001,0,-612,-4713,1503
U001,0,-529,-4785,1394
U001,0,-506,-4817,1198
U001,0,-677,-4854,1077
U001,0,-876,-4936,1149
U001,0,-609,-5026,1295
U001,0,-464,-5281,1509
U001,0,-544,-5419,1799
U001,0,-659,-5331,1875
U001,0,-573,-5131,2061
U001,0,-480,-4837,2323
U001,0,-636,-4393,2319
U001,0,-699,-3997,1910
U001,0,-632,-3596,1576
U001,0,-589,-3160,1460
U001,0,-671,-2679,1593
U001,0,-944,-2367,2039
U001,0,-921,-2613,2471
U001,0,-700,-2874,2567
U001,0,-549,-3235,2467
U001,0,-447,-3834,2495
U001,0,-492,-4284,2409
U001,0,-462,-4530,2149
U001,0,-391,-4545,1869
U001,0,-370,-4288,1624
U001,0,-372,-4013,1387
U001,0,-511,-3944,1275
U001,0,-513,-3973,1206
U001,0,-425,-3740,1268
U001,0,-281,-3583,1366
U001,0,-112,-3539,1446
U001,0,51,-3448,1347
U001,0,198,-3334,1251
U001,0,318,-3253,1176
U001,0,392,-3150,1090
U001,0,229,-3054,937
U001,0,87,-2895,873
U001,0,1,-2832,837
U001,0,6,-2841,870
U001,0,-14,-2929,925
U001,0,-102,-3010,948
U001,0,-52,-2915,964
U001,0,-35,-2983,910
U001,0,-88,-3069,863
U001,0,-75,-3085,873
U001,0,-32,-3193,834
U001,0,-39,-3258,769
U001,0,-37,-3309,662
U001,0,-5,-3317,637
U001,0,9,-3331,627
U001,0,35,-3369,595
U001,0,-8,-3416,590
U001,0,-48,-3534,557
U001,0,-31,-3617,474
U001,0,-18,-3723,391
U001,0,32,-3875,294
U001,0,108,-4065,264
U001,0,130,-4152,328
U001,0,202,-4207,481
U001,0,329,-4231,593
U001,0,344,-4231,652
U001,0,282,-4155,624
U001,0,292,-4117,600
U001,0,325,-4103,538
U001,0,421,-4300,377
U001,0,481,-4480,239
U001,0,484,-4622,187
U001,0,303,-4973,268
U001,0,-24,-5090,538
U001,0,-413,-4865,913
U001,0,-848,-4790,1264
U001,0,-1092,-5095,1580
U001,0,-905,-5509,1529
U001,0,-631,-5408,1481
U001,0,-606,-5116,1515
U001,0,-647,-4933,1391
U001,0,-535,-4667,1210
U001,0,-623,-4392,1353
U001,0,-893,-4259,1668
U001,0,-909,-4118,1500
U001,0,-725,-4036,1120
U001,0,-703,-3981,904
U001,0,-893,-3963,1001
U001,0,-928,-4046,1115
U001,0,-816,-4118,1149
U001,0,-807,-4058,1290
U001,0,-858,-3990,1476
U001,0,-815,-3782,1492
U001,0,-863,-3579,1418
U001,0,-895,-3415,1321
U001,0,-961,-3320,1328
U001,0,-1014,-3301,1342
U001,0,-1020,-3435,1207
U001,0,-1069,-3497,1108
U001,0,-1081,-3480,1130
U001,0,-1001,-3492,1092
U001,0,-972,-3420,985
U001,0,-987,-3306,944
U001,0,-1038,-3206,922
U001,0,-1001,-3191,878
U001,0,-965,-3195,846
U001,0,-903,-3197,832
U001,0,-839,-3219,799
U001,0,-778,-3244,738
U001,0,-737,-3293,751
U001,0,-747,-3313,771
U001,0,-671,-3315,764
U001,0,-674,-3359,729
U001,0,-638,-3347,635
U001,0,-607,-3375,640
U001,0,-581,-3389,666
U001,0,-568,-3401,641
U001,0,-537,-3470,601
U001,0,-493,-3487,564
U001,0,-447,-3504,586
U001,0,-416,-3573,549
U001,0,-340,-3665,596
U001,0,-357,-3730,506
U001,0,-378,-3762,472
U001,0,-407,-3818,491
U001,0,-516,-3815,518
U001,0,-627,-3872,491
U001,0,-689,-3916,484
U001,0,-801,-3860,468
U001,0,-868,-3867,611
U001,0,-811,-3931,774
U001,0,-729,-3960,887
U001,0,-655,-4030,1038
U001,0,-556,-4135,1159
U001,0,-438,-4335,1228
U001,0,-395,-4447,1245
U001,0,-352,-4528,1164
U001,0,-390,-4623,931
U001,0,-485,-4684,671
U001,0,-838,-4653,532
U001,0,-1133,-4595,593
U001,0,-246,-4605,1419
U001,0,437,-4921,2704
U001,0,157,-5288,2888
U001,0,-347,-5119,2704
U001,0,-602,-4717,2548
U001,0,-548,-4543,2203
U001,0,-712,-4231,2293
U001,0,-899,-3776,2187
U001,0,-902,-3429,1951
U001,0,-1088,-2807,1624
U001,0,-1258,-2508,1731
U001,0,-1162,-2740,2300
U001,0,-846,-3109,2725
U001,0,-464,-3386,3246
U001,0,-140,-4110,3727
U001,0,-375,-5123,3478
U001,0,-737,-5518,2729
U001,0,-944,-5432,2013
U001,0,-796,-4918,1463
U001,0,-528,-4490,1355
U001,0,-654,-4201,1503
U001,0,-677,-3852,1427
U001,0,-547,-3547,1386
U001,0,-417,-3296,1363
U001,0,-209,-3108,1414
U001,0,-5,-2957,1326
U001,0,17,-3081,1142
U001,0,28,-3066,947
U001,0,136,-3014,846
U001,0,130,-3041,799
U001,0,128,-3063,836
U001,0,126,-3076,873
U001,0,-38,-3145,842
U001,0,-41,-3053,897
U001,0,-5,-3051,892
U001,0,17,-3049,869
U001,0,78,-3040,809
U001,0,179,-3017,716
U001,0,207,-2999,622
U001,0,222,-3025,553
U001,0,208,-3035,488
U001,0,216,-3054,467
U001,0,175,-3031,445
U001,0,138,-3011,449
U001,0,173,-2975,464
U001,0,225,-2931,515
U001,0,307,-2855,588
U001,0,389,-2856,624
U001,0,458,-2950,705
U001,0,399,-3185,817
U001,0,322,-3429,955
U001,0,288,-3626,1063
U001,0,167,-3821,1047
U001,0,78,-4126,839
U001,0,19,-4511,634
U001,0,-11,-4758,519
U001,0,78,-4804,457
U001,0,184,-4759,383
U001,0,297,-4739,287
U001,0,399,-4814,213
U001,0,678,-4859,128
U001,0,985,-4982,521
U001,0,715,-5249,1094
U001,0,287,-5336,1522
U001,0,-385,-5514,1540
U001,0,-951,-5631,1411
U001,0,-882,-5474,1495
U001,0,-725,-5320,1557
U001,0,-536,-5165,1543
U001,0,-281,-4792,1298
U001,0,-204,-4481,1361
U001,0,-314,-4210,1412
U001,0,-563,-4048,1734
U001,0,-762,-4090,2026
U001,0,-885,-4117,1823
U001,0,-724,-4205,1457
U001,0,-796,-4285,1349
U001,0,-1004,-4316,1368
U001,0,-1125,-4272,1396
U001,0,-1093,-4117,1332
U001,0,-1101,-3973,1357
U001,0,-1122,-3791,1522
U001,0,-1087,-3526,1599
U001,0,-989,-3296,1537
U001,0,-939,-3137,1532
U001,0,-938,-3047,1551
U001,0,-949,-3114,1462
U001,0,-1011,-3219,1291
U001,0,-1058,-3276,1205
U001,0,-1077,-3335,1205
U001,0,-1136,-3401,1128
U001,0,-1143,-3376,987
U001,0,-1100,-3368,927
U001,0,-974,-3290,920
U001,0,-964,-3308,938
U001,0,-904,-3304,916
U001,0,-824,-3324,871
U001,0,-820,-3421,782
U001,0,-813,-3444,746
U001,0,-720,-3455,814
U001,0,-705,-3500,859
U001,0,-678,-3508,852
U001,0,-651,-3497,834
U001,0,-595,-3487,812
U001,0,-514,-3497,803
U001,0,-463,-3505,780
U001,0,-411,-3471,794
U001,0,-359,-3450,783
U001,0,-329,-3433,700
U001,0,-329,-3399,626
U001,0,-318,-3350,531
U001,0,-321,-3324,395
U001,0,-280,-3343,348
U001,0,-264,-3402,483
U001,0,-260,-3536,473
U001,0,-272,-3662,581
U001,0,-427,-3640,659
U001,0,-446,-3782,642
U001,0,-548,-3961,754
U001,0,-570,-4052,820
U001,0,-529,-4116,901
U001,0,-594,-4180,1028
U001,0,-630,-4328,1097
U001,0,-584,-4462,1163
U001,0,-453,-4632,1186
U001,0,-372,-4801,1153
U001,0,-340,-4891,1080
U001,0,-397,-4836,935
U001,0,-548,-4726,792
U001,0,-680,-4594,729
U001,0,-536,-4619,826
U001,0,-144,-4792,1191
U001,0,234,-4934,1516
U001,0,79,-5052,1759
U001,0,-268,-4968,1815
U001,0,-516,-4759,1683
U001,0,-538,-4466,1531
U001,0,-581,-4081,1518
U001,0,-600,-3673,1631
U001,0,-561,-3454,1811
U001,0,-504,-3170,2165
U001,0,-418,-2995,2571
U001,0,-335,-3001,2976
U001,0,-704,-3486,3381
U001,0,-1100,-3816,3057
U001,0,-1161,-4192,2325
U001,0,-1020,-4310,1893
U001,0,-914,-4375,1931
U001,0,-805,-4617,2116
U001,0,-693,-4720,1993
U001,0,-596,-4606,1808
U001,0,-425,-4186,1598
U001,0,-349,-3864,1503
U001,0,-382,-3677,1413
U001,0,-414,-3575,1529
U001,0,-495,-3548,1731
U001,0,-410,-3441,1432
U001,0,-253,-3348,1071
U001,0,-87,-3175,888
U001,0,-77,-3118,834
U001,0,-64,-3063,775
U001,0,-45,-2979,606
U001,0,-29,-2847,477
U001,0,-2,-2746,400
U001,0,27,-2662,402
U001,0,-2,-2677,388
U001,0,23,-2688,392
U001,0,35,-2710,404
U001,0,83,-2747,418
U001,0,118,-2823,479
U001,0,178,-2897,496
U001,0,235,-3036,506
U001,0,301,-3171,461
U001,0,370,-3274,421
U001,0,413,-3335,401
U001,0,510,-3389,365
U001,0,690,-3414,184
U001,0,964,-3420,20
U001,0,1049,-3527,-83
U001,0,1163,-3511,-71
U001,0,1149,-3625,4
U001,0,1014,-4084,67
U001,0,902,-4248,219
U001,0,916,-4335,398
U001,0,883,-4610,522
U001,0,650,-5023,533
U001,0,628,-5070,649
U001,0,553,-5042,706
U001,0,442,-5025,446
U001,0,551,-5104,221
U001,0,762,-5286,121
U001,0,761,-5321,494
U001,0,419,-5601,1030
U001,0,-119,-5583,1307
U001,0,-206,-5507,1241
U001,0,-51,-5451,1369
U001,0,-335,-5353,1576
U001,0,-438,-5048,1269
U001,0,-135,-4976,926
U001,0,85,-4655,826
U001,0,198,-4301,471
U001,0,262,-4084,342
U001,0,8,-4026,924
U001,0,-621,-4088,1747
U001,0,-1303,-4266,2248
U001,0,-1361,-4378,1974
U001,0,-1154,-4404,1393
U001,0,-1122,-4413,1159
U001,0,-1146,-4381,1129
U001,0,-1209,-4220,1154
U001,0,-1254,-4034,1150
U001,0,-1265,-3787,1140
U001,0,-1182,-3654,1193
U001,0,-1101,-3537,1249
U001,0,-1097,-3567,1289
U001,0,-1024,-3500,1252
U001,0,-945,-3383,1178
U001,0,-954,-3392,1098
U001,0,-935,-3548,1020
U001,0,-849,-3594,936
U001,0,-754,-3588,860
U001,0,-683,-3525,792
U001,0,-628,-3482,791
U001,0,-647,-3357,768
U001,0,-676,-3259,705
U001,0,-624,-3167,684
U001,0,-630,-3106,699
U001,0,-609,-3088,721
U001,0,-540,-3128,697
U001,0,-473,-3128,591
U001,0,-441,-3173,562
U001,0,-415,-3255,533
U001,0,-407,-3268,551
U001,0,-415,-3264,631
U001,0,-343,-3290,640
U001,0,-269,-3328,645
U001,0,-212,-3356,633
U001,0,-224,-3341,583
U001,0,-220,-3310,532
U001,0,-200,-3283,448
U001,0,-208,-3240,340
U001,0,-186,-3217,198
U001,0,-206,-3223,115
U001,0,-220,-3258,-29
U001,0,-225,-3334,-149
U001,0,-210,-3398,-187
U001,0,-242,-3516,-160
U001,0,-295,-3621,-61
U001,0,-250,-3821,116
U001,0,-194,-3973,374
U001,0,-167,-4178,511
U001,0,-169,-4311,614
U001,0,-300,-4563,737
U001,0,-467,-4811,667
U001,0,-529,-5013,732
U001,0,-623,-5206,794
U001,0,-666,-5207,738
U001,0,-734,-5131,526
U001,0,-878,-5070,355
U001,0,-710,-4974,590
U001,0,-248,-5059,1091
U001,0,157,-5319,1456
U001,0,70,-5359,1568
U001,0,-348,-5229,1569
U001,0,-506,-5019,1719
U001,0,-618,-4832,1668
U001,0,-762,-4666,1392
U001,0,-974,-4256,1570
U001,0,-951,-3952,1973
U001,0,-616,-3928,2398
U001,0,-374,-3935,3063
U001,0,-233,-4095,3460
U001,0,-516,-4446,3502
U001,0,-967,-4754,3044
U001,0,-950,-4457,2191
U001,0,-665,-4169,1686
U001,0,-522,-4237,1830
U001,0,-507,-4392,1927
U001,0,-409,-4267,1739
U001,0,-370,-3922,1710
U001,0,-373,-3579,1626
U001,0,-243,-3349,1354
U001,0,-137,-3197,1120
U001,0,-113,-3086,1070
U001,0,-98,-3129,1095
U001,0,-75,-3197,1067
U001,0,100,-3087,938
U001,0,179,-2983,950
U001,0,222,-2977,926
U001,0,134,-3023,826
U001,0,100,-2992,699
U001,0,117,-2950,631
U001,0,73,-2946,582
U001,0,41,-2920,584
U001,0,59,-2922,583
U001,0,92,-2928,584
U001,0,127,-2998,664
U001,0,194,-3018,686
U001,0,220,-3024,707
U001,0,240,-3050,738
U001,0,245,-3067,726
U001,0,233,-3092,574
U001,0,235,-3127,474
U001,0,211,-3164,408
U001,0,224,-3186,335
U001,0,233,-3186,297
U001,0,269,-3230,238
U001,0,331,-3278,210
U001,0,406,-3261,178
U001,0,546,-3209,132
U001,0,653,-3179,144
U001,0,231,-3800,429
U001,0,-122,-4095,603
U001,0,2,-4174,576
U001,0,175,-4524,590
U001,0,278,-4894,602
U001,0,393,-5136,670
U001,0,441,-5368,662
U001,0,481,-5496,625
U001,0,486,-5633,646
U001,0,340,-5766,669
U001,0,72,-5870,770
U001,0,-101,-6019,835
U001,0,22,-5856,710
U001,0,64,-5659,647
U001,0,-96,-5401,702
U001,0,-226,-5226,1012
U001,0,-527,-5194,1372
U001,0,-950,-5304,1747
U001,0,-1102,-5346,1805
U001,0,-926,-5265,1581
U001,0,-544,-4953,1240
U001,0,-568,-4485,1168
U001,0,-745,-4008,1125
U001,0,-904,-3721,1229
U001,0,-963,-3545,1331
U001,0,-1048,-3462,1377
U001,0,-1094,-3481,1380
U001,0,-1040,-3522,1341
U001,0,-992,-3524,1290
U001,0,-972,-3350,1172
U001,0,-1031,-3319,1152
U001,0,-995,-3178,987
U001,0,-948,-3056,838
U001,0,-913,-2950,848
U001,0,-902,-2934,957
U001,0,-881,-2966,1017
U001,0,-860,-3068,1055
U001,0,-799,-3175,1097
U001,0,-776,-3260,1033
U001,0,-789,-3298,931
U001,0,-850,-3251,805
U001,0,-864,-3300,755
U001,0,-891,-3291,770
U001,0,-836,-3280,795
U001,0,-747,-3339,796
U001,0,-692,-3330,803
U001,0,-664,-3288,802
U001,0,-642,-3262,848
U001,0,-655,-3271,886
U001,0,-660,-3217,781
U001,0,-575,-3255,789
U001,0,-506,-3259,736
U001,0,-460,-3256,721
U001,0,-409,-3275,713
U001,0,-366,-3297,644
U001,0,-338,-3334,606
U001,0,-307,-3369,553
U001,0,-294,-3408,455
U001,0,-337,-3399,418
U001,0,-406,-3337,445
U001,0,-488,-3400,402
U001,0,-636,-3540,348
U001,0,-755,-3622,466
U001,0,-1001,-3712,447
U001,0,-1063,-3788,499
U001,0,-902,-3976,706
U001,0,-816,-4107,806
U001,0,-757,-4098,1027
U001,0,-803,-4322,1084
U001,0,-905,-4557,1094
U001,0,-893,-4775,1070
U001,0,-712,-4847,1105
U001,0,-466,-4987,938
U001,0,-443,-5103,746
U001,0,-520,-5180,748
U001,0,-441,-5366,815
U001,0,-193,-5658,1167
U001,0,72,-5868,1716
U001,0,-207,-5855,1950
U001,0,-521,-5636,1773
U001,0,-639,-5328,2017
U001,0,-769,-4973,2461
U001,0,-940,-4603,2319
U001,0,-915,-4091,1697
U001,0,-790,-3769,1306
U001,0,-722,-3178,1187
U001,0,-665,-2653,1433
U001,0,-566,-2390,1626
U001,0,-558,-2549,2246
U001,0,-502,-2900,2684
U001,0,-488,-3024,2716
U001,0,-560,-3533,2466
U001,0,-511,-4103,2091
U001,0,-386,-4235,1773
U001,0,-368,-4206,1394
U001,0,-397,-4036,1192
U001,0,-437,-3913,1139
U001,0,-400,-3817,1277
U001,0,-417,-3793,1403
U001,0,-402,-3857,1522
U001,0,-284,-3742,1577
U001,0,-28,-3647,1395
U001,0,98,-3596,1317
U001,0,100,-3508,1249
U001,0,145,-3344,1068
U001,0,163,-3289,954
U001,0,159,-3255,870
U001,0,137,-3213,813
U001,0,105,-3132,727
U001,0,84,-3093,710
U001,0,101,-3035,713
U001,0,121,-2951,734
U001,0,102,-2954,726
U001,0,154,-2944,688
U001,0,209,-2882,632
U001,0,236,-2873,523
U001,0,272,-2853,456
U001,0,286,-2890,420
U001,0,270,-2924,357
U001,0,272,-2927,263
U001,0,300,-2903,228
U001,0,359,-2897,170
U001,0,462,-2831,43
U001,0,575,-2814,-81
U001,0,760,-2766,-120
U001,0,515,-3413,-60
U001,0,255,-3967,100
U001,0,221,-4374,436
U001,0,170,-4704,689
U001,0,266,-4839,721
U001,0,426,-5275,512
U001,0,354,-5512,376
U001,0,389,-5508,192
U001,0,608,-5510,-64
U001,0,785,-5366,-341
U001,0,933,-5306,-471
U001,0,792,-5325,-87
U001,0,119,-5365,691
U001,0,-713,-5670,1048
U001,0,-931,-5793,1304
U001,0,-943,-5472,1656
U001,0,-1097,-5356,1531
U001,0,-996,-5131,1078
U001,0,-712,-4825,912
U001,0,-261,-4451,834
U001,0,-75,-4056,821
U001,0,-408,-3859,1069
U001,0,-932,-3891,1551
U001,0,-1400,-4129,1814
U001,0,-1486,-4305,1536
U001,0,-1326,-4396,1313
U001,0,-1274,-4666,1278
U001,0,-1429,-4791,1185
U001,0,-1371,-4684,1022
U001,0,-1184,-4340,980
U001,0,-996,-4050,974
U001,0,-963,-3865,994
U001,0,-1015,-3619,1034
U001,0,-962,-3389,1047
U001,0,-874,-3248,994
U001,0,-864,-3252,914
U001,0,-889,-3290,880
U001,0,-829,-3373,874
U001,0,-815,-3363,854
U001,0,-805,-3372,734
U001,0,-743,-3333,638
U001,0,-716,-3252,627
U001,0,-666,-3221,636
U001,0,-664,-3175,670
U001,0,-650,-3127,672
U001,0,-598,-3121,662
U001,0,-557,-3096,595
U001,0,-539,-3115,623
U001,0,-561,-3113,601
U001,0,-577,-3121,555
U001,0,-553,-3137,499
U001,0,-475,-3159,503
U001,0,-438,-3158,567
U001,0,-375,-3155,584
U001,0,-386,-3169,600
U001,0,-413,-3188,603
U001,0,-428,-3267,595
U001,0,-422,-3322,582
U001,0,-413,-3383,514
U001,0,-483,-3460,452
U001,0,-558,-3412,483
U001,0,-647,-3534,436
U001,0,-756,-3692,475
U001,0,-873,-3724,672
U001,0,-947,-3905,622
U001,0,-897,-3942,845
U001,0,-856,-3953,921
U001,0,-914,-4116,961
U001,0,-814,-4275,992
U001,0,-646,-4503,1000
U001,0,-603,-4815,982
U001,0,-645,-4948,863
U001,0,-545,-5100,847
U001,0,-517,-5187,824
U001,0,-533,-5206,802
U001,0,-1045,-5299,497
U001,0,-722,-5122,783
U001,0,-370,-5240,1337
U001,0,-196,-5315,1710
U001,0,-285,-5322,1916
U001,0,-329,-5301,1977
U001,0,-507,-5115,2041
U001,0,-798,-4669,2029
U001,0,-878,-4073,1888
U001,0,-728,-3612,1561
U001,0,-621,-3160,1425
U001,0,-555,-2767,1404
U001,0,-625,-2212,1509
U001,0,-833,-2018,1926
U001,0,-668,-2294,2418
U001,0,-526,-2692,2558
U001,0,-525,-3357,2570
U001,0,-596,-4080,2457
U001,0,-406,-4561,2163
U001,0,-257,-4809,1939
U001,0,-187,-4666,1765
U001,0,-181,-4323,1542
U001,0,-272,-4106,1509
U001,0,-366,-4018,1470
U001,0,-249,-3762,1442
U001,0,-314,-3734,1576
U001,0,-250,-3548,1623
U001,0,-68,-3500,1549
U001,0,-36,-3529,1338
U001,0,103,-3451,1098
U001,0,223,-3358,985
U001,0,113,-3294,841
U001,0,104,-3184,761
U001,0,102,-3080,689
U001,0,171,-2940,635
U001,0,39,-2946,745
U001,0,-41,-2973,766
U001,0,-67,-2881,790
U001,0,-95,-2853,728
U001,0,-30,-2844,590
U001,0,35,-2762,524
U001,0,101,-2770,476
U001,0,123,-2815,418
U001,0,122,-2888,331
U001,0,99,-3014,226
U001,0,82,-3085,135
U001,0,88,-3114,60
U001,0,164,-3152,-9
U001,0,274,-3201,-34
U001,0,321,-3281,-47
U001,0,305,-3493,21
U001,0,242,-3538,289
U001,0,75,-3891,496
U001,0,-59,-4533,659
U001,0,52,-4548,796
U001,0,175,-4562,718
U001,0,341,-4717,507
U001,0,261,-4862,439
U001,0,162,-5074,264
U001,0,231,-5244,-83
U001,0,408,-5412,-389
U001,0,728,-5348,-496
U001,0,757,-5252,-461
U001,0,819,-5003,-507
U001,0,785,-5185,-194
U001,0,116,-5594,689
U001,0,-935,-5661,1020
U001,0,-1458,-5363,1094
U001,0,-1349,-5032,1288
U001,0,-977,-5244,1428
U001,0,-674,-5158,1126
U001,0,-581,-4909,1081
U001,0,-595,-4453,1361
U001,0,-568,-3933,1360
U001,0,-679,-3620,1423
U001,0,-1195,-3690,1669
U001,0,-1528,-3921,1763
U001,0,-1320,-4074,1407
U001,0,-1103,-4153,1104
U001,0,-1079,-4475,1214
U001,0,-1159,-4795,1156
U001,0,-1059,-4844,1104
U001,0,-879,-4667,1100
U001,0,-792,-4358,1202
U001,0,-762,-4078,1140
U001,0,-789,-3774,1025
U001,0,-822,-3462,1063
U001,0,-837,-3185,1161
U001,0,-855,-3132,1139
U001,0,-773,-3222,1025
U001,0,-735,-3240,963
U001,0,-753,-3189,945
U001,0,-809,-3161,851
U001,0,-796,-3105,770
U001,0,-806,-3055,740
U001,0,-772,-2964,755
U001,0,-760,-2968,710
U001,0,-698,-2969,634
U001,0,-655,-3026,607
U001,0,-662,-2994,593
U001,0,-639,-2995,614
U001,0,-617,-3035,614
U001,0,-534,-3110,630
U001,0,-479,-3073,622
U001,0,-389,-3134,697
U001,0,-376,-3219,759
U001,0,-400,-3260,751
U001,0,-406,-3347,758
U001,0,-379,-3364,740
U001,0,-392,-3411,710
U001,0,-427,-3503,677
U001,0,-465,-3632,654
U001,0,-485,-3844,618
U001,0,-512,-3958,618
U001,0,-480,-4045,577
U001,0,-550,-4121,578
U001,0,-580,-4059,550
U001,0,-670,-4107,315
U001,0,-865,-4176,273
U001,0,-1013,-4193,350
U001,0,-997,-4157,529
U001,0,-855,-4297,849
U001,0,-816,-4450,1098
U001,0,-819,-4583,1195
U001,0,-723,-4686,1387
U001,0,-602,-4739,1430
U001,0,-673,-4945,1533
U001,0,-758,-5106,1794
U001,0,-448,-5439,2218
U001,0,-93,-5725,2372
U001,0,-644,-5737,2169
U001,0,-842,-5728,1703
U001,0,-694,-5536,1525
U001,0,-865,-4999,1697
U001,0,-1022,-4422,1530
U001,0,-1005,-3713,1371
U001,0,-821,-3134,1348
U001,0,-675,-2859,1406
U001,0,-555,-2721,1781
U001,0,-397,-2463,2155
U001,0,-430,-2377,2628
U001,0,-636,-2575,2972
U001,0,-583,-2945,2717
U001,0,-503,-3356,2168
U001,0,-570,-3628,1852
U001,0,-667,-3899,1613
U001,0,-766,-3854,1311
U001,0,-702,-3726,1219
U001,0,-617,-3519,1235
U001,0,-569,-3495,1401
U001,0,-523,-3434,1542
U001,0,-513,-3535,1713
U001,0,-426,-3472,1688
U001,0,-309,-3435,1556
U001,0,-150,-3429,1359
U001,0,-23,-3347,1188
U001,0,14,-3299,1060
U001,0,35,-3214,956
U001,0,-9,-3257,844
U001,0,-14,-3213,782
U001,0,1,-3127,772
U001,0,-19,-3073,782
U001,0,-19,-3125,750
U001,0,55,-3103,727
U001,0,62,-3054,724
U001,0,95,-3024,670
U001,0,121,-3013,552
U001,0,128,-2945,462
U001,0,139,-2893,381
U001,0,158,-2889,312
U001,0,123,-2908,284
U001,0,117,-2929,293
U001,0,123,-2932,196
U001,0,194,-2899,98
U001,0,283,-2829,130
U001,0,287,-2863,150
U001,0,200,-3003,275
U001,0,47,-3528,550
U001,0,-81,-4314,723
U001,0,-49,-4452,934
U001,0,39,-4641,842
U001,0,180,-4977,489
U001,0,276,-5294,133
U001,0,383,-5501,-115
U001,0,566,-5580,-318
U001,0,821,-5532,-318
U001,0,1010,-5570,-244
U001,0,963,-5535,114
U001,0,263,-5586,861
U001,0,-976,-5798,1513
U001,0,-1744,-5979,1576
U001,0,-1075,-5852,1447
U001,0,-776,-5701,1065
U001,0,-867,-5490,771
U001,0,-598,-5062,523
U001,0,-359,-4631,533
U001,0,-382,-4418,643
U001,0,-282,-4085,798
U001,0,-621,-3980,1318
U001,0,-1176,-4184,1933
U001,0,-1530,-4369,1918
U001,0,-1471,-4341,1448
U001,0,-1316,-4458,1176
U001,0,-1255,-4550,1027
U001,0,-1201,-4637,958
U001,0,-1134,-4563,875
U001,0,-1051,-4297,884
U001,0,-960,-4047,961
U001,0,-942,-3832,972
U001,0,-949,-3546,948
U001,0,-923,-3287,943
U001,0,-931,-3054,950
U001,0,-894,-2971,955
U001,0,-908,-2995,924
U001,0,-917,-2980,880
U001,0,-924,-2979,818
U001,0,-942,-2987,770
U001,0,-935,-2931,764
U001,0,-882,-2943,730
U001,0,-879,-2964,721
U001,0,-872,-2974,732
U001,0,-802,-3023,738
U001,0,-794,-3036,752
U001,0,-790,-3030,718
U001,0,-767,-3109,664
U001,0,-711,-3133,604
U001,0,-702,-3205,618
U001,0,-646,-3255,606
U001,0,-607,-3294,620
U001,0,-541,-3332,608
U001,0,-524,-3346,633
U001,0,-531,-3384,643
U001,0,-526,-3451,623
U001,0,-481,-3461,538
U001,0,-437,-3503,471
U001,0,-412,-3548,416
U001,0,-433,-3552,385
U001,0,-506,-3469,409
U001,0,-601,-3518,421
U001,0,-686,-3525,468
U001,0,-782,-3569,524
U001,0,-861,-3639,598
U001,0,-803,-3780,834
U001,0,-838,-3921,1058
U001,0,-833,-4022,1114
U001,0,-677,-4186,1270
U001,0,-726,-4557,1281
U001,0,-760,-4811,1132
U001,0,-608,-4942,1122
U001,0,-536,-5047,1044
U001,0,-750,-5165,1021
U001,0,-1027,-5183,938
U001,0,-695,-5291,1135
U001,0,-379,-5626,1723
U001,0,-726,-5715,1763
U001,0,-856,-5554,1707
U001,0,-735,-5308,1849
U001,0,-645,-5079,2041
U001,0,-765,-4641,1954
U001,0,-737,-4035,1618
U001,0,-606,-3488,1349
U001,0,-502,-3034,1313
U001,0,-457,-2611,1361
U001,0,-521,-2218,1938
U001,0,-808,-2283,2808
U001,0,-936,-2604,2986
U001,0,-870,-2955,2620
U001,0,-738,-3486,2188
U001,0,-680,-3937,1962
U001,0,-549,-4196,2030
U001,0,-414,-4324,1923
U001,0,-308,-4259,1713
U001,0,-236,-3992,1552
U001,0,-335,-3873,1494
U001,0,-405,-3853,1424
U001,0,-437,-3751,1437
U001,0,-488,-3589,1480
U001,0,-401,-3472,1478
U001,0,-279,-3408,1416
U001,0,-132,-3355,1273
U001,0,-15,-3278,1142
U001,0,92,-3200,1039
U001,0,71,-3194,991
U001,0,-15,-3162,935
U001,0,-73,-3145,905
U001,0,-16,-3083,842
U001,0,-112,-3151,867
U001,0,-171,-3190,884
U001,0,-138,-3137,827
U001,0,-91,-3129,789
U001,0,-64,-3130,672
U001,0,-14,-3068,603
U001,0,-13,-3030,559
U001,0,-23,-2981,574
U001,0,23,-3025,526
U001,0,8,-3131,469
U001,0,-11,-3189,429
U001,0,50,-3153,343
U001,0,136,-3039,260
U001,0,190,-2998,215
U001,0,159,-2996,222
U001,0,67,-2984,387
U001,0,-123,-3525,644
U001,0,-289,-4134,775
U001,0,-193,-4251,885
U001,0,-68,-4367,793
U001,0,178,-4517,602
U001,0,275,-4568,450
U001,0,199,-4626,350
U001,0,180,-4729,268
U001,0,290,-4894,172
U001,0,419,-4977,119
U001,0,510,-5154,-57
U001,0,741,-4979,-265
U001,0,729,-4977,-335
U001,0,676,-4761,-362
U001,0,587,-4654,244
U001,0,-278,-5159,761
U001,0,-1241,-5323,816
U001,0,-1514,-5507,821
U001,0,-1048,-5269,1055
U001,0,-952,-5409,1160
U001,0,-827,-5226,794
U001,0,-419,-4935,616
U001,0,-175,-4663,819
U001,0,-94,-4364,795
U001,0,-408,-4282,1024
U001,0,-1244,-4503,2021
U001,0,-1881,-4729,2426
U001,0,-1848,-4745,1982
U001,0,-1493,-4571,1290
U001,0,-1400,-4557,860
U001,0,-1341,-4566,652
U001,0,-1183,-4486,720
U001,0,-1068,-4392,944
U001,0,-1060,-4158,974
U001,0,-1069,-3817,1025
U001,0,-1079,-3500,1085
U001,0,-1086,-3283,1070
U001,0,-1077,-3091,986
U001,0,-1099,-2976,952
U001,0,-1088,-2859,911
U001,0,-1023,-2913,873
U001,0,-924,-3045,930
U001,0,-860,-3209,938
U001,0,-872,-3396,848
U001,0,-955,-3453,794
U001,0,-965,-3429,787
U001,0,-965,-3340,733
U001,0,-946,-3350,728
U001,0,-862,-3329,790
U001,0,-845,-3282,790
U001,0,-808,-3243,791
U001,0,-777,-3337,767
U001,0,-783,-3347,781
U001,0,-760,-3343,710
U001,0,-754,-3402,761
U001,0,-728,-3400,716
U001,0,-685,-3367,663
U001,0,-684,-3367,696
U001,0,-681,-3338,685
U001,0,-662,-3326,708
U001,0,-623,-3341,673
U001,0,-570,-3361,617
U001,0,-531,-3377,596
U001,0,-511,-3354,494
U001,0,-518,-3381,425
U001,0,-515,-3415,425
U001,0,-525,-3481,366
U001,0,-565,-3513,307
U001,0,-576,-3567,354
U001,0,-648,-3618,376
U001,0,-705,-3687,435
U001,0,-744,-3712,423
U001,0,-757,-3758,500
U001,0,-810,-3851,614
U001,0,-794,-3966,674
U001,0,-702,-4094,749
U001,0,-702,-4279,878
U001,0,-707,-4433,1007
U001,0,-665,-4531,1043
U001,0,-645,-4621,1072
U001,0,-629,-4664,1038
U001,0,-647,-4685,868
U001,0,-862,-4765,683
U001,0,-1036,-4765,708
U001,0,-834,-4978,1146
U001,0,-697,-5153,1378
U001,0,-291,-5310,1794
U001,0,-758,-5264,1959
U001,0,-914,-5126,2047
U001,0,-664,-4967,2123
U001,0,-497,-4645,2156
U001,0,-669,-4149,2119
U001,0,-829,-3682,1794
U001,0,-724,-3412,1482
U001,0,-693,-3058,1544
U001,0,-678,-2722,1873
U001,0,-776,-2681,2403
U001,0,-886,-2815,2996
U001,0,-888,-2952,2955
U001,0,-829,-3474,2723
U001,0,-810,-4017,2501
U001,0,-675,-4302,2261
U001,0,-635,-4363,2064
U001,0,-588,-4297,1776
U001,0,-526,-4123,1656
U001,0,-630,-3966,1598
U001,0,-690,-3912,1512
U001,0,-624,-3754,1492
U001,0,-679,-3678,1502
U001,0,-554,-3531,1569
U001,0,-446,-3472,1582
U001,0,-311,-3415,1474
U001,0,-191,-3350,1329
U001,0,-110,-3322,1182
U001,0,-53,-3289,1017
U001,0,-93,-3268,1050
U001,0,-120,-3221,1027
U001,0,-90,-3181,996
U001,0,-162,-3169,987
U001,0,-168,-3102,991
U001,0,-159,-3078,1042
U001,0,-165,-3069,1075
U001,0,-133,-3079,1071
U001,0,-107,-3129,989
U001,0,-61,-3209,888
U001,0,-47,-3252,844
U001,0,-39,-3319,782
U001,0,-51,-3303,719
U001,0,-52,-3283,665
U001,0,-54,-3289,624
U001,0,-94,-3306,591
U001,0,-51,-3277,540
U001,0,15,-3253,494
U001,0,49,-3211,480
U001,0,115,-3125,527
U001,0,172,-3037,700
U001,0,-93,-3292,937
U001,0,-353,-3626,829
U001,0,-165,-3596,714
U001,0,52,-3761,501
U001,0,134,-3931,437
U001,0,176,-3892,512
U001,0,124,-3935,632
U001,0,131,-4131,633
U001,0,99,-4290,581
U001,0,-25,-4444,528
U001,0,-44,-4508,492
U001,0,0,-4526,417
U001,0,103,-4560,360
U001,0,275,-4664,286
U001,0,435,-4722,344
U001,0,347,-4733,519
U001,0,-155,-4923,793
U001,0,-584,-5032,975
U001,0,-999,-5071,1233
U001,0,-1033,-5218,1410
U001,0,-976,-5432,1550
U001,0,-887,-5198,1193
U001,0,-597,-4954,962
U001,0,-244,-4593,930
U001,0,-37,-4334,848
U001,0,-70,-4086,930
U001,0,-409,-3984,1363
U001,0,-874,-4152,1797
U001,0,-1164,-4395,1898
U001,0,-1157,-4486,1534
U001,0,-978,-4521,1254
U001,0,-1006,-4497,1126
U001,0,-1035,-4396,1136
U001,0,-945,-4251,1291
U001,0,-855,-4131,1292
U001,0,-925,-3873,1299
U001,0,-1016,-3584,1364
U001,0,-1016,-3464,1368
U001,0,-1014,-3441,1333
U001,0,-1007,-3440,1323
U001,0,-1069,-3454,1287
U001,0,-1067,-3466,1258
U001,0,-986,-3513,1129
U001,0,-960,-3558,1046
U001,0,-982,-3478,1035
U001,0,-976,-3407,1007
U001,0,-989,-3264,997
U001,0,-992,-3228,964
U001,0,-997,-3226,956
U001,0,-1016,-3234,953
U001,0,-955,-3278,934
U001,0,-952,-3294,905
U001,0,-864,-3338,855
U001,0,-817,-3361,859
U001,0,-876,-3402,907
U001,0,-880,-3433,875
U001,0,-866,-3497,759
U001,0,-789,-3541,636
U001,0,-731,-3589,549
U001,0,-642,-3629,618
U001,0,-564,-3665,650
U001,0,-497,-3724,678
U001,0,-430,-3724,789
U001,0,-348,-3733,852
U001,0,-301,-3740,863
U001,0,-238,-3756,939
U001,0,-278,-3757,961
U001,0,-316,-3750,909
U001,0,-327,-3746,852
U001,0,-238,-3740,804
U001,0,-177,-3754,741
U001,0,-362,-3690,645
U001,0,-494,-3753,579
U001,0,-530,-3955,544
U001,0,-538,-4065,527
U001,0,-491,-4184,590
U001,0,-426,-4247,642
U001,0,-437,-4231,660
U001,0,-419,-4297,677
U001,0,-279,-4438,775
U001,0,-109,-4506,803
U001,0,6,-4563,835
U001,0,-39,-4615,789
U001,0,-53,-4595,774
U001,0,-104,-4519,675
U001,0,-132,-4451,635
U001,0,-376,-4431,692
U001,0,-352,-4317,852
U001,0,-314,-4259,1046
U001,0,-228,-4254,1272
U001,0,-183,-4377,1423
U001,0,-253,-4375,1388
U001,0,-291,-4205,1228
U001,0,-304,-4018,1126
U001,0,-343,-3832,1311
U001,0,-448,-3573,1796
U001,0,-326,-3467,2390
U001,0,-207,-3567,2802
U001,0,-244,-3846,2717
U001,0,-482,-4107,2422
U001,0,-1083,-4455,2030
U001,0,-1476,-4613,1811
U001,0,-1423,-4689,1567
U001,0,-1356,-4576,1309
U001,0,-973,-4430,1550
U001,0,-680,-4258,1790
U001,0,-496,-4245,1697
U001,0,-400,-4004,1487
U001,0,-311,-3734,1414
U001,0,-317,-3576,1339
U001,0,-275,-3429,1353
U001,0,-293,-3350,1369
U001,0,-336,-3336,1306
U001,0,-355,-3184,1261
U001,0,-315,-3050,1125
U001,0,-159,-3014,962
U001,0,-90,-3077,846
U001,0,-65,-3174,829
U001,0,-40,-3229,873
U001,0,-177,-3414,813
U001,0,-140,-3430,795
U001,0,-188,-3485,863
U001,0,-192,-3512,919
U001,0,-118,-3479,915
U001,0,-38,-3569,835
U001,0,70,-3640,748
U001,0,202,-3706,694
U001,0,241,-3722,576
U001,0,219,-3743,477
U001,0,298,-3730,443
U001,0,369,-3718,445
U001,0,382,-3702,420
U001,0,386,-3620,375
U001,0,368,-3543,368
U001,0,412,-3416,332
U001,0,345,-3480,230
U001,0,364,-3326,264
U001,0,368,-3275,323
U001,0,369,-3209,305
U001,0,316,-3274,353
U001,0,227,-3365,407
U001,0,206,-3447,393
U001,0,359,-3398,491
U001,0,430,-3424,620
U001,0,438,-3498,553
U001,0,476,-3684,427
U001,0,488,-3931,370
U001,0,487,-4216,393
U001,0,383,-4417,541
U001,0,365,-4661,660
U001,0,364,-4869,658
U001,0,390,-5027,677
U001,0,417,-5123,660
U001,0,431,-5229,617
U001,0,346,-5312,755
U001,0,54,-5352,1020
U001,0,-181,-5403,1049
U001,1,-982,1518,619
U001,1,-185,966,1247
U001,1,415,114,1833
U001,1,289,-464,2462
U001,1,-639,-733,2367
U001,1,-738,-1073,2648
U001,1,-700,-2414,3239
U001,1,-1307,-5363,2974
U001,1,-2096,-8076,2507
U001,1,-1807,-9491,2166
U001,1,-1203,-10081,1812
U001,1,-2151,-8792,1255
U001,1,-2179,-7659,1534
U001,1,-1052,-7224,2339
U001,1,-803,-6698,2593
U001,1,-777,-6495,2361
U001,1,-352,-6235,2087
U001,1,42,-6115,2027
U001,1,174,-6188,1908
U001,1,113,-5962,1713
U001,1,-83,-5566,1388
U001,1,22,-5100,1084
U001,1,88,-4599,684
U001,1,43,-4093,533
U001,1,125,-3489,449
U001,1,305,-2891,364
U001,1,582,-2495,367
U001,1,598,-2023,419
U001,1,913,-1774,550
U001,1,780,-1477,643
U001,1,492,-1069,506
U001,1,343,-551,377
U001,1,199,-17,469
U001,1,376,117,668
U001,1,61,59,1020
U001,1,-1035,-573,948
U001,1,-993,-682,677
U001,1,-523,-602,519
U001,1,-171,-832,140
U001,1,306,-1268,-591
U001,1,835,-1950,-824
U001,1,739,-2941,1043
U001,1,-823,-4223,3292
U001,1,-2603,-6400,2902
U001,1,-2273,-8005,3181
U001,1,-1848,-7990,3199
U001,1,-1386,-8492,2186
U001,1,-223,-8003,943
U001,1,290,-7031,968
U001,1,-339,-7198,1644
U001,1,-863,-7414,2339
U001,1,-1056,-7396,2665
U001,1,-1209,-7407,2360
U001,1,-1534,-7194,1948
U001,1,-1412,-6687,1350
U001,1,-956,-6055,1063
U001,1,-622,-5729,953
U001,1,-486,-5406,943
U001,1,-535,-4633,849
U001,1,-572,-4007,923
U001,1,-732,-3445,940
U001,1,-845,-2899,819
U001,1,-854,-2344,564
U001,1,-812,-1883,485
U001,1,-811,-1423,430
U001,1,-582,-1105,259
U001,1,-390,-779,61
U001,1,-314,-445,140
U001,1,-363,-166,79
U001,1,-460,7,-128
U001,1,-562,270,28
U001,1,-541,374,515
U001,1,-428,407,873
U001,1,-406,633,993
U001,1,-293,668,1091
U001,1,-80,463,1334
U001,1,-319,84,1805
U001,1,-646,-600,2325
U001,1,-626,-1086,3006
U001,1,-604,-2012,3576
U001,1,-1100,-4535,3163
U001,1,-624,-7250,3700
U001,1,-440,-9676,3616
U001,1,-1130,-10687,1643
U001,1,-1935,-8863,48
U001,1,-2461,-7422,587
U001,1,-1485,-6338,1911
U001,1,-558,-5854,2520
U001,1,-134,-5550,2366
U001,1,154,-6168,2065
U001,1,295,-6712,1781
U001,1,608,-6409,1450
U001,1,694,-6290,1382
U001,1,-111,-6346,1558
U001,1,-889,-6030,1236
U001,1,-586,-5755,971
U001,1,29,-5123,838
U001,1,375,-4414,547
U001,1,544,-3946,367
U001,1,384,-3274,293
U001,1,366,-2822,428
U001,1,606,-2573,313
U001,1,564,-2039,88
U001,1,584,-1382,71
U001,1,883,-1060,-33
U001,1,1159,-589,430
U001,1,1019,-208,1177
U001,1,-162,-435,1208
U001,1,-1144,-678,1151
U001,1,-1374,-922,1139
U001,1,-944,-952,971
U001,1,-350,-622,461
U001,1,157,-857,-12
U001,1,643,-1222,-366
U001,1,1085,-1723,-661
U001,1,951,-2256,-39
U001,1,233,-3120,1454
U001,1,-910,-4527,2833
U001,1,-2196,-6020,2765
U001,1,-2060,-7134,2132
U001,1,-1648,-7786,1906
U001,1,-996,-8277,932
U001,1,-597,-7995,719
U001,1,-332,-6811,447
U001,1,-182,-6206,300
U001,1,-572,-6453,944
U001,1,-1015,-6924,1520
U001,1,-1285,-6943,1683
U001,1,-1441,-6585,1891
U001,1,-1547,-6351,1856
U001,1,-1502,-6151,1583
U001,1,-1287,-5893,1341
U001,1,-900,-5619,1023
U001,1,-691,-5116,888
U001,1,-639,-4831,821
U001,1,-723,-4435,739
U001,1,-755,-3662,758
U001,1,-768,-3140,726
U001,1,-711,-2828,765
U001,1,-674,-2394,755
U001,1,-435,-1965,634
U001,1,-159,-1551,569
U001,1,-82,-1331,342
U001,1,-247,-944,14
U001,1,-450,-577,165
U001,1,-579,-196,-64
U001,1,-756,7,158
U001,1,-575,266,400
U001,1,-343,279,641
U001,1,-203,247,894
U001,1,-414,403,1206
U001,1,-512,16,1703
U001,1,-542,-492,2286
U001,1,-495,-858,2900
U001,1,-280,-1198,3668
U001,1,-1022,-2675,3278
U001,1,-1600,-4808,3771
U001,1,-800,-7715,4476
U001,1,-948,-10237,2767
U001,1,-2024,-10067,-351
U001,1,-2578,-8039,-313
U001,1,-1908,-7318,1413
U001,1,-1257,-6324,2194
U001,1,-762,-5694,2279
U001,1,-356,-5764,2021
U001,1,-69,-6220,1489
U001,1,69,-6142,1274
U001,1,266,-6210,1187
U001,1,405,-6286,1042
U001,1,-16,-6088,1053
U001,1,-272,-6064,923
U001,1,-72,-5477,761
U001,1,414,-4998,880
U001,1,574,-4428,796
U001,1,652,-3866,633
U001,1,652,-3271,450
U001,1,862,-2808,640
U001,1,698,-2137,515
U001,1,723,-1770,159
U001,1,714,-1385,-75
U001,1,696,-1055,-309
U001,1,873,-683,-121
U001,1,758,-192,264
U001,1,485,499,513
U001,1,-329,-80,339
U001,1,-889,-1106,815
U001,1,-803,-1058,1010
U001,1,-779,-1089,1047
U001,1,-492,-746,917
U001,1,-350,-687,696
U001,1,-214,-1198,644
U001,1,-98,-1627,702
U001,1,-160,-2423,584
U001,1,30,-3929,1263
U001,1,-1120,-5826,2878
U001,1,-2489,-7946,2159
U001,1,-2212,-9098,1828
U001,1,-1882,-9629,2158
U001,1,-1033,-8704,1574
U001,1,-216,-6870,992
U001,1,-383,-6466,1179
U001,1,-576,-6475,1135
U001,1,-752,-6385,1952
U001,1,-673,-5968,2205
U001,1,-652,-5621,2045
U001,1,-670,-5595,1865
U001,1,-660,-5382,1634
U001,1,-573,-5208,1430
U001,1,-420,-5136,1192
U001,1,-368,-4834,932
U001,1,-233,-4489,748
U001,1,-302,-3996,654
U001,1,-333,-3743,690
U001,1,-316,-3389,755
U001,1,-444,-2963,765
U001,1,-637,-2493,641
U001,1,-708,-2200,577
U001,1,-673,-1937,528
U001,1,-563,-1770,481
U001,1,-775,-1345,183
U001,1,-922,-1100,-202
U001,1,-970,-784,-164
U001,1,-961,-291,214
U001,1,-355,35,816
U001,1,-52,433,1124
U001,1,-194,838,1231
U001,1,-402,813,1210
U001,1,-594,649,1692
U001,1,-202,58,2503
U001,1,251,-518,3638
U001,1,-456,-779,4491
U001,1,-853,-2409,3964
U001,1,-1062,-4343,2763
U001,1,-1346,-6180,2576
U001,1,-1174,-7910,3529
U001,1,-921,-9081,1674
U001,1,-1522,-8366,-1023
U001,1,-1687,-7001,-274
U001,1,-1277,-5974,1495
U001,1,-304,-5166,2644
U001,1,828,-5096,2840
U001,1,1190,-5966,2304
U001,1,961,-6987,1874
U001,1,592,-7583,1552
U001,1,428,-7749,1233
U001,1,617,-7621,1197
U001,1,835,-7429,1129
U001,1,1049,-7113,961
U001,1,1251,-6566,637
U001,1,1236,-5724,686
U001,1,1461,-5079,941
U001,1,1391,-4447,783
U001,1,1206,-3898,715
U001,1,1004,-3539,490
U001,1,890,-2965,232
U001,1,991,-2501,63
U001,1,1182,-2003,-152
U001,1,1130,-1444,-255
U001,1,962,-783,-242
U001,1,277,-684,137
U001,1,58,-274,328
U001,1,-266,-12,575
U001,1,-353,152,524
U001,1,-466,-289,327
U001,1,-129,-857,321
U001,1,366,-896,119
U001,1,236,-1134,164
U001,1,396,-1246,328
U001,1,546,-2009,1932
U001,1,-365,-3115,4118
U001,1,-2172,-4980,4592
U001,1,-2948,-7059,3068
U001,1,-2077,-7908,2841
U001,1,-804,-8179,2577
U001,1,-251,-7855,2896
U001,1,-16,-7262,2234
U001,1,-41,-6382,930
U001,1,-658,-6426,653
U001,1,-1809,-7170,1677
U001,1,-1853,-7318,2336
U001,1,-1509,-6811,2548
U001,1,-1515,-6504,2466
U001,1,-964,-6161,2234
U001,1,-557,-6079,2008
U001,1,-714,-6007,1952
U001,1,-835,-5716,1874
U001,1,-881,-5390,1663
U001,1,-852,-5037,1332
U001,1,-729,-4512,1037
U001,1,-776,-4019,828
U001,1,-885,-3535,707
U001,1,-839,-3178,475
U001,1,-625,-2929,342
U001,1,-233,-2761,468
U001,1,-9,-2545,362
U001,1,93,-2083,237
U001,1,-173,-1819,-337
U001,1,-18,-1524,-126
U001,1,-212,-1301,-83
U001,1,-133,-1022,393
U001,1,-201,-782,866
U001,1,-391,-494,1006
U001,1,-666,-221,1067
U001,1,-839,-60,779
U001,1,-952,204,779
U001,1,-979,214,991
U001,1,-734,-101,1734
U001,1,-584,-406,2564
U001,1,-780,-374,3104
U001,1,-1247,-835,2860
U001,1,-1676,-1778,2692
U001,1,-1163,-3036,3329
U001,1,76,-5515,3190
U001,1,-500,-7705,1612
U001,1,-1057,-7669,-11
U001,1,-1507,-7480,1250
U001,1,-1254,-7620,2117
U001,1,-816,-7288,2081
U001,1,-642,-6340,2139
U001,1,138,-6427,2435
U001,1,479,-6754,2226
U001,1,442,-7167,1698
U001,1,342,-7385,1658
U001,1,359,-7285,1416
U001,1,478,-7107,1095
U001,1,747,-6731,1205
U001,1,933,-6218,1397
U001,1,1046,-5931,1336
U001,1,1050,-5295,1014
U001,1,969,-4866,904
U001,1,1103,-4292,898
U001,1,1248,-3686,657
U001,1,1217,-3080,423
U001,1,1007,-2415,235
U001,1,804,-1737,-139
U001,1,679,-1057,-332
U001,1,800,-469,-390
U001,1,807,320,-106
U001,1,247,-62,324
U001,1,-273,-223,178
U001,1,-946,-680,218
U001,1,-818,-466,505
U001,1,-610,-745,205
U001,1,-121,-1022,183
U001,1,174,-1051,116
U001,1,619,-1069,-278
U001,1,821,-1345,290
U001,1,342,-2195,2056
U001,1,-651,-2966,2399
U001,1,-1693,-3497,2700
U001,1,-2340,-4538,3180
U001,1,-2411,-6248,3431
U001,1,-2638,-8198,2766
U001,1,-1366,-8590,1862
U001,1,130,-7783,1336
U001,1,314,-7002,230
U001,1,-176,-6823,454
U001,1,-839,-7354,1714
U001,1,-975,-7824,2072
U001,1,-973,-7496,2033
U001,1,-943,-7283,2081
U001,1,-840,-7060,1994
U001,1,-574,-6943,1586
U001,1,-501,-6743,1260
U001,1,-281,-6434,1051
U001,1,-262,-5942,989
U001,1,-454,-5411,1041
U001,1,-605,-4741,1048
U001,1,-690,-3979,965
U001,1,-645,-3418,810
U001,1,-317,-3021,874
U001,1,-196,-2584,894
U001,1,-235,-2238,667
U001,1,-165,-1541,483
U001,1,74,-943,449
U001,1,49,-529,293
U001,1,-117,-154,102
U001,1,-228,183,84
U001,1,-457,379,242
U001,1,-678,602,618
U001,1,-872,729,1065
U001,1,-1019,700,1303
U001,1,-1017,777,1705
U001,1,-686,510,2137
U001,1,-639,467,2381
U001,1,-1076,97,2582
U001,1,-2011,-664,3001
U001,1,-2317,-2233,3138
U001,1,-702,-5132,4691
U001,1,-1208,-7493,3614
U001,1,-851,-9086,475
U001,1,-568,-9901,549
U001,1,-2180,-8935,1363
U001,1,-2407,-7334,1996
U001,1,-1125,-6675,2808
U001,1,-846,-6602,2565
U001,1,-455,-6953,2096
U001,1,-146,-7162,1836
U001,1,110,-7161,1746
U001,1,322,-7071,1650
U001,1,567,-6938,1412
U001,1,824,-6767,1101
U001,1,794,-6465,1035
U001,1,669,-5931,924
U001,1,757,-5205,756
U001,1,758,-4693,507
U001,1,1039,-3728,390
U001,1,1157,-3242,113
U001,1,1305,-2699,-130
U001,1,1434,-2153,-262
U001,1,1404,-1454,-194
U001,1,1272,-586,120
U001,1,667,114,451
U001,1,333,602,826
U001,1,-43,751,1063
U001,1,-613,252,924
U001,1,-534,-58,703
U001,1,-334,-317,372
U001,1,-337,-814,239
U001,1,-239,-832,459
U001,1,64,-910,269
U001,1,347,-1003,323
U001,1,134,-1392,1083
U001,1,-615,-1982,2070
U001,1,-1504,-3155,2470
U001,1,-1822,-4703,2769
U001,1,-1992,-5518,3584
U001,1,-1593,-6527,2422
U001,1,-268,-7545,1595
U001,1,384,-7645,1408
U001,1,361,-6733,225
U001,1,234,-6111,500
U001,1,-540,-6793,1137
U001,1,-1048,-7463,1764
U001,1,-539,-7223,2003
U001,1,-244,-7121,1857
U001,1,-361,-7217,1754
U001,1,-492,-6951,1721
U001,1,-551,-6699,1498
U001,1,-420,-6425,1364
U001,1,-420,-6245,1491
U001,1,-584,-6104,1372
U001,1,-743,-5727,950
U001,1,-847,-5118,842
U001,1,-1145,-4601,1008
U001,1,-1220,-3991,1102
U001,1,-1015,-3627,1281
U001,1,-844,-3250,1187
U001,1,-778,-2748,881
U001,1,-476,-2300,572
U001,1,-280,-1891,250
U001,1,-172,-1462,112
U001,1,-231,-987,262
U001,1,-228,-583,666
U001,1,-425,-203,765
U001,1,-608,103,877
U001,1,-752,253,828
U001,1,-804,416,867
U001,1,-720,389,810
U001,1,-684,402,829
U001,1,-557,162,1194
U001,1,-603,-176,1625
U001,1,-955,-357,1901
U001,1,-1022,-905,2024
U001,1,-1137,-1699,2022
U001,1,-1136,-2740,2484
U001,1,-320,-4582,3337
U001,1,-285,-6968,2792
U001,1,-488,-8478,1644
U001,1,-601,-9419,1119
U001,1,-1821,-9128,1072
U001,1,-2134,-7662,1351
U001,1,-1029,-7468,1839
U001,1,-474,-7317,2116
U001,1,-305,-7388,1894
U001,1,-149,-7270,1598
U001,1,232,-6941,1356
U001,1,386,-6970,1039
U001,1,69,-6576,984
U001,1,243,-6058,825
U001,1,640,-5546,590
U001,1,859,-5043,551
U001,1,775,-4765,533
U001,1,520,-4063,722
U001,1,526,-3130,635
U001,1,518,-2503,470
U001,1,356,-2035,272
U001,1,322,-1604,174
U001,1,248,-1237,46
U001,1,307,-889,-52
U001,1,478,-642,-40
U001,1,458,-278,221
U001,1,313,-95,570
U001,1,-39,-5,764
U001,1,-443,-170,663
U001,1,-711,-612,764
U001,1,-359,-458,822
U001,1,52,-378,451
U001,1,295,-644,80
U001,1,570,-1140,-165
U001,1,566,-1701,224
U001,1,-125,-2593,1554
U001,1,-1171,-3971,2945
U001,1,-2078,-5429,3161
U001,1,-1867,-6059,1699
U001,1,-636,-6783,1734
U001,1,-221,-7525,1335
U001,1,147,-7561,76
U001,1,-46,-6914,131
U001,1,-383,-6922,755
U001,1,-966,-7576,1400
U001,1,-1096,-7747,1794
U001,1,-784,-7528,1764
U001,1,-699,-7167,1693
U001,1,-872,-7001,1483
U001,1,-739,-6898,1265
U001,1,-449,-6696,1280
U001,1,-665,-6550,1291
U001,1,-986,-6351,911
U001,1,-1122,-5784,762
U001,1,-1254,-5076,722
U001,1,-1152,-4619,691
U001,1,-1121,-4045,667
U001,1,-793,-3426,698
U001,1,-686,-2993,555
U001,1,-509,-2470,376
U001,1,-218,-1904,439
U001,1,82,-1494,486
U001,1,9,-821,267
U001,1,-172,-176,126
U001,1,-399,118,-153
U001,1,-946,530,-202
U001,1,-1136,771,-102
U001,1,-894,784,505
U001,1,-542,960,1013
U001,1,-232,1021,1370
U001,1,110,756,1327
U001,1,-129,354,1209
U001,1,-904,-423,1984
U001,1,-1182,-533,2822
U001,1,-1149,-785,3391
U001,1,-1445,-2617,2883
U001,1,-1044,-4417,3352
U001,1,-797,-7014,3120
U001,1,-791,-8957,2561
U001,1,-766,-9777,1671
U001,1,-1713,-10155,444
U001,1,-3269,-8884,569
U001,1,-2263,-7875,2048
U001,1,-1129,-7463,2578
U001,1,-942,-7049,2441
U001,1,-665,-6993,2228
U001,1,-172,-6782,1719
U001,1,365,-6368,1551
U001,1,283,-6242,1483
U001,1,73,-6180,1210
U001,1,-72,-5615,851
U001,1,261,-5118,615
U001,1,284,-4649,340
U001,1,444,-3882,235
U001,1,473,-3154,248
U001,1,534,-2610,56
U001,1,437,-2141,-37
U001,1,531,-1806,-23
U001,1,434,-1183,-77
U001,1,485,-808,-133
U001,1,495,-322,84
U001,1,490,36,534
U001,1,551,472,985
U001,1,339,1007,1129
U001,1,-278,831,464
U001,1,-1008,-199,615
U001,1,-1161,-649,1020
U001,1,-651,-314,977
U001,1,-193,-397,1063
U001,1,-78,-826,1195
U001,1,-175,-1595,1377
U001,1,-136,-2781,1449
U001,1,-57,-4893,2509
U001,1,-1134,-6598,4144
U001,1,-2190,-8036,1989
U001,1,-1155,-9329,894
U001,1,-437,-8867,935
U001,1,580,-7143,10
U001,1,994,-6104,-372
U001,1,214,-6463,14
U001,1,-370,-6493,841
U001,1,-439,-6503,1253
U001,1,-674,-6439,1655
U001,1,-975,-6820,1550
U001,1,-979,-7005,1355
U001,1,-703,-6787,1154
U001,1,-383,-6590,840
U001,1,-116,-6077,709
U001,1,-292,-5848,910
U001,1,-757,-5505,729
U001,1,-1373,-5016,526
U001,1,-1667,-4389,570
U001,1,-1595,-3955,713
U001,1,-1107,-3474,914
U001,1,-804,-2954,823
U001,1,-274,-2320,962
U001,1,-320,-1840,734
U001,1,-29,-1470,686
U001,1,34,-769,845
U001,1,-115,-309,558
U001,1,-554,-133,234
U001,1,-986,195,76
U001,1,-1075,528,210
U001,1,-982,624,216
U001,1,-765,723,502
U001,1,-343,565,1364
U001,1,-412,169,2051
U001,1,-799,-131,2391
U001,1,-739,-634,2799
U001,1,-457,-1063,3233
U001,1,-1428,-2302,2880
U001,1,-1451,-3850,3319
U001,1,-1115,-6214,3408
U001,1,-1345,-8735,2153
U001,1,-862,-9398,1602
U001,1,-584,-10269,458
U001,1,-2833,-8571,-384
U001,1,-2634,-7598,970
U001,1,-1041,-7244,2245
U001,1,-636,-7042,2121
U001,1,-521,-6843,1887
U001,1,-125,-6604,1591
U001,1,186,-6417,1279
U001,1,370,-6023,1344
U001,1,271,-5855,1181
U001,1,72,-5618,778
U001,1,-44,-4924,479
U001,1,35,-4475,414
U001,1,-21,-4041,315
U001,1,126,-3279,261
U001,1,537,-2725,86
U001,1,506,-2038,-191
U001,1,557,-1582,-289
U001,1,683,-1422,-157
U001,1,889,-848,-307
U001,1,1470,-462,-421
U001,1,1506,-83,-6
U001,1,1237,884,1050
U001,1,56,914,621
U001,1,-1209,-378,270
U001,1,-1251,-1333,839
U001,1,-746,-627,738
U001,1,-465,-588,662
U001,1,-447,-857,738
U001,1,-436,-949,1106
U001,1,-723,-1568,2310
U001,1,-1802,-2268,3160
U001,1,-1974,-3473,1702
U001,1,-394,-4845,1057
U001,1,-1225,-6253,3313
U001,1,-2184,-8250,1875
U001,1,-1316,-9485,377
U001,1,145,-8231,-477
U001,1,667,-6665,-1114
U001,1,384,-6766,-492
U001,1,-334,-6998,616
U001,1,-769,-6568,867
U001,1,-463,-6412,594
U001,1,-389,-6642,899
U001,1,-657,-6966,1229
U001,1,-1062,-7102,1273
U001,1,-1186,-6599,1014
U001,1,-768,-6117,701
U001,1,-218,-5868,510
U001,1,-207,-5619,619
U001,1,-718,-5405,824
U001,1,-1107,-5061,824
U001,1,-1383,-4354,685
U001,1,-1362,-3893,432
U001,1,-1524,-3592,351
U001,1,-1310,-3035,273
U001,1,-1159,-2683,184
U001,1,-1093,-2434,168
U001,1,-240,-1397,926
U001,1,-29,-925,1264
U001,1,-242,-849,944
U001,1,-533,-484,456
U001,1,-776,-223,412
U001,1,-752,63,159
U001,1,-588,392,381
U001,1,-476,528,892
U001,1,-426,581,1136
U001,1,-394,405,1348
U001,1,-461,98,1576
U001,1,-602,-271,1731
U001,1,-612,-756,1857
U001,1,-488,-1182,2562
U001,1,-566,-2288,2995
U001,1,-787,-4003,3588
U001,1,-404,-6701,4064
U001,1,-989,-8892,2669
U001,1,-1208,-9925,83
U001,1,-1462,-10150,-872
U001,1,-2830,-7849,-665
U001,1,-2020,-6794,482
U001,1,-934,-6596,2045
U001,1,-73,-6323,2495
U001,1,129,-6566,1954
U001,1,41,-6422,1803
U001,1,246,-6013,1558
U001,1,214,-5599,1276
U001,1,-345,-5160,1195
U001,1,-739,-4976,979
U001,1,-444,-4919,771
U001,1,-50,-4428,508
U001,1,264,-3971,309
U001,1,218,-3431,131
U001,1,493,-3093,284
U001,1,339,-2619,236
U001,1,287,-2336,145
U001,1,238,-2043,100
U001,1,166,-1834,85
U001,1,192,-1561,-174
U001,1,333,-1156,-197
U001,1,342,-822,-79
U001,1,216,-558,456
U001,1,507,114,358
U001,1,36,-512,621
U001,1,-363,-1188,800
U001,1,-52,-741,592
U001,1,313,-872,286
U001,1,570,-1434,23
U001,1,346,-1924,434
U001,1,-144,-2104,776
U001,1,-620,-3186,1112
U001,1,-627,-4752,1625
U001,1,-709,-6916,1598
U001,1,-424,-8503,1256
U001,1,-595,-9034,2161
U001,1,-2209,-8122,2631
U001,1,-2316,-7146,2570
U001,1,-1130,-6682,2028
U001,1,-555,-6638,1077
U001,1,-1320,-6578,511
U001,1,-1953,-6414,1031
U001,1,-2126,-6770,1521
U001,1,-1991,-6425,1616
U001,1,-1534,-6020,1674
U001,1,-828,-5964,1663
U001,1,-631,-5731,2002
U001,1,-876,-5125,2235
U001,1,-1049,-4569,1945
U001,1,-1076,-4331,1426
U001,1,-863,-4153,994
U001,1,-627,-3793,544
U001,1,-672,-3321,269
U001,1,-810,-2768,67
U001,1,-751,-2486,100
U001,1,-627,-2197,324
U001,1,-741,-1812,269
U001,1,-603,-1371,172
U001,1,-114,-1025,359
U001,1,-191,-659,171
U001,1,-526,-304,-65
U001,1,-769,-10,74
U001,1,-676,214,770
U001,1,-549,417,1589
U001,1,-744,538,2110
U001,1,-979,213,2494
U001,1,-1191,-272,2463
U001,1,-1575,-725,1916
U001,1,-1657,-1451,1613
U001,1,-1204,-2239,1936
U001,1,-173,-3505,2849
U001,1,-525,-5852,3151
U001,1,-948,-8604,2943
U001,1,-625,-9805,962
U001,1,-714,-9307,1570
U001,1,-4,-9080,2215
U001,1,151,-8533,2262
U001,1,-92,-7684,2147
U001,1,-370,-7101,2135
U001,1,-240,-6831,2141
U001,1,105,-6684,1900
U001,1,335,-6695,1780
U001,1,511,-6540,1672
U001,1,625,-6374,1611
U001,1,788,-6101,1331
U001,1,985,-5691,1090
U001,1,1069,-5273,1051
U001,1,1065,-4741,817
U001,1,1012,-4218,519
U001,1,1023,-3521,404
U001,1,949,-2892,375
U001,1,901,-2275,3
U001,1,968,-1721,-236
U001,1,1307,-1045,-376
U001,1,1368,-574,-326
U001,1,1159,-97,8
U001,1,630,-24,91
U001,1,-38,-174,13
U001,1,-130,32,-47
U001,1,-242,4,15
U001,1,-240,176,-343
U001,1,-404,-567,-631
U001,1,-24,-757,-757
U001,1,517,-913,-408
U001,1,675,-987,631
U001,1,247,-1259,1167
U001,1,-541,-2021,2216
U001,1,-1483,-2459,3691
U001,1,-3061,-3604,4631
U001,1,-4251,-5961,5043
U001,1,-3557,-8161,2164
U001,1,-1091,-8739,1213
U001,1,240,-8089,1615
U001,1,400,-7363,2056
U001,1,593,-8305,2251
U001,1,1113,-7270,1711
U001,1,1128,-6363,108
U001,1,-250,-5439,610
U001,1,-895,-6128,1540
U001,1,-623,-6991,1726
U001,1,-687,-6906,1662
U001,1,-749,-6897,1943
U001,1,-571,-6381,1580
U001,1,-278,-5990,1320
U001,1,-290,-5500,1443
U001,1,-359,-5158,1539
U001,1,-590,-4889,1752
U001,1,-721,-4716,1629
U001,1,-493,-4471,1401
U001,1,-268,-4156,1347
U001,1,-127,-3834,1056
U001,1,-249,-3590,764
U001,1,-452,-3391,603
U001,1,-490,-3250,431
U001,1,-216,-3137,613
U001,1,208,-2678,873
U001,1,212,-2323,835
U001,1,151,-1914,813
U001,1,-18,-1463,773
U001,1,-168,-1149,684
U001,1,-344,-832,686
U001,1,-384,-662,665
U001,1,-541,-418,560
U001,1,-650,-175,483
U001,1,-375,-46,1081
U001,1,-288,-52,1816
U001,1,-1070,-28,2070
U001,1,-2228,35,2192
U001,1,-3069,-426,1907
U001,1,-2435,-931,1738
U001,1,-674,-2397,1821
U001,1,-339,-4347,1587
U001,1,-324,-5687,1931
U001,1,-7,-7829,2455
U001,1,-206,-8762,2601
U001,1,-452,-9389,1896
U001,1,-703,-8932,1682
U001,1,-599,-8581,1768
U001,1,-755,-8062,1680
U001,1,-493,-7957,1889
U001,1,-59,-8259,1647
U001,1,76,-8243,1348
U001,1,394,-7941,1472
U001,1,732,-7521,1206
U001,1,1038,-6949,1093
U001,1,1112,-6182,916
U001,1,1258,-5501,781
U001,1,1208,-4890,856
U001,1,1131,-4247,748
U001,1,1092,-3429,364
U001,1,1101,-2694,39
U001,1,1069,-1661,-192
U001,1,1058,-898,-232
U001,1,980,-361,-391
U001,1,847,155,-303
U001,1,599,792,66
U001,1,480,1072,691
U001,1,389,1198,1047
U001,1,-571,472,1485
U001,1,-1112,-416,1247
U001,1,-748,-701,56
U001,1,-211,-1073,-730
U001,1,359,-1438,-1177
U001,1,1034,-1805,-732
U001,1,589,-2126,1239
U001,1,-1127,-2923,3174
U001,1,-2481,-4114,3064
U001,1,-2217,-4896,2774
U001,1,-1796,-5728,3768
U001,1,-1767,-7255,3063
U001,1,-536,-8063,1974
U001,1,626,-7754,2036
U001,1,1204,-6285,359
U001,1,968,-5566,50
U001,1,-179,-6151,1388
U001,1,-252,-6882,2008
U001,1,-520,-7036,1993
U001,1,-632,-7092,1981
U001,1,-452,-6870,2091
U001,1,-623,-6784,2061
U001,1,-696,-6549,1980
U001,1,-542,-6245,1415
U001,1,-414,-5981,1164
U001,1,-431,-5393,1284
U001,1,-699,-4958,1353
U001,1,-934,-4398,1346
U001,1,-1163,-3730,1237
U001,1,-1098,-3301,1013
U001,1,-944,-3046,725
U001,1,-617,-2462,563
U001,1,-536,-1863,587
U001,1,-348,-1281,398
U001,1,-90,-638,614
U001,1,-48,-137,625
U001,1,-275,217,525
U001,1,-591,552,442
U001,1,-812,909,591
U001,1,-813,806,611
U001,1,-750,604,808
U001,1,-729,448,983
U001,1,-481,552,1322
U001,1,-341,429,1868
U001,1,-731,115,2239
U001,1,-1151,-588,2537
U001,1,-1568,-1338,2764
U001,1,-1390,-2468,2963
U001,1,-1100,-4513,2833
U001,1,-1341,-6553,1766
U001,1,-1271,-7340,1348
U001,1,-638,-7751,1513
U001,1,-516,-8687,2362
U001,1,-1589,-8277,1903
U001,1,-1126,-7749,1928
U001,1,-354,-7730,2572
U001,1,-192,-7768,2519
U001,1,-71,-7605,2455
U001,1,356,-7499,2244
U001,1,542,-7599,2069
U001,1,336,-7360,1844
U001,1,-27,-7001,1584
U001,1,-58,-6198,1257
U001,1,139,-5300,869
U001,1,314,-4699,398
U001,1,252,-4103,80
U001,1,361,-3413,0
U001,1,372,-2825,87
U001,1,496,-2298,124
U001,1,610,-1697,276
U001,1,458,-1039,88
U001,1,331,-365,12
U001,1,717,-30,302
U001,1,868,233,489
U001,1,408,581,759
U001,1,-8,608,794
U001,1,-645,172,730
U001,1,-718,-317,847
U001,1,-666,-634,732
U001,1,-273,-674,784
U001,1,-224,-656,744
U001,1,-242,-683,845
U001,1,-28,-1049,1013
U001,1,-57,-1924,1476
U001,1,-370,-3382,2265
U001,1,-1009,-4968,2823
U001,1,-1707,-6454,1808
U001,1,-1333,-7629,1121
U001,1,-995,-8536,1500
U001,1,-837,-8098,936
U001,1,-90,-7372,473
U001,1,601,-6670,497
U001,1,456,-6851,801
U001,1,3,-7353,1588
U001,1,-475,-7650,1916
U001,1,-564,-7257,1737
U001,1,-738,-6885,1701
U001,1,-1167,-6723,1696
U001,1,-1303,-6575,1705
U001,1,-1151,-6298,1376
U001,1,-1007,-5981,1063
U001,1,-874,-5686,917
U001,1,-781,-5263,881
U001,1,-932,-4771,967
U001,1,-1236,-4181,1014
U001,1,-1169,-3420,1052
U001,1,-916,-2916,933
U001,1,-563,-2328,646
U001,1,-213,-1679,598
U001,1,-119,-1108,438
U001,1,-65,-683,221
U001,1,-41,-143,-72
U001,1,-322,330,-127
U001,1,-763,608,308
U001,1,-919,849,421
U001,1,-848,1236,747
U001,1,-573,1390,1179
U001,1,-366,1059,1835
U001,1,-663,526,2043
U001,1,-1065,39,2090
U001,1,-1252,-461,2769
U001,1,-1651,-710,3190
U001,1,-1913,-1887,3262
U001,1,-1462,-3989,3912
U001,1,-1669,-6082,3399
U001,1,-1624,-8200,1907
U001,1,-258,-10199,1271
U001,1,-749,-10672,-543
U001,1,-2491,-9104,-350
U001,1,-1840,-8256,1776
U001,1,-167,-7701,2770
U001,1,2,-7211,2553
U001,1,-171,-7490,1953
U001,1,-108,-6922,1693
U001,1,378,-6760,1415
U001,1,-246,-6476,1398
U001,1,-493,-6212,1146
U001,1,-262,-5804,866
U001,1,-211,-5346,557
U001,1,81,-4636,336
U001,1,381,-3901,326
U001,1,775,-3350,94
U001,1,826,-2454,-93
U001,1,976,-1789,15
U001,1,831,-1379,-10
U001,1,921,-509,-187
U001,1,1190,136,-211
U001,1,1517,535,246
U001,1,1381,795,804
U001,1,194,313,893
U001,1,-588,-150,716
U001,1,-654,-537,356
U001,1,-543,-796,329
U001,1,-337,-1022,530
U001,1,-238,-1349,647
U001,1,39,-1962,429
U001,1,293,-2522,619
U001,1,-403,-3234,1395
U001,1,-1460,-4218,2722
U001,1,-2599,-4710,3436
U001,1,-2595,-4741,1712
U001,1,-1642,-6648,1962
U001,1,-1573,-7731,2317
U001,1,-334,-8525,1878
U001,1,146,-7678,924
U001,1,187,-6310,-364
U001,1,-359,-5922,210
U001,1,-1527,-6285,1410
U001,1,-2014,-7086,2145
U001,1,-2104,-7124,2187
U001,1,-2075,-6878,2137
U001,1,-2169,-6703,1855
U001,1,-1771,-6377,1198
U001,1,-742,-6011,873
U001,1,-66,-5825,762
U001,1,-6,-5395,800
U001,1,-232,-5092,748
U001,1,-595,-4590,689
U001,1,-548,-3490,939
U001,1,-343,-2799,1306
U001,1,-441,-2241,1329
U001,1,-272,-1453,1114
U001,1,-104,-1104,880
U001,1,-245,-551,563
U001,1,-416,-146,-19
U001,1,-608,171,-550
U001,1,-1092,718,-629
U001,1,-1350,938,-176
U001,1,-1022,1105,574
U001,1,-738,1155,1236
U001,1,-462,1099,1653
U001,1,-552,965,1650
U001,1,-1003,447,1513
U001,1,-1429,-40,1593
U001,1,-1318,-268,3008
U001,1,-988,-584,5054
U001,1,-2542,-2076,4450
U001,1,-2896,-4090,5528
U001,1,138,-7201,6741
U001,1,-860,-10954,2162
U001,1,-2085,-10792,-3445
U001,1,-2691,-8061,-1119
U001,1,-1953,-7391,1767
U001,1,-893,-6823,2399
U001,1,-388,-6303,2400
U001,1,-264,-6440,1879
U001,1,-412,-6656,1761
U001,1,-179,-6857,1464
U001,1,331,-7105,1199
U001,1,397,-7749,1227
U001,1,319,-7960,1245
U001,1,166,-7172,794
U001,1,-38,-6381,868
U001,1,95,-5727,586
U001,1,526,-5043,403
U001,1,758,-4440,96
U001,1,982,-3660,-439
U001,1,1215,-2921,-644
U001,1,1524,-2601,-499
U001,1,1641,-1742,-190
U001,1,1388,-887,2
U001,1,1014,-37,274
U001,1,808,394,611
U001,1,379,897,695
U001,1,-90,1092,1017
U001,1,-849,402,1201
U001,1,-1417,-403,1471
U001,1,-1157,-521,1381
U001,1,-829,-348,1412
U001,1,-388,-363,1295
U001,1,-216,-773,859
U001,1,-48,-1394,667
U001,1,-176,-2114,1354
U001,1,-548,-3014,2461
U001,1,-1277,-3746,3236
U001,1,-1963,-5165,2165
U001,1,-934,-5964,1046
U001,1,-327,-7115,1279
U001,1,137,-7767,-20
U001,1,666,-6901,-704
U001,1,657,-6242,-566
U001,1,-146,-6892,204
U001,1,-842,-7638,1000
U001,1,-668,-7437,1347
U001,1,-733,-7389,1405
U001,1,-839,-7339,1126
U001,1,-660,-7229,847
U001,1,-407,-7017,918
U001,1,-332,-6888,1039
U001,1,-548,-6651,797
U001,1,-776,-6112,724
U001,1,-732,-5866,873
U001,1,-648,-5375,1079
U001,1,-976,-5078,1013
U001,1,-1241,-4316,1155
U001,1,-996,-3478,1107
U001,1,-742,-2931,919
U001,1,-462,-2189,1096
U001,1,-529,-1629,900
U001,1,-418,-907,543
U001,1,-137,-301,333
U001,1,-483,84,260
U001,1,-1017,562,452
U001,1,-1265,1154,832
U001,1,-1027,1585,1014
U001,1,-879,2041,1373
U001,1,-1048,1634,1375
U001,1,-1071,928,1160
U001,1,-1284,372,1453
U001,1,-1146,-315,2489
U001,1,-370,-622,4213
U001,1,-288,-1866,3741
U001,1,-1225,-3156,2594
U001,1,-1135,-4748,2358
U001,1,-730,-6574,2320
U001,1,-553,-9304,1522
U001,1,-847,-10427,-248
U001,1,-2282,-8435,-497
U001,1,-1658,-7977,1404
U001,1,-412,-7500,2330
U001,1,-4,-6803,2248
U001,1,208,-6744,1855
U001,1,167,-6797,1289
U001,1,261,-6462,943
U001,1,556,-6308,808
U001,1,578,-6215,973
U001,1,159,-6417,917
U001,1,329,-6042,788
U001,1,532,-5596,639
U001,1,664,-4839,315
U001,1,943,-4375,251
U001,1,1061,-3765,280
U001,1,845,-2906,338
U001,1,697,-2156,320
U001,1,632,-1414,236
U001,1,662,-829,117
U001,1,481,-100,-73
U001,1,696,214,145
U001,1,795,658,505
U001,1,361,1037,495
U001,1,-594,-116,1195
U001,1,-556,235,1199
U001,1,-734,45,976
U001,1,-409,-474,689
U001,1,45,-583,833
U001,1,86,-873,1329
U001,1,-149,-1300,2053
U001,1,-809,-1409,2231
U001,1,-1438,-2871,1632
U001,1,-1151,-4832,2282
U001,1,-2037,-6217,4317
U001,1,-3322,-7647,3196
U001,1,-2113,-9302,780
U001,1,56,-9711,788
U001,1,937,-8535,-435
U001,1,842,-6684,-259
U001,1,419,-6588,166
U001,1,-463,-6987,382
U001,1,-810,-6819,1010
U001,1,-576,-6545,1410
U001,1,-460,-6319,1591
U001,1,-598,-6218,1538
U001,1,-617,-5972,1175
U001,1,-510,-5606,838
U001,1,-364,-5327,851
U001,1,-686,-5006,922
U001,1,-597,-4902,992
U001,1,-360,-4663,1093
U001,1,-210,-4218,1090
U001,1,-276,-3743,900
U001,1,-266,-3340,826
U001,1,-662,-3029,638
U001,1,-859,-2792,769
U001,1,-859,-2114,665
U001,1,-690,-1428,538
U001,1,-289,-978,688
U001,1,-590,-551,802
U001,1,-1142,1,521
U001,1,-814,555,591
U001,1,-609,821,579
U001,1,-452,907,852
U001,1,-629,1018,1067
U001,1,-659,759,727
U001,1,-673,522,759
U001,1,-382,117,1383
U001,1,138,-610,2773
U001,1,-430,-1175,4006
U001,1,-1458,-1494,4302
U001,1,-1622,-2973,2882
U001,1,-1566,-5215,3141
U001,1,-578,-7174,5169
U001,1,54,-9782,4239
U001,1,-1171,-10524,-868
U001,1,-1756,-8836,-1255
U001,1,-1691,-6958,555
U001,1,-1046,-5353,2058
U001,1,418,-4902,2937
U001,1,1041,-5166,2319
U001,1,771,-6511,1974
U001,1,349,-7372,1545
U001,1,-221,-7572,1351
U001,1,-299,-7273,1368
U001,1,-82,-7083,1294
U001,1,115,-6892,1060
U001,1,292,-6552,1018
U001,1,422,-5985,889
U001,1,574,-5248,800
U001,1,667,-4580,652
U001,1,559,-3969,524
U001,1,457,-3441,337
U001,1,729,-2755,85
U001,1,779,-2505,21
U001,1,1084,-1929,42
U001,1,1491,-1248,38
U001,1,1696,-415,190
U001,1,1424,374,416
U001,1,733,402,719
U001,1,-9,723,659
U001,1,-588,432,549
U001,1,-790,217,242
U001,1,-658,-428,67
U001,1,-308,-581,-370
U001,1,99,-957,60
U001,1,114,-1091,866
