AccelerometerX,AccelerometerY,AccelerometerZ,GyroscopeX,GyroscopeY,GyroscopeZ
-110.0,985.0,3652.0,-97.0,-35.0,-48.0
-187.0,1034.0,3478.0,-75.0,120.0,-48.0
-290.0,1038.0,3361.0,-19.0,170.0,-54.0
-645.0,1033.0,3497.0,45.0,249.0,-42.0
-569.0,1235.0,3691.0,30.0,353.0,-13.0
-262.0,1040.0,3594.0,9.0,395.0,30.0
-131.0,1118.0,3546.0,-4.0,316.0,67.0
-158.0,1035.0,3630.0,-9.0,168.0,108.0
-156.0,1006.0,3563.0,67.0,-137.0,135.0
-160.0,996.0,3580.0,47.0,-417.0,134.0
-158.0,977.0,3734.0,-41.0,-636.0,144.0
-170.0,933.0,3792.0,-24.0,-785.0,124.0
-224.0,954.0,3753.0,-84.0,-667.0,136.0
-258.0,960.0,3741.0,-129.0,-511.0,108.0
-273.0,931.0,3631.0,-68.0,-382.0,85.0
-276.0,961.0,3586.0,-76.0,-302.0,93.0
-236.0,953.0,3663.0,-93.0,-189.0,106.0
-121.0,940.0,3664.0,-42.0,-114.0,101.0
-57.0,933.0,3692.0,12.0,-93.0,108.0
-14.0,928.0,3681.0,8.0,-127.0,121.0
-32.0,955.0,3690.0,42.0,-239.0,118.0
-53.0,951.0,3701.0,37.0,-358.0,108.0
-4.0,977.0,3702.0,19.0,-436.0,112.0
89.0,975.0,3695.0,82.0,-396.0,138.0
72.0,978.0,3621.0,90.0,-375.0,139.0
-155.0,996.0,3528.0,75.0,-323.0,134.0
-119.0,1014.0,3551.0,64.0,-257.0,120.0
0.0,1018.0,3661.0,85.0,-164.0,94.0
127.0,985.0,3688.0,71.0,-113.0,70.0
154.0,1005.0,3605.0,61.0,-182.0,57.0
117.0,999.0,3589.0,66.0,-343.0,57.0
-26.0,1011.0,3579.0,67.0,-541.0,50.0
-90.0,1000.0,3647.0,40.0,-671.0,38.0
-92.0,985.0,3620.0,0.0,-655.0,36.0
-79.0,1008.0,3594.0,27.0,-573.0,24.0
14.0,981.0,3660.0,33.0,-430.0,0.0
119.0,957.0,3668.0,-7.0,-290.0,-7.0
186.0,986.0,3698.0,-20.0,-227.0,-8.0
175.0,994.0,3709.0,-41.0,-224.0,-2.0
154.0,1015.0,3692.0,-14.0,-338.0,-11.0
131.0,1024.0,3702.0,-21.0,-436.0,8.0
52.0,1018.0,3672.0,-59.0,-448.0,28.0
-10.0,1016.0,3623.0,-17.0,-416.0,20.0
-39.0,1013.0,3668.0,-6.0,-304.0,24.0
9.0,980.0,3664.0,-14.0,-162.0,26.0
103.0,1023.0,3662.0,-11.0,-73.0,0.0
191.0,1044.0,3641.0,-26.0,-164.0,11.0
95.0,1025.0,3547.0,7.0,-251.0,15.0
32.0,1043.0,3579.0,17.0,-261.0,10.0
28.0,1029.0,3584.0,2.0,-194.0,11.0
108.0,1009.0,3596.0,6.0,-98.0,-2.0
126.0,1043.0,3596.0,1.0,-3.0,-9.0
144.0,1033.0,3572.0,9.0,40.0,-5.0
134.0,1028.0,3598.0,10.0,10.0,-7.0
163.0,1042.0,3582.0,-18.0,-61.0,-7.0
133.0,1052.0,3614.0,-30.0,-125.0,-1.0
92.0,1057.0,3624.0,-41.0,-133.0,7.0
46.0,1029.0,3623.0,-32.0,-124.0,10.0
44.0,1037.0,3616.0,-68.0,-94.0,6.0
69.0,1048.0,3632.0,-78.0,-45.0,12.0
129.0,1024.0,3660.0,-80.0,-11.0,10.0
184.0,1000.0,3638.0,-105.0,25.0,13.0
258.0,993.0,3608.0,-139.0,18.0,21.0
290.0,1016.0,3576.0,-147.0,-21.0,31.0
319.0,1028.0,3610.0,-153.0,-67.0,43.0
325.0,1003.0,3540.0,-177.0,-107.0,58.0
339.0,996.0,3499.0,-185.0,-118.0,64.0
317.0,970.0,3513.0,-174.0,38.0,20.0
249.0,946.0,3494.0,-164.0,80.0,-5.0
200.0,847.0,3400.0,-202.0,127.0,-44.0
222.0,878.0,3364.0,-244.0,171.0,-69.0
148.0,910.0,3428.0,-280.0,204.0,-98.0
67.0,900.0,3473.0,-287.0,213.0,-116.0
-74.0,907.0,3525.0,-243.0,170.0,-131.0
-187.0,874.0,3660.0,-233.0,168.0,-144.0
-277.0,803.0,3728.0,-198.0,219.0,-156.0
-425.0,792.0,3800.0,-205.0,340.0,-173.0
-477.0,790.0,3795.0,-233.0,476.0,-195.0
-391.0,794.0,3765.0,-269.0,600.0,-213.0
-193.0,805.0,3727.0,-320.0,655.0,-232.0
-88.0,842.0,3768.0,-361.0,592.0,-257.0
-120.0,845.0,3854.0,-337.0,427.0,-262.0
-182.0,834.0,3903.0,-286.0,185.0,-241.0
-209.0,831.0,3870.0,-226.0,-27.0,-210.0
-183.0,873.0,3837.0,-172.0,-201.0,-170.0
-136.0,926.0,3789.0,-141.0,-212.0,-148.0
-82.0,975.0,3778.0,-129.0,-115.0,-130.0
5.0,962.0,3785.0,-89.0,5.0,-112.0
6.0,926.0,3758.0,-28.0,90.0,-96.0
18.0,958.0,3787.0,82.0,-79.0,-33.0
109.0,943.0,3809.0,72.0,-93.0,-31.0
-15.0,892.0,3797.0,94.0,-134.0,-44.0
-61.0,907.0,3781.0,81.0,-125.0,-30.0
12.0,922.0,3782.0,91.0,-87.0,-11.0
72.0,982.0,3765.0,100.0,13.0,-2.0
155.0,985.0,3817.0,66.0,122.0,10.0
240.0,938.0,3820.0,65.0,155.0,24.0
240.0,934.0,3753.0,105.0,59.0,40.0
202.0,932.0,3751.0,136.0,-96.0,63.0
166.0,951.0,3711.0,164.0,-249.0,79.0
133.0,989.0,3597.0,149.0,-350.0,76.0
108.0,1033.0,3542.0,103.0,-354.0,83.0
87.0,1049.0,3519.0,114.0,-315.0,87.0
110.0,1014.0,3502.0,141.0,-252.0,89.0
140.0,1034.0,3451.0,131.0,-170.0,104.0
191.0,1071.0,3455.0,134.0,-140.0,109.0
93.0,1062.0,3504.0,118.0,-104.0,112.0
45.0,1003.0,3527.0,51.0,-94.0,100.0
42.0,922.0,3603.0,-35.0,-134.0,82.0
100.0,887.0,3635.0,-90.0,-174.0,87.0
86.0,879.0,3665.0,-109.0,-190.0,95.0
54.0,848.0,3805.0,-186.0,-199.0,92.0
-14.0,779.0,3805.0,-279.0,-266.0,74.0
37.0,748.0,3801.0,-330.0,-364.0,54.0
178.0,723.0,3868.0,-344.0,-492.0,46.0
404.0,732.0,3880.0,-319.0,-608.0,40.0
565.0,806.0,3837.0,-313.0,-671.0,43.0
637.0,826.0,3755.0,-300.0,-752.0,57.0
565.0,827.0,3693.0,-220.0,-909.0,46.0
478.0,843.0,3644.0,-156.0,-1048.0,53.0
427.0,848.0,3565.0,-75.0,-1106.0,81.0
443.0,919.0,3467.0,62.0,-992.0,80.0
832.0,946.0,3505.0,169.0,-698.0,30.0
1450.0,939.0,3573.0,218.0,-309.0,-22.0
1979.0,916.0,3687.0,258.0,41.0,-65.0
2661.0,980.0,3420.0,301.0,279.0,-95.0
3093.0,919.0,3174.0,335.0,413.0,-124.0
3144.0,483.0,3192.0,290.0,621.0,-151.0
2813.0,-179.0,2255.0,129.0,1271.0,-164.0
1820.0,-130.0,1096.0,-56.0,2620.0,-158.0
639.0,389.0,-7.0,-800.0,11994.0,59.0
-462.0,1210.0,-1929.0,-655.0,16702.0,386.0
-1156.0,2139.0,-3781.0,764.0,21686.0,791.0
-8053.0,979.0,-4716.0,2291.0,26734.0,1215.0
-9763.0,1704.0,-3071.0,3365.0,31238.0,1596.0
-9278.0,2253.0,-1683.0,4134.0,32767.0,1891.0
-6882.0,1989.0,-909.0,3875.0,32767.0,2070.0
-4494.0,1297.0,-837.0,3251.0,32692.0,1619.0
-3407.0,1158.0,-1249.0,2810.0,30499.0,737.0
-3590.0,1263.0,-1542.0,2901.0,24185.0,170.0
-3484.0,2621.0,-2007.0,2871.0,16639.0,237.0
-4593.0,1088.0,-1970.0,2121.0,9935.0,623.0
-4164.0,1191.0,-1758.0,1211.0,5004.0,950.0
-3994.0,1350.0,-1532.0,796.0,2367.0,1134.0
-4265.0,1361.0,-1506.0,783.0,1197.0,989.0
-4817.0,1421.0,-1460.0,783.0,583.0,564.0
-4988.0,1530.0,-1478.0,33.0,-17.0,763.0
-4936.0,1591.0,-1471.0,-176.0,39.0,155.0
-4884.0,1606.0,-1217.0,-106.0,383.0,-270.0
-4498.0,1578.0,-1201.0,-234.0,-37.0,-267.0
-4372.0,1558.0,-1278.0,-383.0,-816.0,-148.0
-5734.0,1565.0,-1468.0,-562.0,-1680.0,-102.0
-6217.0,1494.0,-1445.0,-765.0,-2434.0,-118.0
-6596.0,1306.0,-1412.0,-888.0,-2994.0,-96.0
-6718.0,1116.0,-1642.0,-954.0,-3590.0,-192.0
-6620.0,1014.0,-2090.0,-1040.0,-4552.0,-352.0
-6170.0,1027.0,-2517.0,-1211.0,-6194.0,-530.0
-5583.0,972.0,-2855.0,-1602.0,-8607.0,-714.0
-4698.0,946.0,-2917.0,-2111.0,-11677.0,-876.0
-3604.0,970.0,-2798.0,-2407.0,-15143.0,-902.0
-2308.0,1084.0,-2433.0,-2457.0,-18628.0,-707.0
-143.0,1537.0,-2476.0,-2394.0,-21788.0,-356.0
2917.0,1828.0,-696.0,-2339.0,-25132.0,-99.0
5981.0,1632.0,2488.0,-2152.0,-28319.0,15.0
9304.0,1999.0,3992.0,-1719.0,-31031.0,271.0
10604.0,1051.0,4256.0,-1148.0,-32767.0,893.0
8623.0,-198.0,1984.0,-1436.0,-29871.0,2886.0
3803.0,-641.0,1002.0,-2010.0,-21810.0,2325.0
-1382.0,-246.0,1133.0,-2687.0,-9794.0,1670.0
-1461.0,816.0,3606.0,-3219.0,1539.0,484.0
2549.0,693.0,3326.0,-2501.0,8142.0,-193.0
4469.0,502.0,3341.0,-668.0,8212.0,424.0
4582.0,532.0,3568.0,465.0,4112.0,1690.0
3237.0,978.0,3329.0,732.0,2512.0,2688.0
1681.0,1285.0,3172.0,671.0,-1108.0,2695.0
610.0,1319.0,3120.0,-460.0,-6513.0,1492.0
437.0,1125.0,3211.0,-1295.0,-5712.0,787.0
859.0,887.0,3332.0,-1025.0,-3232.0,633.0
1295.0,879.0,3341.0,12.0,-1197.0,678.0
1465.0,963.0,3347.0,663.0,794.0,642.0
1508.0,992.0,3380.0,532.0,1448.0,486.0
1365.0,925.0,3532.0,62.0,1072.0,279.0
1463.0,793.0,3631.0,-381.0,586.0,111.0
1660.0,644.0,3158.0,-490.0,319.0,-72.0
1443.0,726.0,3100.0,-609.0,1828.0,-376.0
1339.0,697.0,3763.0,-774.0,2561.0,-445.0
1296.0,690.0,4089.0,-841.0,3840.0,-441.0
912.0,1033.0,2821.0,-587.0,5079.0,-461.0
64.0,898.0,2047.0,-469.0,6734.0,-409.0
-1244.0,797.0,1585.0,-376.0,9221.0,-186.0
-2353.0,692.0,949.0,49.0,11532.0,-116.0
-3129.0,785.0,528.0,383.0,14073.0,-13.0
-3477.0,1062.0,-43.0,461.0,17017.0,174.0
-3737.0,1366.0,-277.0,617.0,19645.0,338.0
-3837.0,1350.0,-992.0,1108.0,21940.0,615.0
-4542.0,1241.0,-1477.0,1787.0,23504.0,817.0
-5523.0,1299.0,-1705.0,2436.0,24193.0,1157.0
-6082.0,1588.0,-1527.0,3183.0,24019.0,1437.0
-5986.0,1741.0,-1350.0,3703.0,23315.0,1662.0
-5585.0,1739.0,-1354.0,3801.0,22173.0,1817.0
-4950.0,1714.0,-1328.0,3658.0,20697.0,1806.0
-4080.0,1543.0,-1464.0,3484.0,18588.0,1634.0
-3491.0,1506.0,-1503.0,2380.0,8081.0,1690.0
-3361.0,1492.0,-1464.0,1852.0,4837.0,1668.0
-3540.0,1483.0,-1217.0,1337.0,2606.0,1574.0
-4000.0,1470.0,-1312.0,995.0,1433.0,1427.0
-4083.0,1476.0,-1203.0,797.0,1151.0,1092.0
-3989.0,1512.0,-1126.0,656.0,1357.0,702.0
-3756.0,1506.0,-1042.0,464.0,1633.0,409.0
-3619.0,1478.0,-1101.0,389.0,1653.0,238.0
-3557.0,1495.0,-1135.0,309.0,1429.0,182.0
-3559.0,1512.0,-1133.0,174.0,1057.0,140.0
-3656.0,1555.0,-1026.0,56.0,580.0,84.0
-3634.0,1533.0,-960.0,-24.0,182.0,96.0
-3664.0,1494.0,-1003.0,-75.0,-19.0,67.0
-3896.0,1497.0,-1072.0,-76.0,-55.0,31.0
-4101.0,1567.0,-1091.0,-54.0,-33.0,-7.0
-4202.0,1622.0,-1144.0,-27.0,-46.0,-63.0
-4231.0,1607.0,-1242.0,-62.0,-40.0,-92.0
-4254.0,1581.0,-1253.0,-220.0,-400.0,-257.0
-4150.0,1572.0,-1055.0,-334.0,-967.0,-286.0
-4426.0,1505.0,-769.0,-449.0,-1576.0,-291.0
-4586.0,1506.0,-683.0,-562.0,-2178.0,-313.0
-4731.0,1457.0,-748.0,-696.0,-2681.0,-305.0
-4941.0,1479.0,-757.0,-726.0,-3113.0,-289.0
-5063.0,1472.0,-747.0,-753.0,-3510.0,-301.0
-5077.0,1449.0,-1101.0,-842.0,-4001.0,-332.0
-5127.0,1489.0,-1369.0,-930.0,-4697.0,-386.0
-5108.0,1439.0,-1315.0,-1077.0,-5479.0,-395.0
-5022.0,1283.0,-872.0,-1214.0,-6489.0,-393.0
-4851.0,1010.0,-474.0,-1392.0,-7640.0,-438.0
-4587.0,836.0,-183.0,-1624.0,-9049.0,-456.0
-4147.0,807.0,3.0,-1767.0,-10715.0,-403.0
-3446.0,929.0,102.0,-1984.0,-12296.0,-301.0
-2685.0,1169.0,131.0,-2277.0,-13942.0,-270.0
-1648.0,1579.0,241.0,-2437.0,-15963.0,-358.0
89.0,1908.0,216.0,-1505.0,-23418.0,-313.0
2138.0,1861.0,974.0,-1010.0,-25579.0,114.0
4096.0,1617.0,1568.0,-585.0,-27073.0,779.0
6151.0,214.0,3226.0,-529.0,-27228.0,1620.0
3211.0,-93.0,2988.0,-1275.0,-25186.0,2054.0
499.0,-230.0,2705.0,-2152.0,-22284.0,1942.0
-1822.0,-224.0,3195.0,-2338.0,-18113.0,1767.0
-3486.0,394.0,3608.0,-2063.0,-10355.0,1171.0
-2094.0,942.0,3638.0,-2548.0,-2374.0,434.0
551.0,1043.0,3455.0,-2434.0,1986.0,-83.0
2542.0,949.0,3388.0,-1554.0,3701.0,66.0
3368.0,689.0,3641.0,-834.0,3481.0,566.0
3065.0,677.0,3675.0,128.0,1528.0,1009.0
2127.0,937.0,3581.0,698.0,-278.0,1104.0
1264.0,1158.0,3504.0,120.0,-2652.0,747.0
827.0,1225.0,3446.0,-725.0,-4171.0,170.0
772.0,1120.0,3542.0,-1112.0,-3355.0,-127.0
909.0,970.0,3692.0,-812.0,-1733.0,-232.0
1012.0,925.0,3676.0,278.0,1082.0,-414.0
1061.0,1007.0,3593.0,-7.0,984.0,-558.0
1005.0,1088.0,3622.0,-286.0,831.0,-655.0
986.0,1014.0,3856.0,-323.0,764.0,-706.0
1154.0,930.0,4021.0,-199.0,832.0,-746.0
1307.0,936.0,4092.0,-125.0,984.0,-755.0
1493.0,928.0,3994.0,-153.0,1149.0,-755.0
1440.0,896.0,3767.0,-193.0,1372.0,-754.0
954.0,948.0,3629.0,-173.0,1731.0,-742.0
376.0,948.0,3584.0,-203.0,2383.0,-696.0
-250.0,944.0,3599.0,-151.0,3330.0,-624.0
-705.0,907.0,3585.0,-53.0,4653.0,-519.0
-904.0,967.0,3395.0,16.0,6271.0,-408.0
-1005.0,953.0,3112.0,205.0,7803.0,-338.0
-1030.0,890.0,2893.0,353.0,9160.0,-229.0
-1166.0,876.0,2779.0,496.0,10265.0,-84.0
-1225.0,848.0,2538.0,692.0,10877.0,-24.0
-1082.0,874.0,2239.0,871.0,11073.0,-30.0
-1031.0,907.0,1876.0,1315.0,11331.0,-112.0
-972.0,981.0,1469.0,1600.0,11656.0,-127.0
-1093.0,1000.0,1064.0,1882.0,12344.0,-60.0
-2436.0,904.0,-949.0,2172.0,13209.0,31.0
-2811.0,926.0,-1716.0,2504.0,14283.0,135.0
-3603.0,1190.0,-2193.0,2709.0,15659.0,316.0
-4567.0,1374.0,-2210.0,2889.0,16889.0,433.0
-5458.0,1516.0,-2159.0,3055.0,17992.0,518.0
-5988.0,1692.0,-2460.0,3288.0,18782.0,585.0
-6100.0,1837.0,-2594.0,3596.0,19053.0,617.0
-5561.0,1873.0,-2752.0,3909.0,18634.0,559.0
-4991.0,1903.0,-2496.0,4006.0,17632.0,397.0
-4478.0,1735.0,-2102.0,3710.0,16029.0,299.0
-4119.0,1650.0,-1851.0,3409.0,13361.0,195.0
-4182.0,1548.0,-1771.0,3063.0,10088.0,105.0
-4406.0,1556.0,-1897.0,2561.0,6858.0,8.0
-4580.0,1679.0,-1969.0,1999.0,4109.0,15.0
-4509.0,1711.0,-1742.0,1396.0,2182.0,-75.0
-4305.0,1675.0,-1546.0,259.0,308.0,-525.0
-4129.0,1597.0,-1327.0,-5.0,-8.0,-571.0
-4116.0,1550.0,-1214.0,-292.0,-498.0,-541.0
-4377.0,1583.0,-1011.0,-539.0,-1009.0,-464.0
-4339.0,1517.0,-906.0,-658.0,-1370.0,-362.0
-4334.0,1473.0,-924.0,-693.0,-1483.0,-260.0
-4460.0,1448.0,-1126.0,-655.0,-1489.0,-167.0
-4778.0,1387.0,-1355.0,-603.0,-1530.0,-88.0
-5146.0,1429.0,-1446.0,-564.0,-1668.0,-14.0
-5373.0,1391.0,-1606.0,-568.0,-1836.0,62.0
-5567.0,1406.0,-1846.0,-582.0,-1986.0,159.0
-5605.0,1432.0,-1890.0,-592.0,-2095.0,237.0
-5583.0,1303.0,-1914.0,-652.0,-2258.0,282.0
-5560.0,1114.0,-1628.0,-783.0,-2811.0,232.0
-5344.0,893.0,-1361.0,-1029.0,-3957.0,169.0
-5010.0,732.0,-1418.0,-1348.0,-5722.0,171.0
-4678.0,652.0,-1116.0,-1707.0,-7829.0,189.0
-4029.0,670.0,-1122.0,-2157.0,-10121.0,139.0
-3301.0,764.0,-1064.0,-2753.0,-17308.0,211.0
-2308.0,1120.0,-1343.0,-2594.0,-19848.0,172.0
-1113.0,1567.0,-1243.0,-2291.0,-22450.0,-104.0
4895.0,1435.0,2788.0,-1740.0,-25280.0,-243.0
6116.0,1474.0,2988.0,-1021.0,-28074.0,-61.0
6362.0,1251.0,2553.0,-279.0,-30058.0,657.0
4751.0,443.0,1824.0,21.0,-30407.0,1603.0
2127.0,285.0,1514.0,-471.0,-28391.0,2160.0
-634.0,461.0,2154.0,-1254.0,-24824.0,2031.0
-2686.0,618.0,3754.0,-1276.0,-19325.0,1834.0
-2408.0,824.0,4835.0,-1067.0,-11263.0,1798.0
-714.0,752.0,4122.0,-1660.0,-2252.0,1346.0
1153.0,688.0,3475.0,-1710.0,3433.0,587.0
2267.0,560.0,3526.0,-956.0,4440.0,185.0
2448.0,718.0,3548.0,-436.0,3360.0,291.0
2051.0,1086.0,3372.0,-394.0,1927.0,651.0
1326.0,1288.0,3637.0,-604.0,-1401.0,846.0
720.0,1120.0,3999.0,-353.0,-1057.0,20.0
385.0,891.0,4039.0,-107.0,225.0,-144.0
743.0,1125.0,3831.0,-343.0,953.0,-209.0
955.0,1112.0,3849.0,-511.0,1099.0,-239.0
999.0,1079.0,3854.0,-425.0,865.0,-288.0
857.0,1082.0,3971.0,-283.0,569.0,-280.0
692.0,1095.0,3996.0,-148.0,307.0,-253.0
663.0,1116.0,3992.0,-104.0,160.0,-262.0
746.0,1162.0,3966.0,-166.0,281.0,-265.0
868.0,1144.0,3970.0,-185.0,554.0,-253.0
993.0,1121.0,4001.0,-132.0,880.0,-236.0
1127.0,1105.0,4068.0,-39.0,1131.0,-243.0
1301.0,1104.0,4134.0,45.0,1274.0,-242.0
1480.0,1060.0,4105.0,84.0,1376.0,-231.0
1412.0,947.0,3834.0,81.0,1582.0,-209.0
950.0,858.0,3614.0,41.0,2002.0,-181.0
254.0,782.0,3634.0,2.0,2679.0,-127.0
-223.0,803.0,3379.0,-111.0,6813.0,188.0
-570.0,954.0,3212.0,64.0,8446.0,188.0
-657.0,1095.0,2689.0,320.0,9964.0,248.0
-1249.0,1404.0,1448.0,691.0,11311.0,410.0
-1329.0,1385.0,1061.0,1115.0,12177.0,470.0
-1335.0,1496.0,633.0,1401.0,12788.0,479.0
-1437.0,1403.0,331.0,1540.0,13434.0,511.0
-1422.0,1196.0,-204.0,1675.0,13821.0,446.0
-1639.0,1120.0,-603.0,1687.0,14374.0,430.0
-2329.0,1064.0,-837.0,1693.0,15022.0,485.0
-3200.0,960.0,-1032.0,1834.0,15546.0,521.0
-4001.0,1044.0,-1415.0,1858.0,16176.0,589.0
-4481.0,1245.0,-2063.0,1924.0,16969.0,654.0
-4904.0,1463.0,-2659.0,2037.0,17786.0,638.0
-5562.0,1635.0,-2589.0,2211.0,18325.0,481.0
-6020.0,1633.0,-1678.0,2337.0,18324.0,268.0
-5658.0,1457.0,-1449.0,2565.0,17745.0,184.0
-5096.0,1445.0,-1698.0,2791.0,16541.0,211.0
-4587.0,1461.0,-2021.0,2540.0,10164.0,-125.0
-4519.0,1431.0,-2139.0,2220.0,7602.0,-453.0
-4636.0,1483.0,-2093.0,1998.0,5107.0,-395.0
-4382.0,1551.0,-1600.0,1645.0,3458.0,-184.0
-4364.0,1545.0,-1520.0,1226.0,2502.0,-148.0
-4417.0,1650.0,-1524.0,860.0,1842.0,-306.0
-4427.0,1732.0,-1297.0,557.0,1123.0,-412.0
-4209.0,1707.0,-1204.0,237.0,322.0,-319.0
-4241.0,1651.0,-1179.0,-84.0,-239.0,-184.0
-4319.0,1673.0,-1158.0,-311.0,-528.0,-125.0
-4492.0,1633.0,-1088.0,-409.0,-766.0,-66.0
-4553.0,1577.0,-929.0,-473.0,-1057.0,-16.0
-4336.0,1488.0,-886.0,-556.0,-1338.0,53.0
-4250.0,1410.0,-1034.0,-619.0,-1425.0,107.0
-4460.0,1371.0,-1092.0,-602.0,-1485.0,68.0
-4859.0,1353.0,-1119.0,-620.0,-1617.0,65.0
-5239.0,1331.0,-1005.0,-679.0,-1900.0,49.0
-5544.0,1236.0,-963.0,-799.0,-2297.0,88.0
-5657.0,1170.0,-1091.0,-1054.0,-3434.0,153.0
-5748.0,1126.0,-1113.0,-1182.0,-4374.0,39.0
-5506.0,1065.0,-1191.0,-1443.0,-5813.0,-72.0
-5186.0,925.0,-1642.0,-1776.0,-7701.0,-214.0
-4904.0,805.0,-1533.0,-2092.0,-9942.0,-387.0
-4298.0,790.0,-1715.0,-2403.0,-12185.0,-468.0
-3478.0,952.0,-2134.0,-2552.0,-14323.0,-451.0
-2372.0,1380.0,-2474.0,-2512.0,-16585.0,-508.0
-761.0,1766.0,-2322.0,-2542.0,-18672.0,-555.0
1556.0,1854.0,-1594.0,-2581.0,-20870.0,-517.0
3735.0,1667.0,710.0,-2261.0,-23701.0,-462.0
5709.0,1437.0,2892.0,-1637.0,-26816.0,-162.0
7571.0,1460.0,3326.0,-907.0,-29308.0,479.0
8092.0,647.0,3011.0,-470.0,-30320.0,1361.0
5833.0,-330.0,2019.0,-713.0,-29323.0,1997.0
2319.0,-100.0,1567.0,-1581.0,-26779.0,1924.0
-820.0,111.0,2353.0,-2283.0,-23452.0,1688.0
-3763.0,572.0,4340.0,-2218.0,-16876.0,1408.0
-2634.0,785.0,4948.0,-2248.0,3749.0,429.0
-215.0,752.0,4528.0,-905.0,3602.0,737.0
1934.0,612.0,3861.0,-360.0,1933.0,1264.0
2413.0,811.0,4049.0,-210.0,1387.0,1431.0
1404.0,971.0,4026.0,-685.0,-1567.0,1122.0
677.0,919.0,4034.0,-1369.0,-4630.0,582.0
456.0,771.0,4040.0,-1785.0,-3702.0,384.0
530.0,723.0,4044.0,-1377.0,-2089.0,329.0
762.0,804.0,3942.0,-428.0,-546.0,263.0
1079.0,865.0,3803.0,93.0,804.0,151.0
1220.0,875.0,3795.0,29.0,1352.0,28.0
1311.0,857.0,3777.0,-157.0,1300.0,-35.0
1414.0,853.0,3765.0,-186.0,943.0,-79.0
1439.0,865.0,3784.0,-53.0,514.0,-169.0
1401.0,851.0,3945.0,63.0,324.0,-265.0
1424.0,786.0,4139.0,109.0,384.0,-336.0
1390.0,725.0,4042.0,138.0,591.0,-399.0
1352.0,712.0,3820.0,163.0,1024.0,-458.0
1278.0,681.0,3636.0,157.0,3524.0,-391.0
1244.0,700.0,3301.0,111.0,4889.0,-279.0
1153.0,729.0,2852.0,156.0,6252.0,-222.0
1519.0,782.0,2265.0,192.0,7825.0,-130.0
1676.0,1024.0,1239.0,258.0,9464.0,16.0
1343.0,1209.0,-149.0,413.0,11046.0,144.0
42.0,1166.0,-1802.0,617.0,12662.0,264.0
-1751.0,1129.0,-3109.0,845.0,14857.0,477.0
-4119.0,909.0,-3862.0,1205.0,17732.0,805.0
-6351.0,920.0,-3228.0,1788.0,20752.0,1122.0
-7340.0,1194.0,-2411.0,2395.0,23558.0,1347.0
-7956.0,1602.0,-1564.0,2874.0,26221.0,1475.0
-7219.0,1746.0,-1296.0,3286.0,28319.0,1433.0
-5724.0,1546.0,-1040.0,3313.0,29060.0,1294.0
-4495.0,1376.0,-1082.0,3346.0,27403.0,858.0
-4106.0,1242.0,-1343.0,3415.0,23819.0,423.0
-4378.0,1362.0,-1664.0,3357.0,18770.0,400.0
-4410.0,1562.0,-1765.0,1322.0,2723.0,904.0
-4244.0,1654.0,-1568.0,1032.0,1651.0,887.0
-4544.0,1454.0,-947.0,797.0,961.0,732.0
-4536.0,1506.0,-888.0,514.0,412.0,477.0
-4318.0,1475.0,-883.0,283.0,52.0,135.0
-4147.0,1438.0,-899.0,25.0,122.0,-25.0
-4025.0,1410.0,-943.0,-139.0,309.0,-51.0
-4131.0,1431.0,-940.0,-180.0,199.0,-72.0
-4356.0,1457.0,-871.0,-225.0,-207.0,-46.0
-4457.0,1420.0,-904.0,-340.0,-665.0,43.0
-4703.0,1447.0,-811.0,-431.0,-1014.0,51.0
-4770.0,1419.0,-827.0,-457.0,-1169.0,37.0
-5189.0,1374.0,-1089.0,-453.0,-1251.0,19.0
-5619.0,1430.0,-1131.0,-447.0,-1433.0,-32.0
-5985.0,1420.0,-1116.0,-481.0,-1717.0,-13.0
-6185.0,1398.0,-1189.0,-517.0,-2127.0,9.0
-6237.0,1298.0,-1093.0,-585.0,-2610.0,-32.0
-5812.0,1180.0,-1227.0,-1029.0,-5912.0,-311.0
-5149.0,1066.0,-1274.0,-1414.0,-8071.0,-427.0
-4438.0,933.0,-1058.0,-1815.0,-10740.0,-413.0
-2675.0,895.0,-156.0,-2125.0,-13267.0,-272.0
-2106.0,1089.0,17.0,-2294.0,-15518.0,-81.0
-1376.0,1267.0,231.0,-2390.0,-17327.0,-35.0
-397.0,1415.0,342.0,-2368.0,-18550.0,-191.0
693.0,1402.0,692.0,-2117.0,-19714.0,-456.0
1912.0,1284.0,1478.0,-1618.0,-20916.0,-553.0
3215.0,1277.0,2118.0,-1166.0,-22040.0,-364.0
4752.0,1244.0,2570.0,-851.0,-23096.0,18.0
5879.0,1098.0,3104.0,-680.0,-23824.0,553.0
5663.0,530.0,2918.0,-718.0,-23696.0,1044.0
3902.0,245.0,2527.0,-1030.0,-22482.0,1218.0
1781.0,193.0,2758.0,-1254.0,-20395.0,1244.0
-349.0,282.0,3569.0,-1445.0,-16959.0,1423.0
-1935.0,409.0,4578.0,-1651.0,-11251.0,1377.0
-2233.0,498.0,4705.0,-1981.0,-4795.0,1091.0
-1407.0,505.0,4208.0,-1008.0,5040.0,705.0
69.0,453.0,3867.0,-634.0,4409.0,697.0
1288.0,462.0,3809.0,-514.0,2771.0,680.0
1353.0,866.0,4018.0,-556.0,25.0,518.0
655.0,969.0,3891.0,-721.0,-2329.0,198.0
223.0,1015.0,3847.0,-784.0,-3030.0,7.0
63.0,995.0,3930.0,-501.0,-2657.0,-42.0
201.0,1020.0,3865.0,-54.0,-1710.0,-155.0
477.0,1046.0,3881.0,236.0,-423.0,-278.0
706.0,1045.0,3806.0,400.0,436.0,-363.0
854.0,1044.0,3635.0,481.0,680.0,-432.0
1016.0,1110.0,3507.0,461.0,503.0,-494.0
1212.0,1094.0,3431.0,446.0,44.0,-548.0
1359.0,1091.0,3361.0,421.0,-355.0,-566.0
1464.0,1128.0,3379.0,350.0,-540.0,-578.0
1803.0,1155.0,3547.0,319.0,-571.0,-578.0
2435.0,1163.0,3759.0,287.0,-349.0,-566.0
2917.0,1118.0,4141.0,208.0,130.0,-538.0
3569.0,947.0,4434.0,-131.0,3058.0,-375.0
4532.0,618.0,4171.0,-431.0,5352.0,-190.0
5470.0,289.0,2845.0,-837.0,8468.0,35.0
-399.0,592.0,-7866.0,-1146.0,12273.0,253.0
-5816.0,684.0,-8781.0,-1114.0,17478.0,705.0
-11346.0,1363.0,-7523.0,-607.0,23299.0,1381.0
-13894.0,2410.0,-4528.0,918.0,29653.0,2219.0
-13624.0,2123.0,-2225.0,3157.0,32767.0,2776.0
-9923.0,1871.0,-1395.0,4724.0,32767.0,2986.0
-5017.0,1446.0,-998.0,5173.0,32694.0,2429.0
-1488.0,1041.0,-464.0,4978.0,32767.0,1974.0
-282.0,1120.0,-963.0,4481.0,30331.0,1595.0
-357.0,1497.0,-1504.0,3160.0,20557.0,839.0
-1279.0,1854.0,-1602.0,2626.0,8612.0,1106.0
-2590.0,1954.0,-1563.0,2632.0,-246.0,2113.0
-3479.0,1841.0,-1280.0,1923.0,-4942.0,2584.0
-3699.0,1731.0,-864.0,1498.0,-6813.0,2335.0
-3525.0,1635.0,-699.0,1674.0,-5848.0,1906.0
-3393.0,1468.0,-604.0,1094.0,978.0,-613.0
-3611.0,1285.0,-526.0,867.0,1362.0,-805.0
-4083.0,1233.0,-546.0,835.0,919.0,-929.0
-4162.0,1272.0,-798.0,801.0,536.0,-915.0
-4009.0,1129.0,-774.0,635.0,430.0,-967.0
-4067.0,1105.0,-673.0,533.0,298.0,-1102.0
-4259.0,1177.0,-615.0,516.0,-97.0,-1107.0
-4343.0,1269.0,-566.0,484.0,-766.0,-1050.0
-4229.0,1273.0,-493.0,396.0,-1411.0,-1033.0
-4390.0,1255.0,-479.0,298.0,-1673.0,-1009.0
-4863.0,1248.0,-779.0,280.0,-1600.0,-1013.0
-5735.0,1306.0,-868.0,361.0,-1479.0,-1065.0
-6510.0,1366.0,-1059.0,433.0,-1502.0,-1036.0
-7047.0,1508.0,-1023.0,415.0,-1597.0,-942.0
-7142.0,1562.0,-953.0,355.0,-1694.0,-962.0
-6673.0,1472.0,-1073.0,336.0,-1844.0,-1004.0
-6362.0,1237.0,-1091.0,273.0,-2390.0,-1107.0
-5989.0,896.0,-1363.0,97.0,-3636.0,-1285.0
-5432.0,606.0,-1460.0,-1296.0,-11958.0,-1569.0
-4536.0,358.0,-1626.0,-1790.0,-15604.0,-1679.0
-3464.0,351.0,-1680.0,-2157.0,-19060.0,-1846.0
1856.0,1254.0,-792.0,-2289.0,-22391.0,-2022.0
4070.0,1054.0,1124.0,-2307.0,-25389.0,-2280.0
6247.0,914.0,3464.0,-2016.0,-28563.0,-2472.0
8054.0,777.0,4427.0,-1377.0,-31518.0,-2267.0
9181.0,625.0,4650.0,-795.0,-32767.0,-1557.0
8282.0,-193.0,4212.0,-540.0,-32767.0,-565.0
4918.0,-295.0,3039.0,-808.0,-32280.0,99.0
1882.0,-230.0,2078.0,-1203.0,-29172.0,288.0
-924.0,65.0,2051.0,-1312.0,-23027.0,443.0
-2739.0,290.0,2558.0,-1127.0,-13414.0,531.0
-2691.0,683.0,2871.0,-1739.0,-2191.0,678.0
-1071.0,569.0,3437.0,-1780.0,6166.0,906.0
707.0,428.0,3282.0,-1135.0,10161.0,921.0
1932.0,390.0,3199.0,-525.0,9905.0,764.0
2572.0,356.0,3275.0,-132.0,5942.0,485.0
2708.0,417.0,3144.0,-698.0,-3329.0,121.0
2429.0,486.0,3118.0,-927.0,-4550.0,-37.0
2139.0,428.0,3203.0,-1095.0,-3757.0,-98.0
917.0,426.0,3571.0,-1003.0,-2204.0,-66.0
763.0,407.0,3724.0,-794.0,-606.0,-47.0
867.0,359.0,3760.0,-789.0,1035.0,-3.0
1133.0,274.0,3805.0,-838.0,2413.0,61.0
1399.0,220.0,3813.0,-768.0,3074.0,39.0
1600.0,170.0,3839.0,-738.0,3531.0,-25.0
1591.0,35.0,3901.0,-764.0,3751.0,-104.0
1372.0,-32.0,3854.0,-763.0,3688.0,-211.0
1111.0,-25.0,3740.0,-805.0,3943.0,-264.0
907.0,76.0,3634.0,-835.0,4647.0,-276.0
804.0,49.0,3222.0,-784.0,5667.0,-270.0
616.0,85.0,2854.0,-680.0,7180.0,-174.0
394.0,-17.0,2242.0,-435.0,8893.0,-41.0
73.0,47.0,1680.0,-78.0,10630.0,98.0
-469.0,134.0,858.0,1594.0,18863.0,995.0
-1194.0,137.0,-14.0,2278.0,20901.0,1227.0
-8620.0,1347.0,-2256.0,3029.0,22481.0,1443.0
-9081.0,1636.0,-1441.0,3516.0,23211.0,1697.0
-7869.0,1517.0,-808.0,3805.0,23508.0,1896.0
-5845.0,1168.0,-449.0,4159.0,22983.0,1893.0
-4068.0,1027.0,-532.0,4406.0,21356.0,1835.0
-3250.0,1039.0,-661.0,4247.0,18369.0,1735.0
-3772.0,764.0,-701.0,3628.0,14013.0,1526.0
-4380.0,884.0,-719.0,2819.0,8542.0,1527.0
-4234.0,1232.0,-362.0,2108.0,3731.0,1851.0
-4038.0,1228.0,-214.0,1547.0,907.0,1969.0
-4093.0,1042.0,30.0,1072.0,165.0,1753.0
-4127.0,960.0,152.0,451.0,560.0,1192.0
-4046.0,968.0,426.0,16.0,773.0,717.0
-3792.0,1023.0,361.0,-56.0,326.0,677.0
-3899.0,878.0,406.0,-267.0,-204.0,694.0
-3989.0,849.0,475.0,-654.0,-764.0,270.0
-3895.0,927.0,461.0,-607.0,-1018.0,200.0
-3904.0,976.0,390.0,-620.0,-1097.0,132.0
-4338.0,1053.0,314.0,-668.0,-1134.0,-30.0
-4737.0,1061.0,124.0,-581.0,-1319.0,-104.0
-5189.0,1100.0,3.0,-513.0,-1452.0,-112.0
-5374.0,1090.0,-22.0,-530.0,-1545.0,-222.0
-5340.0,966.0,-34.0,-532.0,-1767.0,-345.0
-5278.0,849.0,-46.0,-517.0,-2149.0,-397.0
-5247.0,657.0,-115.0,-549.0,-2713.0,-509.0
-5488.0,384.0,-203.0,-639.0,-3679.0,-692.0
-5464.0,98.0,-663.0,-837.0,-5161.0,-893.0
-5257.0,-111.0,-971.0,-1171.0,-7286.0,-1135.0
-4065.0,-257.0,-1433.0,-1492.0,-10094.0,-1427.0
-2146.0,-168.0,-1578.0,-1829.0,-13324.0,-1662.0
153.0,412.0,-1626.0,-2233.0,-17030.0,-1852.0
2036.0,722.0,-696.0,-2526.0,-20865.0,-1894.0
3884.0,406.0,1006.0,-2563.0,-25249.0,-1856.0
5556.0,455.0,2277.0,-1066.0,-32767.0,-563.0
7748.0,908.0,2350.0,-746.0,-32750.0,685.0
9576.0,757.0,2914.0,-1251.0,-32265.0,1386.0
1756.0,-673.0,2450.0,-1496.0,-29077.0,1374.0
-1714.0,-390.0,3673.0,-1159.0,-22651.0,1522.0
-3467.0,131.0,4198.0,-1316.0,-12481.0,1271.0
-1616.0,579.0,3840.0,-2326.0,-715.0,706.0
1100.0,460.0,3328.0,-2162.0,6985.0,245.0
3253.0,386.0,3047.0,-939.0,9298.0,169.0
4356.0,334.0,3172.0,99.0,6943.0,258.0
3948.0,433.0,3254.0,903.0,2600.0,461.0
2653.0,468.0,3257.0,927.0,337.0,151.0
1371.0,411.0,3334.0,128.0,-3283.0,-167.0
696.0,434.0,3449.0,-748.0,-4968.0,-315.0
876.0,422.0,3592.0,-985.0,-3230.0,-309.0
1537.0,423.0,3693.0,-569.0,-1006.0,-344.0
2124.0,437.0,3609.0,-192.0,979.0,-295.0
2319.0,386.0,3594.0,-147.0,2300.0,-239.0
2146.0,350.0,3568.0,-420.0,200.0,-396.0
1890.0,291.0,3532.0,-470.0,-334.0,-410.0
1683.0,254.0,3531.0,-447.0,-224.0,-426.0
1781.0,273.0,3946.0,-401.0,325.0,-419.0
2142.0,258.0,4254.0,-314.0,903.0,-400.0
2570.0,185.0,4408.0,-247.0,1291.0,-361.0
3081.0,-2.0,4529.0,-206.0,1406.0,-335.0
3360.0,-207.0,4364.0,-158.0,1396.0,-332.0
3337.0,-415.0,4096.0,-112.0,1428.0,-343.0
3168.0,-575.0,4006.0,-195.0,2024.0,-234.0
3283.0,-447.0,3550.0,-367.0,3378.0,-17.0
3456.0,-146.0,2345.0,-544.0,5689.0,312.0
2769.0,81.0,341.0,-614.0,8833.0,646.0
1478.0,376.0,-2214.0,-328.0,12329.0,934.0
-633.0,804.0,-4332.0,233.0,16283.0,1322.0
-4735.0,901.0,-5474.0,1076.0,20844.0,2010.0
-9234.0,1478.0,-5261.0,2017.0,25537.0,2719.0
-12013.0,2710.0,-3413.0,2969.0,29887.0,3280.0
-12068.0,2699.0,-1330.0,4469.0,32723.0,4494.0
-9285.0,2304.0,-522.0,4241.0,32352.0,3735.0
-5582.0,1715.0,-226.0,3864.0,27848.0,3160.0
-1532.0,1596.0,-355.0,2624.0,19357.0,2654.0
-2413.0,1511.0,-554.0,1638.0,9441.0,2850.0
-2990.0,1595.0,-411.0,1198.0,1546.0,3453.0
-2914.0,1657.0,-65.0,576.0,-2510.0,3542.0
-2951.0,1541.0,365.0,34.0,-3602.0,3273.0
-3130.0,1402.0,593.0,-644.0,-2883.0,2627.0
-3520.0,1291.0,657.0,-1004.0,-1597.0,1634.0
-3730.0,1196.0,704.0,-1055.0,-848.0,982.0
-3661.0,1173.0,713.0,-1076.0,-557.0,737.0
-3630.0,1206.0,779.0,-1142.0,-304.0,538.0
-3698.0,1166.0,724.0,-1203.0,52.0,317.0
-3655.0,1191.0,664.0,-1155.0,267.0,165.0
-3623.0,1229.0,644.0,-1063.0,184.0,71.0
-3812.0,1285.0,578.0,-944.0,-225.0,58.0
-4096.0,1292.0,442.0,-800.0,-732.0,48.0
-4634.0,1378.0,112.0,-467.0,-1489.0,-17.0
-5492.0,1363.0,-263.0,-364.0,-1581.0,-74.0
-6481.0,1339.0,-747.0,-309.0,-1700.0,-99.0
-7086.0,871.0,-1040.0,-277.0,-1981.0,-152.0
-6422.0,526.0,-1296.0,-352.0,-2655.0,-290.0
-5820.0,287.0,-2144.0,-586.0,-4132.0,-478.0
-4418.0,243.0,-3194.0,-939.0,-6789.0,-740.0
-1963.0,465.0,-3734.0,-1548.0,-10778.0,-1213.0
1136.0,1111.0,-3991.0,-2294.0,-16078.0,-1705.0
4328.0,1479.0,-2321.0,-2627.0,-22092.0,-1884.0
7156.0,1851.0,1106.0,-2525.0,-28969.0,-1994.0
10283.0,2075.0,2755.0,-1804.0,-32767.0,-1797.0
13445.0,1521.0,3982.0,-956.0,-32767.0,-1140.0
13124.0,37.0,3991.0,122.0,-32687.0,-143.0
7732.0,-9.0,1181.0,351.0,-32767.0,702.0
2731.0,-246.0,866.0,-351.0,-32767.0,667.0
-2065.0,220.0,1823.0,-660.0,-29374.0,1042.0
-7001.0,841.0,3199.0,-944.0,14871.0,219.0
-4725.0,1418.0,3044.0,-281.0,12226.0,1056.0
5480.0,1133.0,3176.0,952.0,3801.0,1404.0
3783.0,1329.0,2863.0,1527.0,2094.0,934.0
1909.0,1371.0,2881.0,741.0,-1131.0,244.0
635.0,1283.0,3080.0,-358.0,-5479.0,-131.0
379.0,1181.0,3156.0,-436.0,-4399.0,-458.0
1122.0,1107.0,3235.0,-70.0,-2202.0,-469.0
2040.0,1062.0,3332.0,477.0,-453.0,-191.0
2621.0,1065.0,3257.0,714.0,1945.0,-42.0
2661.0,1039.0,3096.0,467.0,2594.0,34.0
2320.0,988.0,2987.0,205.0,1402.0,23.0
1886.0,912.0,3082.0,15.0,256.0,-90.0
1570.0,803.0,3298.0,-162.0,-514.0,-193.0
1480.0,753.0,3603.0,-226.0,-589.0,-254.0
1642.0,664.0,3857.0,-263.0,187.0,-278.0
1808.0,726.0,3916.0,-292.0,1211.0,-267.0
2143.0,845.0,3962.0,-457.0,2844.0,-106.0
2425.0,843.0,3864.0,-489.0,3261.0,-19.0
2341.0,887.0,3688.0,-478.0,3974.0,59.0
1753.0,551.0,2964.0,-435.0,4994.0,127.0
1298.0,676.0,3030.0,-533.0,6805.0,331.0
1368.0,754.0,2184.0,-564.0,8781.0,512.0
1255.0,1033.0,263.0,-518.0,11139.0,763.0
405.0,1694.0,-2589.0,-403.0,13978.0,1110.0
-1799.0,1986.0,-4476.0,46.0,16789.0,1444.0
-6357.0,1673.0,-5166.0,637.0,20023.0,1917.0
-11252.0,2051.0,-4119.0,1229.0,23501.0,2580.0
-13458.0,2278.0,-1492.0,2254.0,26552.0,3439.0
-11217.0,2074.0,-260.0,3553.0,28935.0,4411.0
-6669.0,2076.0,167.0,4165.0,31691.0,5057.0
-3267.0,1977.0,400.0,3588.0,32767.0,4139.0
-2102.0,1911.0,401.0,2912.0,31344.0,2347.0
-2610.0,1329.0,148.0,2083.0,24905.0,1320.0
-3595.0,1234.0,-215.0,1342.0,14770.0,1278.0
-3848.0,1634.0,-329.0,239.0,-2499.0,2723.0
-3152.0,1995.0,-45.0,-818.0,-1127.0,2402.0
-2456.0,1800.0,398.0,-1299.0,47.0,1590.0
-3795.0,1597.0,634.0,-882.0,-672.0,1145.0
-3664.0,1674.0,763.0,-453.0,-1784.0,1046.0
-3308.0,1588.0,896.0,-537.0,-1895.0,882.0
-3041.0,1527.0,825.0,-797.0,-818.0,524.0
-3218.0,1534.0,761.0,-729.0,266.0,138.0
-3473.0,1544.0,639.0,-477.0,392.0,12.0
-3920.0,1578.0,222.0,-381.0,-268.0,78.0
-4620.0,1665.0,-60.0,-425.0,-1060.0,118.0
-5263.0,1724.0,-198.0,-447.0,-1530.0,120.0
-5727.0,1724.0,-378.0,-406.0,-1602.0,64.0
-6148.0,1645.0,-840.0,-357.0,-1556.0,-65.0
-6093.0,1610.0,-1194.0,-345.0,-1808.0,-192.0
-6013.0,1344.0,-966.0,-316.0,-2554.0,-311.0
-6442.0,887.0,-842.0,-399.0,-3872.0,-516.0
-5947.0,874.0,-1888.0,-639.0,-5942.0,-822.0
-4007.0,962.0,-2985.0,-2057.0,-18827.0,-2272.0
-876.0,1288.0,-3648.0,-2660.0,-25267.0,-2802.0
2155.0,1742.0,-2317.0,-2166.0,-32215.0,-2571.0
11959.0,1932.0,273.0,-1365.0,-32767.0,-1363.0
11139.0,477.0,772.0,-862.0,-32681.0,100.0
7143.0,-690.0,13.0,-660.0,-32742.0,1171.0
3194.0,-1211.0,943.0,-879.0,-32767.0,1726.0
-2143.0,-1215.0,3840.0,-1748.0,-31808.0,2493.0
-4795.0,348.0,5354.0,-3179.0,-21934.0,2990.0
-3309.0,1982.0,4537.0,-3852.0,-5059.0,1615.0
640.0,2062.0,2845.0,-3624.0,7424.0,107.0
3739.0,1399.0,2546.0,-2795.0,12775.0,55.0
5295.0,954.0,3093.0,-1265.0,12890.0,257.0
5037.0,891.0,3254.0,892.0,8662.0,654.0
3518.0,865.0,3215.0,2227.0,2758.0,1004.0
1905.0,1064.0,3189.0,1211.0,-4186.0,297.0
987.0,1347.0,3154.0,-802.0,-6609.0,-567.0
840.0,1533.0,3200.0,-1649.0,-5389.0,-944.0
1203.0,1443.0,3404.0,-45.0,2037.0,-1047.0
1550.0,1271.0,3420.0,128.0,2572.0,-797.0
1723.0,1130.0,3361.0,135.0,1857.0,-646.0
1924.0,1079.0,3305.0,-103.0,1007.0,-595.0
1953.0,1038.0,3374.0,-336.0,304.0,-636.0
1901.0,1036.0,3372.0,-339.0,-123.0,-711.0
1851.0,1011.0,3439.0,-269.0,-107.0,-727.0
1745.0,1017.0,3467.0,-255.0,59.0,-699.0
1610.0,1008.0,3425.0,-280.0,267.0,-646.0
1601.0,1050.0,3511.0,-345.0,613.0,-584.0
1945.0,1063.0,3642.0,-378.0,999.0,-530.0
2507.0,1042.0,3795.0,-356.0,1408.0,-487.0
3120.0,962.0,3857.0,-350.0,1878.0,-447.0
3636.0,674.0,3606.0,-293.0,2243.0,-448.0
3985.0,496.0,2978.0,-264.0,2611.0,-445.0
4062.0,515.0,2270.0,-306.0,3191.0,-352.0
3430.0,968.0,1320.0,-498.0,4574.0,-76.0
2193.0,1441.0,-777.0,-775.0,6946.0,238.0
97.0,2033.0,-2474.0,206.0,18888.0,1415.0
-1982.0,2194.0,-3489.0,1268.0,24105.0,1752.0
-4769.0,1827.0,-3612.0,2263.0,28502.0,1970.0
-10017.0,1853.0,-148.0,2973.0,31900.0,2367.0
-7955.0,1975.0,647.0,2978.0,32767.0,2738.0
-5570.0,1916.0,740.0,2492.0,32697.0,2597.0
-4261.0,1749.0,618.0,2118.0,31147.0,1766.0
-3875.0,1468.0,332.0,2145.0,26514.0,748.0
-3838.0,1392.0,198.0,2490.0,19218.0,266.0
-3705.0,1425.0,110.0,2284.0,11017.0,328.0
-3663.0,1555.0,154.0,1910.0,4146.0,494.0
-3659.0,1459.0,497.0,1298.0,72.0,658.0
-3799.0,1307.0,722.0,563.0,-1795.0,690.0
-4021.0,1287.0,826.0,7.0,-2520.0,550.0
-4152.0,1331.0,862.0,-158.0,-2978.0,182.0
-4227.0,1348.0,850.0,-112.0,-3408.0,-235.0
-4222.0,1334.0,1011.0,-152.0,-3427.0,-491.0
-4145.0,1265.0,1022.0,-174.0,-2343.0,-890.0
-4154.0,1248.0,968.0,-171.0,-2851.0,-904.0
-3646.0,1179.0,935.0,-170.0,-3610.0,-924.0
-3504.0,1237.0,1233.0,-169.0,-4575.0,-860.0
-3409.0,1141.0,1257.0,-141.0,-5565.0,-825.0
-3540.0,1137.0,1255.0,-174.0,-6443.0,-814.0
-3705.0,1119.0,1356.0,-186.0,-7311.0,-739.0
-3982.0,929.0,1495.0,-154.0,-8018.0,-694.0
-4431.0,868.0,1960.0,-173.0,-8488.0,-734.0
-5000.0,828.0,2111.0,-271.0,-8777.0,-790.0
-5729.0,939.0,1495.0,-366.0,-9253.0,-839.0
-5753.0,1224.0,148.0,-475.0,-10028.0,-1047.0
-4744.0,1523.0,-498.0,-732.0,-11421.0,-1387.0
-1678.0,1494.0,-443.0,-912.0,-14027.0,-1902.0
2819.0,1607.0,139.0,-760.0,-17537.0,-2279.0
8230.0,2298.0,-442.0,-622.0,-21643.0,-2103.0
11878.0,2278.0,-1214.0,-500.0,-26299.0,-1343.0
11273.0,942.0,-882.0,-885.0,-30494.0,-59.0
5705.0,-1127.0,2131.0,-948.0,-24842.0,-138.0
754.0,-1538.0,4205.0,-2059.0,-16028.0,-724.0
1855.0,1377.0,3628.0,-3048.0,-5917.0,-969.0
3482.0,623.0,3853.0,-3142.0,918.0,-69.0
3665.0,624.0,3630.0,-1850.0,3866.0,1414.0
3228.0,979.0,3385.0,-152.0,5280.0,2143.0
2616.0,1140.0,3094.0,866.0,2432.0,1524.0
2470.0,1033.0,3008.0,532.0,-1448.0,365.0
2382.0,970.0,2931.0,-539.0,-2745.0,-578.0
2054.0,1084.0,2759.0,-479.0,-2268.0,-856.0
1849.0,1208.0,2910.0,208.0,-885.0,-724.0
1762.0,1199.0,3072.0,359.0,284.0,-713.0
1868.0,1033.0,3195.0,93.0,857.0,-830.0
2021.0,889.0,3219.0,-101.0,1327.0,-869.0
2215.0,816.0,3156.0,9.0,1682.0,-873.0
2317.0,861.0,3158.0,86.0,1928.0,-880.0
2487.0,869.0,3198.0,-15.0,2058.0,-948.0
2648.0,870.0,3200.0,-491.0,2899.0,-789.0
2622.0,850.0,3291.0,-562.0,3845.0,-644.0
2545.0,733.0,3215.0,-684.0,5175.0,-451.0
587.0,562.0,2292.0,-857.0,6975.0,-163.0
-480.0,606.0,1735.0,-1010.0,9087.0,169.0
-1377.0,775.0,1458.0,-1127.0,11544.0,586.0
-1864.0,921.0,997.0,-1105.0,14155.0,925.0
-2350.0,991.0,565.0,-943.0,16726.0,1073.0
-2582.0,863.0,169.0,-523.0,19178.0,1207.0
-3104.0,892.0,-137.0,-24.0,20964.0,1342.0
-4190.0,820.0,-195.0,512.0,21873.0,1474.0
-5419.0,950.0,-447.0,989.0,22193.0,1519.0
-6462.0,1125.0,-299.0,1361.0,22072.0,1624.0
-6795.0,1320.0,-425.0,1717.0,21907.0,1694.0
-6604.0,1569.0,-437.0,2161.0,21470.0,1460.0
-5756.0,1591.0,-364.0,2385.0,20491.0,1016.0
-4916.0,1488.0,-275.0,2435.0,18770.0,614.0
-4506.0,1395.0,-87.0,2421.0,16287.0,440.0
-4197.0,1340.0,-40.0,1701.0,5365.0,204.0
-4088.0,1235.0,28.0,1214.0,2602.0,129.0
-4086.0,1091.0,149.0,726.0,567.0,-13.0
-4039.0,1100.0,593.0,382.0,-712.0,-122.0
-3883.0,1032.0,663.0,74.0,-1405.0,-166.0
-3735.0,1006.0,636.0,-214.0,-1584.0,-289.0
-3762.0,1030.0,639.0,-402.0,-1418.0,-395.0
-3880.0,1030.0,520.0,-412.0,-1256.0,-453.0
-4047.0,1043.0,566.0,-388.0,-1164.0,-458.0
-4148.0,1046.0,552.0,-408.0,-1103.0,-426.0
-4183.0,1035.0,529.0,-391.0,-967.0,-320.0
-4243.0,1036.0,532.0,-302.0,-725.0,-271.0
-4108.0,1021.0,628.0,-233.0,-447.0,-238.0
-3969.0,1022.0,649.0,-194.0,-200.0,-186.0
-4121.0,1016.0,637.0,-162.0,-179.0,-190.0
-4214.0,1026.0,690.0,-150.0,-316.0,-143.0
-4449.0,985.0,381.0,-144.0,-523.0,-120.0
-5080.0,1037.0,144.0,-158.0,-767.0,-113.0
-5969.0,1073.0,-377.0,-252.0,-1315.0,-82.0
-7241.0,1167.0,-1005.0,-314.0,-1729.0,-119.0
-8352.0,1191.0,-1294.0,-351.0,-2614.0,-230.0
-7447.0,233.0,-4736.0,-465.0,-4101.0,-439.0
-4571.0,414.0,-7401.0,-763.0,-6840.0,-797.0
-529.0,596.0,-8006.0,-1248.0,-11318.0,-1361.0
4002.0,725.0,-5657.0,-1947.0,-17299.0,-2189.0
8769.0,1177.0,-807.0,-2642.0,-25343.0,-3166.0
13367.0,1050.0,1667.0,-2835.0,-32767.0,-3388.0
16840.0,1070.0,2252.0,-2352.0,-32767.0,-2350.0
14914.0,-447.0,1251.0,-1718.0,-32635.0,-968.0
5899.0,-1128.0,893.0,-1389.0,-32761.0,42.0
-569.0,-1178.0,1862.0,-1320.0,-32767.0,530.0
-6802.0,-897.0,4335.0,-1564.0,-31927.0,490.0
-6574.0,125.0,3970.0,-1859.0,-19347.0,725.0
577.0,-1.0,2918.0,-2200.0,2468.0,1063.0
5444.0,-180.0,2649.0,-2164.0,13635.0,1489.0
7774.0,-146.0,3408.0,-270.0,-4890.0,1385.0
6370.0,56.0,3774.0,-762.0,-8971.0,189.0
1042.0,-36.0,3509.0,-817.0,-6642.0,-467.0
2274.0,39.0,3638.0,-311.0,-2184.0,-492.0
3055.0,152.0,3544.0,-66.0,1422.0,-62.0
3110.0,141.0,3485.0,-235.0,3699.0,341.0
2602.0,77.0,3388.0,-325.0,2812.0,296.0
1985.0,20.0,3238.0,-269.0,666.0,12.0
1524.0,18.0,3177.0,-206.0,-751.0,-202.0
1390.0,24.0,3310.0,-124.0,-1052.0,-315.0
1629.0,51.0,3442.0,-115.0,-217.0,-315.0
1955.0,25.0,3716.0,-159.0,1038.0,-276.0
2257.0,-37.0,4183.0,-156.0,2011.0,-269.0
2668.0,-80.0,4429.0,-139.0,2476.0,-324.0
2941.0,-145.0,4571.0,-75.0,2442.0,-406.0
3378.0,-210.0,3950.0,-63.0,2285.0,-457.0
3406.0,-236.0,3638.0,-120.0,2432.0,-437.0
3078.0,-349.0,3076.0,-590.0,6622.0,263.0
2381.0,-350.0,2676.0,-689.0,9407.0,619.0
1516.0,-153.0,1735.0,-624.0,12872.0,1000.0
-2010.0,588.0,-920.0,-277.0,16710.0,1253.0
-3889.0,551.0,-1067.0,270.0,20807.0,1723.0
-6142.0,699.0,-892.0,1157.0,24941.0,2359.0
-7529.0,1246.0,-454.0,2247.0,28347.0,2875.0
-7628.0,1564.0,277.0,2904.0,30137.0,3049.0
-6593.0,1532.0,428.0,3496.0,30125.0,2893.0
-5331.0,1274.0,287.0,3792.0,28701.0,2463.0
-4333.0,967.0,106.0,3929.0,25797.0,1918.0
-3834.0,867.0,-31.0,4132.0,21181.0,1530.0
-3580.0,1045.0,-149.0,4004.0,15777.0,1323.0
-3606.0,1068.0,137.0,3466.0,10185.0,1313.0
-3502.0,947.0,399.0,2840.0,5284.0,1475.0
-3181.0,798.0,480.0,2086.0,1942.0,1525.0
-3149.0,724.0,533.0,1587.0,-46.0,1250.0
-3420.0,706.0,516.0,1390.0,-1196.0,810.0
-3869.0,737.0,505.0,352.0,-1760.0,-144.0
-4199.0,751.0,583.0,128.0,-1080.0,-217.0
-4157.0,704.0,682.0,43.0,-370.0,-388.0
-4310.0,592.0,589.0,2.0,49.0,-509.0
-5054.0,568.0,400.0,-52.0,-67.0,-572.0
-5525.0,600.0,469.0,-131.0,-512.0,-581.0
-5839.0,576.0,520.0,-218.0,-994.0,-556.0
-6221.0,558.0,628.0,-280.0,-1311.0,-578.0
-6378.0,449.0,141.0,-373.0,-1583.0,-618.0
-5995.0,325.0,-189.0,-460.0,-2128.0,-673.0
-5003.0,135.0,-20.0,-575.0,-3307.0,-812.0
-4668.0,-138.0,-27.0,-835.0,-5290.0,-958.0
-4344.0,-6.0,-577.0,-1162.0,-8152.0,-1080.0
-3302.0,264.0,-1547.0,-1444.0,-11568.0,-1108.0
-2098.0,471.0,-1863.0,-1715.0,-15418.0,-1083.0
37.0,701.0,-1745.0,-1997.0,-19316.0,-1314.0
3335.0,772.0,-656.0,-2263.0,-23228.0,-1822.0
6529.0,1163.0,1637.0,-2037.0,-27486.0,-1954.0
10378.0,1177.0,2331.0,-969.0,-32767.0,-595.0
12898.0,582.0,2334.0,-834.0,-32733.0,-548.0
11292.0,-696.0,2047.0,-1044.0,-31079.0,-646.0
-3886.0,-806.0,3377.0,-1839.0,-23996.0,-329.0
-4076.0,-151.0,3661.0,-3135.0,-12561.0,-289.0
337.0,30.0,3280.0,-3786.0,1122.0,-108.0
3876.0,-199.0,3041.0,-3490.0,8850.0,666.0
5250.0,-429.0,3030.0,-2638.0,10879.0,1173.0
4575.0,-375.0,3203.0,-1540.0,8321.0,1480.0
2971.0,-226.0,3170.0,-537.0,2063.0,1326.0
1923.0,-56.0,3109.0,-488.0,-2594.0,340.0
1905.0,50.0,3215.0,-1103.0,-5551.0,-775.0
2443.0,-32.0,3499.0,-1498.0,-5381.0,-1188.0
2640.0,-46.0,3435.0,-1152.0,-3009.0,-939.0
2338.0,-8.0,3109.0,-668.0,-806.0,-618.0
1905.0,46.0,3005.0,-505.0,355.0,-467.0
1694.0,25.0,3061.0,-555.0,323.0,-485.0
1877.0,46.0,3007.0,-732.0,208.0,-537.0
2288.0,117.0,2836.0,-826.0,1213.0,-572.0
2706.0,172.0,2628.0,-811.0,1105.0,-622.0
2994.0,216.0,2626.0,-804.0,691.0,-730.0
3924.0,156.0,2854.0,-795.0,272.0,-853.0
3884.0,73.0,2637.0,-848.0,213.0,-940.0
3484.0,-298.0,2704.0,-951.0,657.0,-998.0
3156.0,-509.0,2775.0,-1085.0,1527.0,-1016.0
2432.0,-743.0,2750.0,-1200.0,2791.0,-1001.0
1816.0,-803.0,2630.0,-1392.0,4503.0,-953.0
1140.0,-971.0,2326.0,-1611.0,6824.0,-821.0
397.0,-925.0,2107.0,-1782.0,9255.0,-845.0
-469.0,-1085.0,1923.0,-1685.0,11674.0,-888.0
-1164.0,-1215.0,1319.0,-1508.0,14390.0,-972.0
-1564.0,-1286.0,388.0,-1131.0,16708.0,-1159.0
-2310.0,-1412.0,-780.0,-718.0,18965.0,-1282.0
-3959.0,-1477.0,-1250.0,-268.0,20902.0,-1364.0
-6237.0,-1324.0,-1204.0,237.0,22433.0,-1247.0
-7979.0,-539.0,-757.0,693.0,23792.0,-806.0
-8237.0,276.0,-231.0,3172.0,24665.0,-230.0
-7419.0,600.0,-85.0,4084.0,23668.0,-670.0
-6486.0,357.0,-121.0,4874.0,21006.0,-1061.0
-5571.0,71.0,-171.0,5195.0,16378.0,-1082.0
-5401.0,228.0,-67.0,4782.0,11037.0,-805.0
-4909.0,108.0,60.0,3868.0,6492.0,-608.0
-4464.0,-125.0,331.0,2850.0,3529.0,-508.0
-4321.0,-383.0,590.0,2084.0,1695.0,-468.0
-4584.0,-485.0,733.0,1564.0,311.0,-479.0
-4728.0,-377.0,806.0,1139.0,-1042.0,-498.0
-4755.0,-293.0,955.0,683.0,-2070.0,-444.0
-4777.0,-329.0,1048.0,150.0,-2244.0,-405.0
-4456.0,-418.0,1039.0,-254.0,-1509.0,-454.0
-4341.0,-403.0,935.0,-457.0,-635.0,-523.0
-4470.0,-352.0,917.0,-435.0,-265.0,-475.0
-4614.0,-345.0,842.0,-347.0,-579.0,-286.0
-5025.0,-311.0,650.0,-290.0,-1240.0,-99.0
-5342.0,-298.0,687.0,-116.0,-2735.0,163.0
-5553.0,-278.0,567.0,-191.0,-3514.0,126.0
-4758.0,-505.0,-543.0,-319.0,-4763.0,39.0
-3579.0,-511.0,-1016.0,-554.0,-6507.0,-150.0
-1931.0,-472.0,-1168.0,-876.0,-9072.0,-409.0
-98.0,-764.0,-815.0,-1240.0,-12437.0,-658.0
1209.0,-810.0,-32.0,-1630.0,-16152.0,-930.0
2286.0,-543.0,521.0,-1986.0,-20212.0,-1326.0
3705.0,-462.0,1202.0,-2056.0,-24171.0,-1557.0
4989.0,-596.0,1979.0,-2038.0,-26912.0,-1489.0
5733.0,-707.0,2375.0,-2059.0,-28051.0,-1462.0
6724.0,-684.0,2769.0,-1778.0,-28247.0,-1661.0
6901.0,-850.0,3235.0,-964.0,-28091.0,-1302.0
5526.0,-1032.0,3233.0,-612.0,-26643.0,-424.0
3782.0,-1177.0,3281.0,-763.0,-23374.0,157.0
1898.0,-1228.0,3421.0,-968.0,-18976.0,265.0
607.0,-1186.0,3421.0,-1013.0,-13060.0,459.0
327.0,-1053.0,3345.0,-1334.0,6308.0,927.0
579.0,-1043.0,3378.0,-1302.0,7941.0,771.0
1176.0,-1091.0,3382.0,-1180.0,6916.0,370.0
1980.0,-1037.0,3470.0,-950.0,4778.0,-168.0
1839.0,-1037.0,3448.0,-794.0,2479.0,-604.0
1734.0,-1058.0,3330.0,-772.0,431.0,-826.0
1675.0,-1074.0,3283.0,-694.0,-686.0,-924.0
1630.0,-1110.0,3301.0,-646.0,-806.0,-951.0
1627.0,-1099.0,3303.0,-665.0,-368.0,-882.0
1688.0,-1096.0,3355.0,-706.0,244.0,-763.0
1732.0,-1087.0,3324.0,-759.0,773.0,-675.0
1723.0,-1081.0,3278.0,-803.0,1109.0,-650.0
1719.0,-1098.0,3357.0,-840.0,1320.0,-676.0
1800.0,-1092.0,3579.0,-877.0,1343.0,-716.0
2095.0,-1100.0,3838.0,-921.0,1276.0,-728.0
2499.0,-1133.0,3894.0,-1001.0,1291.0,-717.0
2708.0,-1293.0,3964.0,-1092.0,1387.0,-724.0
2933.0,-1606.0,3774.0,-1168.0,1528.0,-733.0
2647.0,-1754.0,4139.0,-1584.0,3631.0,-371.0
2485.0,-1705.0,3871.0,-1793.0,5740.0,-79.0
2300.0,-1446.0,3326.0,-1768.0,8505.0,178.0
-684.0,-1843.0,-3241.0,-1371.0,11886.0,443.0
-5146.0,-1986.0,-4351.0,-808.0,15788.0,724.0
-10008.0,-1532.0,-3620.0,-185.0,20101.0,1331.0
-13116.0,-297.0,-1388.0,425.0,24265.0,2147.0
-12231.0,288.0,95.0,1117.0,28390.0,3081.0
-8632.0,385.0,178.0,1588.0,32051.0,3535.0
-5436.0,20.0,270.0,1878.0,32767.0,2778.0
-3411.0,-469.0,148.0,1972.0,32206.0,1724.0
-2340.0,-752.0,538.0,1813.0,27188.0,1165.0
-2560.0,-647.0,717.0,1427.0,17294.0,585.0
-2856.0,-331.0,835.0,1124.0,5455.0,553.0
-2501.0,-204.0,993.0,602.0,-2677.0,1309.0
-2183.0,-211.0,1234.0,-312.0,-5824.0,2168.0
-2188.0,-284.0,1523.0,-1048.0,-5727.0,2324.0
-2470.0,-287.0,1621.0,-1170.0,-4467.0,1717.0
-2909.0,-263.0,1705.0,-737.0,-2706.0,909.0
-3206.0,-293.0,1814.0,-707.0,-1404.0,691.0
-3217.0,-325.0,1905.0,-608.0,-138.0,388.0
-2458.0,-568.0,1807.0,-490.0,481.0,122.0
-2291.0,-642.0,1563.0,-408.0,395.0,-73.0
-2312.0,-710.0,1585.0,-366.0,-259.0,-194.0
-2626.0,-797.0,1594.0,-320.0,-1154.0,-277.0
-3168.0,-817.0,1250.0,-287.0,-1902.0,-371.0
-4132.0,-825.0,870.0,-248.0,-2250.0,-488.0
-5051.0,-775.0,750.0,-159.0,-2257.0,-585.0
-5481.0,-783.0,611.0,-41.0,-1939.0,-621.0
-5235.0,-780.0,505.0,81.0,-1467.0,-761.0
-4593.0,-884.0,114.0,175.0,-1179.0,-917.0
-4210.0,-1066.0,-39.0,238.0,-1272.0,-1050.0
-3967.0,-1131.0,-115.0,234.0,-2060.0,-1313.0
-3039.0,-1122.0,-405.0,35.0,-3780.0,-1683.0
-1565.0,-1198.0,-653.0,-244.0,-6603.0,-2117.0
367.0,-1345.0,-710.0,-492.0,-10464.0,-2598.0
1989.0,-1279.0,-155.0,-931.0,-24674.0,-4353.0
3926.0,-901.0,411.0,-727.0,-28709.0,-4497.0
5957.0,-754.0,2556.0,-352.0,-31433.0,-4201.0
8317.0,-1336.0,4750.0,101.0,-32381.0,-3578.0
5455.0,-1677.0,3682.0,650.0,-32332.0,-2836.0
2898.0,-1868.0,3185.0,538.0,-29210.0,-2213.0
305.0,-1963.0,3266.0,-302.0,-22960.0,-1854.0
-1238.0,-1841.0,3559.0,-928.0,-14653.0,-1416.0
-796.0,-1562.0,3908.0,-1362.0,-3717.0,-673.0
539.0,-1479.0,4433.0,-1738.0,6508.0,-243.0
1895.0,-1459.0,4772.0,-1798.0,12850.0,-245.0
2957.0,-1442.0,4778.0,-1744.0,13900.0,-461.0
3417.0,-1348.0,4421.0,-1544.0,10896.0,-770.0
3404.0,-1404.0,3776.0,-1209.0,7207.0,-887.0
2742.0,-1360.0,3312.0,-998.0,4149.0,-844.0
1635.0,-1210.0,2931.0,-985.0,2264.0,-645.0
616.0,-1146.0,2589.0,-991.0,3274.0,-184.0
-76.0,-1115.0,2133.0,-951.0,6478.0,316.0
-799.0,-1056.0,1513.0,-422.0,17276.0,808.0
-1845.0,-936.0,867.0,-354.0,19034.0,941.0
-2920.0,-951.0,691.0,-289.0,19797.0,1212.0
-4753.0,-1091.0,1331.0,-118.0,19892.0,1448.0
-4877.0,-1007.0,1394.0,112.0,19446.0,1656.0
-5038.0,-1030.0,1104.0,416.0,18735.0,1915.0
-5015.0,-1083.0,839.0,617.0,17866.0,1815.0
-5027.0,-1069.0,707.0,775.0,16631.0,1294.0
-4986.0,-1044.0,719.0,984.0,14711.0,721.0
-4590.0,-1017.0,803.0,1055.0,12188.0,411.0
-4046.0,-1094.0,1158.0,950.0,9306.0,324.0
-3672.0,-1217.0,1339.0,849.0,6581.0,351.0
-3455.0,-1216.0,1483.0,830.0,4163.0,322.0
-3211.0,-1182.0,1659.0,808.0,2042.0,254.0
-3043.0,-1162.0,1568.0,735.0,430.0,211.0
-2966.0,-1105.0,1487.0,566.0,-555.0,128.0
-2831.0,-1142.0,1398.0,409.0,-1138.0,-89.0
-2956.0,-1176.0,1399.0,538.0,-610.0,-171.0
-3287.0,-1181.0,1459.0,591.0,65.0,-234.0
-3099.0,-1071.0,1437.0,618.0,700.0,-314.0
-3086.0,-1147.0,1323.0,683.0,1111.0,-399.0
-3257.0,-1184.0,1178.0,773.0,1179.0,-449.0
-3521.0,-1181.0,1123.0,880.0,865.0,-484.0
-3553.0,-1159.0,1076.0,939.0,472.0,-454.0
-3440.0,-1114.0,1269.0,939.0,488.0,-410.0
-3264.0,-1128.0,1309.0,888.0,890.0,-458.0
-3442.0,-1151.0,1161.0,824.0,1370.0,-549.0
-4008.0,-1141.0,903.0,793.0,1671.0,-621.0
-4781.0,-1151.0,153.0,745.0,1702.0,-680.0
-5861.0,-1051.0,115.0,695.0,1514.0,-761.0
-6285.0,-1119.0,-49.0,622.0,1268.0,-839.0
-5883.0,-1176.0,236.0,502.0,1229.0,-857.0
-4958.0,-1355.0,550.0,370.0,1363.0,-897.0
-4068.0,-1359.0,288.0,243.0,1139.0,-969.0
-3440.0,-1492.0,-61.0,-496.0,-5310.0,-1954.0
-2974.0,-1454.0,-565.0,-912.0,-9270.0,-2628.0
-1925.0,-1565.0,-485.0,-1167.0,-14145.0,-3277.0
4132.0,-1637.0,2151.0,-1337.0,-19332.0,-3514.0
5676.0,-1378.0,3859.0,-1304.0,-24153.0,-3386.0
6908.0,-1179.0,4488.0,-1187.0,-27825.0,-3064.0
7157.0,-1160.0,4300.0,-938.0,-30604.0,-2604.0
5657.0,-1452.0,3665.0,-504.0,-32139.0,-2148.0
3514.0,-1788.0,2904.0,-58.0,-31858.0,-1565.0
980.0,-1951.0,2608.0,-59.0,-27768.0,-609.0
-1212.0,-2159.0,2831.0,-748.0,-20213.0,215.0
-1540.0,-2277.0,2928.0,-1422.0,-10342.0,755.0
-295.0,-2179.0,2814.0,-2045.0,-384.0,1146.0
1324.0,-2131.0,2657.0,-2374.0,6151.0,1221.0
2259.0,-1935.0,2661.0,-2363.0,8271.0,872.0
2416.0,-1896.0,2832.0,-2311.0,6667.0,433.0
2254.0,-2008.0,3026.0,-2269.0,3130.0,270.0
1934.0,-2061.0,3081.0,-1923.0,-370.0,214.0
1509.0,-2060.0,2951.0,-1063.0,-2011.0,176.0
1188.0,-2110.0,2846.0,-1009.0,-239.0,272.0
1034.0,-2171.0,2794.0,-1030.0,1310.0,240.0
1636.0,-2344.0,3145.0,-1100.0,2140.0,158.0
1901.0,-2470.0,3236.0,-1254.0,2397.0,89.0
1830.0,-2478.0,3106.0,-1399.0,2302.0,-52.0
1581.0,-2496.0,3063.0,-1450.0,1978.0,-280.0
1376.0,-2578.0,2986.0,-1439.0,1676.0,-528.0
1025.0,-2607.0,2858.0,-1433.0,1626.0,-669.0
684.0,-2645.0,2895.0,-1425.0,2125.0,-636.0
640.0,-2713.0,2970.0,-1444.0,3173.0,-509.0
653.0,-2788.0,2980.0,-1460.0,4355.0,-386.0
892.0,-2811.0,2852.0,-1506.0,5566.0,-247.0
968.0,-2880.0,2673.0,-1541.0,6730.0,-137.0
984.0,-2764.0,2454.0,-1519.0,7586.0,-90.0
787.0,-2706.0,2061.0,-1533.0,8322.0,-21.0
366.0,-2660.0,1490.0,-1581.0,9181.0,107.0
-459.0,-2731.0,954.0,-1562.0,10273.0,325.0
-1490.0,-2785.0,-122.0,-887.0,15938.0,1352.0
-2813.0,-2812.0,-950.0,-667.0,17993.0,1750.0
-4567.0,-2897.0,-1025.0,-412.0,19729.0,2157.0
-7178.0,-2174.0,-99.0,-64.0,20528.0,2479.0
-6123.0,-1976.0,343.0,271.0,20506.0,2538.0
-4652.0,-1933.0,258.0,538.0,19933.0,2105.0
-3787.0,-2051.0,364.0,847.0,18272.0,1411.0
-3362.0,-2219.0,306.0,1113.0,15137.0,879.0
-3424.0,-2271.0,372.0,1250.0,11075.0,430.0
-3591.0,-2262.0,447.0,1175.0,7054.0,22.0
-3770.0,-2243.0,488.0,911.0,3645.0,-97.0
-3799.0,-2233.0,521.0,590.0,1289.0,-69.0
-3693.0,-2235.0,589.0,230.0,543.0,-121.0
-3512.0,-2233.0,758.0,-41.0,629.0,-70.0
-3150.0,-2269.0,717.0,-169.0,854.0,-117.0
-3011.0,-2260.0,778.0,-269.0,838.0,-228.0
-2937.0,-2313.0,752.0,-342.0,490.0,-304.0
-2868.0,-2308.0,685.0,-398.0,-21.0,-335.0
-2891.0,-2327.0,656.0,-499.0,-1041.0,-342.0
-3187.0,-2289.0,660.0,-499.0,-1031.0,-400.0
-3450.0,-2309.0,688.0,-490.0,-1064.0,-435.0
-3902.0,-2318.0,356.0,-425.0,-1073.0,-481.0
-3834.0,-2390.0,329.0,-370.0,-1191.0,-601.0
-3620.0,-2432.0,260.0,-373.0,-1474.0,-716.0
-3306.0,-2499.0,337.0,-402.0,-2052.0,-834.0
-2921.0,-2597.0,348.0,-434.0,-2998.0,-1038.0
-2496.0,-2766.0,424.0,-527.0,-4323.0,-1289.0
-2228.0,-2917.0,437.0,-710.0,-6002.0,-1542.0
-2125.0,-2865.0,518.0,-880.0,-8078.0,-1795.0
-1692.0,-2689.0,499.0,-1015.0,-10405.0,-2000.0
-1119.0,-2706.0,742.0,-1177.0,-12728.0,-2205.0
-549.0,-2771.0,1124.0,-1321.0,-14903.0,-2375.0
227.0,-2648.0,1371.0,-1459.0,-16846.0,-2578.0
1440.0,-2633.0,2006.0,-1474.0,-18763.0,-2833.0
2761.0,-2657.0,2673.0,-1405.0,-20400.0,-2849.0
3878.0,-2852.0,3290.0,-1486.0,-21438.0,-2605.0
4734.0,-3002.0,3302.0,-1525.0,-21677.0,-1424.0
4270.0,-3011.0,2634.0,-1754.0,-19272.0,-932.0
2603.0,-2987.0,2080.0,-2114.0,-15462.0,-347.0
-337.0,-3297.0,1236.0,-2513.0,-10350.0,-9.0
215.0,-3372.0,1485.0,-2736.0,-5167.0,166.0
1293.0,-3424.0,1633.0,-2823.0,-1029.0,582.0
1912.0,-3579.0,1748.0,-3000.0,1531.0,952.0
2058.0,-3804.0,1950.0,-3028.0,2002.0,787.0
1843.0,-3947.0,2035.0,-2773.0,624.0,561.0
1498.0,-3899.0,1961.0,-2456.0,-1000.0,556.0
1223.0,-3788.0,1834.0,-2220.0,-2003.0,366.0
952.0,-3753.0,1729.0,-2087.0,-2190.0,23.0
661.0,-3800.0,1745.0,-2016.0,-1525.0,-69.0
607.0,-3835.0,1752.0,-1879.0,-573.0,10.0
805.0,-3859.0,1883.0,-1646.0,105.0,87.0
1105.0,-3839.0,1932.0,-1438.0,411.0,114.0
1423.0,-3759.0,1951.0,-1362.0,491.0,88.0
1661.0,-3726.0,1931.0,-945.0,-661.0,-481.0
1615.0,-3691.0,1905.0,-767.0,-790.0,-493.0
1371.0,-3630.0,1730.0,-687.0,-635.0,-438.0
1467.0,-3652.0,1890.0,-679.0,-191.0,-399.0
1918.0,-3737.0,2012.0,-708.0,347.0,-302.0
2602.0,-3727.0,2189.0,-745.0,787.0,-179.0
3414.0,-3633.0,2164.0,-682.0,1017.0,-129.0
4007.0,-3553.0,2108.0,-620.0,1229.0,-196.0
4455.0,-3552.0,1517.0,-625.0,1510.0,-243.0
4377.0,-3489.0,744.0,-684.0,2089.0,-131.0
3320.0,-3433.0,-374.0,-706.0,3470.0,79.0
1078.0,-3432.0,-1387.0,-670.0,5671.0,335.0
-1824.0,-3817.0,-2043.0,-676.0,8730.0,642.0
-3717.0,-4275.0,-2162.0,-638.0,12407.0,968.0
-5265.0,-4621.0,-1764.0,-488.0,16528.0,1423.0
-6359.0,-4523.0,-1003.0,-262.0,20869.0,2147.0
-6838.0,-3732.0,-600.0,-129.0,24672.0,3076.0
-6158.0,-2498.0,-102.0,431.0,23991.0,3409.0
-4619.0,-1597.0,264.0,1048.0,19976.0,2382.0
-2815.0,-1733.0,577.0,1779.0,14617.0,1616.0
-1076.0,-3567.0,892.0,2420.0,8802.0,1207.0
-1685.0,-3501.0,769.0,2474.0,3967.0,576.0
-2334.0,-3422.0,717.0,1687.0,419.0,49.0
-2699.0,-3424.0,767.0,542.0,-1653.0,-32.0
-2643.0,-3540.0,862.0,-189.0,-2026.0,1.0
-2280.0,-3621.0,999.0,-543.0,-1182.0,16.0
-1687.0,-3572.0,1010.0,-596.0,-226.0,15.0
-1398.0,-3418.0,1022.0,-622.0,219.0,-4.0
-1325.0,-3308.0,1019.0,-727.0,9.0,-24.0
-1472.0,-3267.0,986.0,-852.0,-666.0,-51.0
-1645.0,-3302.0,1014.0,-895.0,-1443.0,-69.0
-1699.0,-3384.0,973.0,-796.0,-1957.0,-90.0
-1709.0,-3406.0,1025.0,-649.0,-2090.0,-91.0
-1564.0,-3403.0,1035.0,-574.0,-1781.0,-50.0
-1499.0,-3404.0,984.0,-573.0,-1369.0,-53.0
-1600.0,-3418.0,892.0,-583.0,-1261.0,-231.0
-1945.0,-3403.0,760.0,-547.0,-1380.0,-320.0
-2486.0,-3361.0,426.0,-543.0,-1458.0,-395.0
-3957.0,-3396.0,-436.0,-581.0,-1395.0,-462.0
-3908.0,-3382.0,-711.0,-668.0,-1358.0,-563.0
-3230.0,-3369.0,-1129.0,-780.0,-1700.0,-709.0
-2110.0,-3293.0,-1551.0,-928.0,-2790.0,-927.0
-1011.0,-3332.0,-1898.0,-1176.0,-4824.0,-1233.0
83.0,-3396.0,-1766.0,-1434.0,-8071.0,-1624.0
1076.0,-3758.0,-1214.0,-1560.0,-12100.0,-2033.0
2055.0,-3865.0,-772.0,-1677.0,-15839.0,-2499.0
3355.0,-4028.0,-134.0,-1881.0,-19179.0,-2875.0
4930.0,-3963.0,628.0,-2174.0,-21389.0,-3061.0
5600.0,-4076.0,1279.0,-2383.0,-23012.0,-3109.0
5182.0,-4132.0,1425.0,-2520.0,-23525.0,-2971.0
4046.0,-4156.0,1266.0,-2410.0,-23257.0,-2682.0
2700.0,-4035.0,1018.0,-2139.0,-22307.0,-2045.0
1624.0,-4050.0,780.0,-1993.0,-19359.0,-1265.0
954.0,-4117.0,803.0,-2014.0,-5781.0,359.0
518.0,-4280.0,799.0,-1891.0,-2581.0,557.0
577.0,-4393.0,763.0,-1795.0,-901.0,627.0
1614.0,-4163.0,827.0,-1756.0,-356.0,615.0
1993.0,-4091.0,731.0,-1702.0,-693.0,501.0
2077.0,-4059.0,747.0,-1545.0,-1325.0,288.0
1948.0,-4078.0,776.0,-1258.0,-1786.0,44.0
1738.0,-4114.0,857.0,-958.0,-2169.0,-103.0
1516.0,-4145.0,855.0,-773.0,-2212.0,-101.0
1473.0,-4133.0,871.0,-686.0,-1964.0,-88.0
1540.0,-4134.0,832.0,-665.0,-1514.0,-58.0
1443.0,-4122.0,829.0,-644.0,-886.0,10.0
1331.0,-4135.0,785.0,-606.0,-161.0,65.0
1314.0,-4136.0,812.0,-554.0,336.0,57.0
1429.0,-4118.0,829.0,-503.0,611.0,8.0
1698.0,-4082.0,832.0,-465.0,820.0,-66.0
2157.0,-4071.0,894.0,-430.0,1024.0,-140.0
2730.0,-4031.0,884.0,-376.0,1129.0,-190.0
3557.0,-4017.0,772.0,-112.0,1600.0,-252.0
4175.0,-4003.0,637.0,-77.0,2148.0,-220.0
4595.0,-4048.0,809.0,-72.0,3259.0,-126.0
3431.0,-4183.0,-383.0,-89.0,5267.0,92.0
1018.0,-4554.0,-1453.0,-68.0,7895.0,406.0
-1678.0,-4864.0,-2209.0,133.0,11078.0,917.0
-3885.0,-5088.0,-2597.0,583.0,15047.0,1590.0
-5830.0,-4844.0,-2129.0,843.0,19434.0,2547.0
-6534.0,-4321.0,-1504.0,910.0,23853.0,3478.0
-5897.0,-3350.0,-879.0,1019.0,27056.0,4045.0
-4644.0,-2386.0,-130.0,1323.0,27550.0,4532.0
-3073.0,-2030.0,334.0,1734.0,25257.0,4873.0
-1651.0,-2493.0,704.0,2398.0,21276.0,4509.0
-912.0,-3174.0,727.0,3188.0,16728.0,4037.0
-1098.0,-3513.0,640.0,3649.0,11634.0,3597.0
-1562.0,-3387.0,588.0,3680.0,6822.0,2834.0
-1888.0,-3194.0,610.0,2990.0,3131.0,2183.0
-1807.0,-3238.0,804.0,1711.0,808.0,1815.0
-1198.0,-3363.0,780.0,-51.0,-938.0,743.0
-586.0,-3472.0,731.0,-128.0,-1207.0,572.0
-443.0,-3518.0,756.0,-384.0,-1749.0,405.0
-1530.0,-3650.0,552.0,-629.0,-2401.0,204.0
-1835.0,-3642.0,738.0,-732.0,-2776.0,99.0
-1666.0,-3597.0,616.0,-776.0,-2351.0,38.0
-1382.0,-3537.0,677.0,-757.0,-1716.0,-94.0
-839.0,-3517.0,816.0,-731.0,-1423.0,-200.0
-214.0,-3543.0,790.0,-649.0,-1558.0,-298.0
-87.0,-3574.0,837.0,-495.0,-2219.0,-454.0
-616.0,-3711.0,733.0,-348.0,-3329.0,-598.0
-1293.0,-3821.0,563.0,-262.0,-4397.0,-691.0
-2084.0,-3879.0,216.0,-244.0,-4954.0,-810.0
-2774.0,-3807.0,45.0,-302.0,-5087.0,-903.0
-2668.0,-3747.0,-277.0,-421.0,-4544.0,-967.0
-1930.0,-3689.0,-294.0,-560.0,-3770.0,-1063.0
-708.0,-3688.0,-250.0,-706.0,-3567.0,-1171.0
486.0,-3784.0,-94.0,-807.0,-10914.0,-2314.0
1156.0,-3935.0,168.0,-812.0,-12939.0,-2686.0
1770.0,-4249.0,1231.0,-840.0,-14342.0,-2829.0
1950.0,-4284.0,1235.0,-878.0,-14697.0,-2750.0
2322.0,-4266.0,1088.0,-804.0,-14507.0,-2603.0
2570.0,-4174.0,1329.0,-629.0,-14006.0,-2320.0
2623.0,-4096.0,1376.0,-520.0,-13011.0,-1832.0
2424.0,-4074.0,1513.0,-579.0,-11699.0,-1511.0
2039.0,-4122.0,1495.0,-529.0,-10378.0,-1516.0
1641.0,-4100.0,1443.0,-336.0,-9253.0,-1444.0
1289.0,-4051.0,1308.0,-154.0,-7720.0,-1220.0
1198.0,-4085.0,1394.0,-4.0,-6278.0,-969.0
1304.0,-4060.0,1416.0,15.0,-4711.0,-702.0
1519.0,-3976.0,1311.0,21.0,-3179.0,-520.0
1856.0,-3947.0,1228.0,25.0,-2086.0,-420.0
1783.0,-3880.0,955.0,54.0,-1388.0,-404.0
1289.0,-3730.0,816.0,55.0,-971.0,-479.0
831.0,-3727.0,752.0,335.0,-331.0,-536.0
482.0,-3730.0,756.0,389.0,40.0,-538.0
509.0,-3722.0,717.0,458.0,281.0,-429.0
1785.0,-3573.0,677.0,461.0,439.0,-309.0
1573.0,-3694.0,795.0,429.0,267.0,-321.0
1504.0,-3789.0,796.0,487.0,-436.0,-434.0
1690.0,-3742.0,910.0,524.0,-1178.0,-561.0
1902.0,-3856.0,963.0,535.0,-1592.0,-661.0
2294.0,-3902.0,947.0,548.0,-1614.0,-566.0
2546.0,-3866.0,1047.0,472.0,-1331.0,-453.0
3249.0,-3837.0,1009.0,357.0,-1204.0,-380.0
3953.0,-3760.0,1340.0,330.0,-1058.0,-289.0
4382.0,-3636.0,2004.0,370.0,-878.0,-315.0
4932.0,-3540.0,2437.0,436.0,-762.0,-247.0
5208.0,-3580.0,2400.0,590.0,-316.0,-144.0
5690.0,-3547.0,1335.0,772.0,484.0,28.0
5388.0,-3544.0,69.0,812.0,1906.0,215.0
4265.0,-3635.0,-1600.0,716.0,4239.0,488.0
2084.0,-3364.0,-2743.0,-596.0,15891.0,2076.0
-202.0,-3543.0,-3411.0,-845.0,20589.0,2662.0
-2653.0,-3639.0,-3872.0,-910.0,24497.0,3219.0
-7735.0,-4080.0,-1439.0,-615.0,27076.0,3912.0
-7037.0,-3490.0,-500.0,-198.0,28159.0,4786.0
-5234.0,-2721.0,-133.0,153.0,27007.0,5296.0
-3178.0,-2622.0,63.0,485.0,24409.0,5285.0
-1751.0,-2994.0,206.0,882.0,21126.0,4758.0
-1423.0,-3415.0,222.0,1529.0,16643.0,4169.0
-2153.0,-3493.0,138.0,1951.0,11506.0,3622.0
-2766.0,-3231.0,123.0,1943.0,5966.0,2834.0
-2523.0,-3082.0,308.0,1443.0,1457.0,2151.0
-1500.0,-3220.0,385.0,657.0,-993.0,1742.0
-874.0,-3392.0,650.0,33.0,-1331.0,1580.0
-929.0,-3496.0,839.0,-321.0,-792.0,1513.0
-1437.0,-3417.0,840.0,-468.0,-666.0,1367.0
-2029.0,-3335.0,664.0,-609.0,-1526.0,1181.0
-2622.0,-3280.0,518.0,-838.0,-2723.0,1115.0
-2785.0,-3276.0,906.0,-1040.0,-2048.0,908.0
-1563.0,-3274.0,1046.0,-981.0,-1838.0,776.0
182.0,-3246.0,1113.0,-965.0,-2462.0,563.0
-894.0,-3615.0,904.0,-946.0,-3827.0,286.0
-2481.0,-3575.0,547.0,-894.0,-5389.0,31.0
-3509.0,-3528.0,384.0,-832.0,-6426.0,-64.0
-3803.0,-3522.0,191.0,-770.0,-5896.0,-75.0
-3481.0,-3559.0,89.0,-809.0,-3667.0,-42.0
-2700.0,-3631.0,-147.0,-880.0,-1191.0,-30.0
-1896.0,-3702.0,-259.0,-831.0,-283.0,-157.0
-1122.0,-3710.0,-277.0,-788.0,-1562.0,-445.0
-498.0,-3737.0,-105.0,-856.0,-4265.0,-857.0
-347.0,-3878.0,213.0,-966.0,-7669.0,-1315.0
-104.0,-3852.0,183.0,-1101.0,-11237.0,-1766.0
484.0,-3853.0,311.0,-1162.0,-14423.0,-2124.0
1488.0,-3781.0,610.0,-1125.0,-16788.0,-2249.0
2713.0,-3802.0,1152.0,-1070.0,-18119.0,-2183.0
3332.0,-4025.0,1816.0,-1081.0,-18691.0,-2078.0
3439.0,-4075.0,1681.0,-771.0,-18649.0,-1651.0
3016.0,-3981.0,1489.0,-750.0,-16915.0,-1458.0
2476.0,-3914.0,1289.0,-880.0,-13950.0,-1162.0
1075.0,-3888.0,1029.0,-1024.0,-10738.0,-914.0
1038.0,-3982.0,1162.0,-1019.0,-7827.0,-624.0
1211.0,-3974.0,1390.0,-949.0,-5348.0,-264.0
1438.0,-3843.0,1382.0,-852.0,-3579.0,63.0
1595.0,-3781.0,1378.0,-720.0,-2517.0,248.0
1592.0,-3808.0,1374.0,-575.0,-1986.0,307.0
1519.0,-3789.0,1302.0,-454.0,-1847.0,267.0
1533.0,-3742.0,1281.0,-265.0,-1721.0,225.0
1554.0,-3707.0,1190.0,-37.0,-1758.0,179.0
1418.0,-3713.0,1150.0,70.0,-1653.0,146.0
1154.0,-3719.0,1117.0,23.0,-1275.0,125.0
1064.0,-3785.0,1138.0,3.0,-917.0,131.0
1206.0,-3751.0,1122.0,-6.0,-555.0,122.0
1508.0,-3734.0,1111.0,-12.0,-205.0,76.0
1698.0,-3691.0,1146.0,-33.0,75.0,28.0
1743.0,-3692.0,1165.0,32.0,2.0,-71.0
1678.0,-3737.0,1103.0,110.0,-84.0,-104.0
1664.0,-3748.0,1133.0,133.0,61.0,-114.0
3156.0,-3714.0,1119.0,99.0,491.0,-94.0
3659.0,-3670.0,994.0,37.0,1055.0,-59.0
3836.0,-3639.0,814.0,-23.0,1575.0,-17.0
3607.0,-3637.0,534.0,-55.0,2058.0,8.0
3431.0,-3618.0,-56.0,-70.0,2774.0,63.0
2903.0,-3619.0,-594.0,-75.0,4090.0,219.0
2138.0,-3375.0,-1353.0,-96.0,6042.0,445.0
710.0,-3445.0,-1368.0,-122.0,8618.0,712.0
-1660.0,-3836.0,-1030.0,-174.0,11723.0,1074.0
-3425.0,-4035.0,-1501.0,-189.0,15305.0,1562.0
-4990.0,-4445.0,-1154.0,75.0,18988.0,2051.0
-5844.0,-4572.0,-955.0,576.0,21812.0,2526.0
-6117.0,-4269.0,-197.0,933.0,24456.0,3295.0
-5466.0,-3738.0,181.0,1053.0,25836.0,3870.0
-4357.0,-3133.0,529.0,2025.0,15008.0,2207.0
-3257.0,-2950.0,772.0,2448.0,10820.0,1470.0
-1855.0,-3307.0,547.0,2611.0,6802.0,986.0
-1755.0,-3275.0,553.0,2319.0,3737.0,699.0
-1817.0,-3295.0,640.0,1669.0,1749.0,643.0
-1854.0,-3330.0,734.0,1074.0,538.0,716.0
-2010.0,-3336.0,839.0,721.0,-66.0,804.0
-2089.0,-3347.0,874.0,574.0,-275.0,737.0
-1990.0,-3334.0,818.0,452.0,-190.0,652.0
-1868.0,-3346.0,813.0,290.0,-66.0,548.0
-1802.0,-3347.0,877.0,156.0,120.0,427.0
-1720.0,-3334.0,833.0,74.0,220.0,323.0
-1660.0,-3343.0,832.0,21.0,63.0,213.0
-1656.0,-3361.0,826.0,-22.0,-279.0,137.0
-1741.0,-3390.0,880.0,-55.0,-711.0,92.0
-1772.0,-3398.0,854.0,-85.0,-985.0,32.0
-1888.0,-3378.0,787.0,-110.0,-1102.0,-50.0
-2129.0,-3398.0,765.0,-166.0,-1094.0,-209.0
-2439.0,-3427.0,502.0,-177.0,-1078.0,-256.0
-2973.0,-3407.0,369.0,-202.0,-1183.0,-294.0
-3965.0,-3360.0,-231.0,-253.0,-1399.0,-363.0
-3789.0,-3401.0,-610.0,-357.0,-1813.0,-479.0
-3055.0,-3425.0,-1039.0,-478.0,-2640.0,-659.0
-2039.0,-3482.0,-1406.0,-633.0,-4187.0,-933.0
-1321.0,-3633.0,-1338.0,-892.0,-6494.0,-1257.0
-581.0,-3732.0,-1060.0,-1136.0,-9416.0,-1670.0
343.0,-3778.0,-762.0,-1391.0,-12990.0,-2130.0
1480.0,-3717.0,-263.0,-1618.0,-16504.0,-2526.0
3216.0,-3580.0,31.0,-1719.0,-19230.0,-2804.0
4757.0,-3687.0,821.0,-1754.0,-21406.0,-2925.0
5456.0,-3842.0,1271.0,-1702.0,-22794.0,-2865.0
5411.0,-3808.0,1086.0,-1505.0,-23790.0,-2749.0
4297.0,-3833.0,1120.0,-1186.0,-24154.0,-2655.0
2809.0,-3965.0,1047.0,-858.0,-23379.0,-2278.0
1417.0,-4107.0,1143.0,-869.0,-20432.0,-1503.0
532.0,-4119.0,1360.0,-840.0,-4936.0,-281.0
529.0,-4039.0,1428.0,-765.0,-1451.0,61.0
1063.0,-3944.0,1434.0,-700.0,215.0,294.0
1912.0,-3821.0,986.0,-561.0,343.0,445.0
1718.0,-3910.0,946.0,-421.0,-380.0,420.0
1652.0,-3929.0,1022.0,-321.0,-1114.0,213.0
1596.0,-3874.0,1056.0,-220.0,-1539.0,-23.0
1394.0,-3850.0,1107.0,-139.0,-1304.0,-100.0
987.0,-3806.0,1045.0,-96.0,-696.0,-48.0
839.0,-3864.0,1139.0,-94.0,-36.0,36.0
931.0,-3904.0,1180.0,-64.0,557.0,75.0
1176.0,-3874.0,1141.0,18.0,928.0,66.0
1432.0,-3816.0,1119.0,45.0,1212.0,59.0
1620.0,-3797.0,1038.0,49.0,1159.0,27.0
1743.0,-3796.0,991.0,2.0,938.0,-35.0
1787.0,-3764.0,1028.0,-21.0,634.0,-89.0
1616.0,-3713.0,1005.0,12.0,333.0,-137.0
1708.0,-3753.0,1159.0,39.0,270.0,-138.0
2001.0,-3756.0,1377.0,-24.0,1722.0,131.0
2799.0,-3810.0,1606.0,-39.0,2269.0,187.0
3217.0,-3742.0,1518.0,-114.0,2800.0,231.0
4431.0,-3836.0,773.0,-165.0,3472.0,303.0
4652.0,-3697.0,-49.0,-228.0,4699.0,455.0
3840.0,-3616.0,-1022.0,-264.0,6719.0,718.0
1582.0,-3814.0,-2029.0,-297.0,8946.0,901.0
-1568.0,-4031.0,-2615.0,-467.0,12369.0,1188.0
-4077.0,-4345.0,-2786.0,-354.0,16685.0,1577.0
-5766.0,-4394.0,-2425.0,138.0,20403.0,1916.0
-6733.0,-4198.0,-1509.0,495.0,23925.0,2512.0
-6520.0,-3772.0,-446.0,579.0,26766.0,3205.0
-5214.0,-3255.0,-106.0,757.0,27900.0,3817.0
-3645.0,-2811.0,250.0,1104.0,26338.0,4217.0
-2304.0,-2788.0,550.0,1621.0,22786.0,3883.0
-1473.0,-3080.0,428.0,2374.0,18693.0,3013.0
-1462.0,-3300.0,374.0,2946.0,13988.0,2230.0
-1921.0,-3292.0,239.0,3212.0,9135.0,1679.0
-2368.0,-3062.0,187.0,1773.0,1559.0,758.0
-2449.0,-2939.0,113.0,1190.0,1385.0,781.0
-2482.0,-2991.0,79.0,925.0,1563.0,800.0
-1822.0,-3225.0,684.0,798.0,1615.0,745.0
-1682.0,-3201.0,620.0,631.0,1276.0,612.0
-1876.0,-3213.0,574.0,344.0,689.0,483.0
-2218.0,-3290.0,529.0,84.0,136.0,374.0
-2459.0,-3305.0,484.0,-67.0,-374.0,283.0
-2570.0,-3276.0,409.0,-117.0,-840.0,246.0
-2696.0,-3270.0,284.0,-163.0,-983.0,207.0
-2973.0,-3268.0,256.0,-281.0,-930.0,146.0
-3045.0,-3312.0,88.0,-387.0,-955.0,57.0
-3037.0,-3342.0,19.0,-443.0,-1336.0,-56.0
-2895.0,-3374.0,-140.0,-457.0,-2090.0,-191.0
-2586.0,-3441.0,-406.0,-491.0,-3031.0,-379.0
-2279.0,-3516.0,-449.0,-574.0,-4170.0,-610.0
-1773.0,-3539.0,-867.0,-687.0,-5674.0,-864.0
-1372.0,-3544.0,-797.0,-838.0,-7593.0,-1118.0
-742.0,-3623.0,-986.0,-1436.0,-14278.0,-1905.0
-231.0,-3790.0,-688.0,-1636.0,-16398.0,-2178.0
560.0,-3793.0,-663.0,-1729.0,-18308.0,-2455.0
4421.0,-3946.0,949.0,-1760.0,-19667.0,-2623.0
4514.0,-4065.0,1399.0,-1781.0,-20613.0,-2647.0
3906.0,-4058.0,1461.0,-1653.0,-21559.0,-2582.0
2868.0,-4013.0,1380.0,-1376.0,-21770.0,-2325.0
2070.0,-3967.0,1256.0,-1173.0,-20807.0,-1948.0
1513.0,-4022.0,1232.0,-1129.0,-18043.0,-1395.0
1161.0,-4054.0,1187.0,-1215.0,-13911.0,-800.0
1143.0,-4121.0,1154.0,-1239.0,-9785.0,-410.0
1307.0,-4095.0,1153.0,-1152.0,-6462.0,-221.0
1581.0,-3987.0,1029.0,-1109.0,-4082.0,-21.0
1818.0,-3923.0,955.0,-1106.0,-2496.0,115.0
1686.0,-3870.0,876.0,-1091.0,-1937.0,81.0
1506.0,-3874.0,742.0,-1029.0,-1953.0,35.0
1433.0,-3946.0,806.0,-882.0,-2096.0,-35.0
1415.0,-3938.0,927.0,-288.0,-1000.0,-110.0
1500.0,-3857.0,903.0,-199.0,-526.0,-107.0
1211.0,-3876.0,829.0,-76.0,-129.0,-100.0
1182.0,-3890.0,808.0,65.0,-30.0,-89.0
1212.0,-3872.0,788.0,124.0,219.0,-100.0
1344.0,-3908.0,806.0,84.0,605.0,-128.0
1543.0,-3932.0,869.0,12.0,917.0,-147.0
1947.0,-3939.0,956.0,-28.0,1101.0,-149.0
2487.0,-3952.0,1081.0,-52.0,1219.0,-139.0
2913.0,-3896.0,1185.0,-64.0,1220.0,-145.0
3245.0,-3911.0,1209.0,-97.0,1248.0,-143.0
3519.0,-3900.0,1291.0,-158.0,1458.0,-99.0
3832.0,-3947.0,928.0,-205.0,1961.0,9.0
4603.0,-3890.0,387.0,-263.0,3050.0,238.0
5219.0,-3782.0,-282.0,-321.0,4726.0,509.0
4676.0,-3521.0,-1441.0,-421.0,6860.0,738.0
2588.0,-3585.0,-2267.0,-527.0,9531.0,1038.0
-619.0,-3919.0,-2535.0,102.0,19272.0,1970.0
-3786.0,-4267.0,-2653.0,492.0,22587.0,2344.0
-6170.0,-4489.0,-1737.0,662.0,25058.0,3028.0
-5368.0,-3517.0,432.0,793.0,26651.0,3954.0
-3835.0,-3077.0,924.0,1290.0,26051.0,4695.0
-2184.0,-3017.0,1143.0,2122.0,22864.0,4426.0
-1192.0,-3261.0,1136.0,3150.0,19147.0,3253.0
-1386.0,-3452.0,1036.0,3792.0,15230.0,2073.0
-2194.0,-3336.0,846.0,4119.0,10588.0,1323.0
-2878.0,-3082.0,659.0,4031.0,6968.0,862.0
-3031.0,-2982.0,628.0,3524.0,4664.0,525.0
-2794.0,-3051.0,620.0,2855.0,3188.0,371.0
-2437.0,-3177.0,545.0,2330.0,2973.0,432.0
-2174.0,-3180.0,529.0,1978.0,3504.0,548.0
-1937.0,-3222.0,492.0,1711.0,3475.0,539.0
-1661.0,-3269.0,444.0,1381.0,2443.0,458.0
-1581.0,-3327.0,441.0,989.0,933.0,316.0
-1602.0,-3360.0,471.0,649.0,-367.0,158.0
-1783.0,-3411.0,645.0,86.0,-1624.0,-241.0
-1731.0,-3441.0,683.0,3.0,-1548.0,-356.0
-1604.0,-3432.0,675.0,-51.0,-1456.0,-450.0
-1989.0,-3445.0,556.0,-83.0,-1463.0,-506.0
-2397.0,-3449.0,392.0,-95.0,-1664.0,-547.0
-2825.0,-3460.0,296.0,-92.0,-1997.0,-543.0
-3082.0,-3461.0,164.0,-109.0,-2087.0,-527.0
-3119.0,-3502.0,113.0,-185.0,-2022.0,-555.0
-2844.0,-3561.0,-39.0,-276.0,-2019.0,-561.0
-2434.0,-3605.0,-137.0,-353.0,-2270.0,-599.0
-1979.0,-3629.0,-286.0,-449.0,-3073.0,-689.0
-1599.0,-3655.0,-377.0,-570.0,-4593.0,-828.0
-1222.0,-3670.0,-491.0,-735.0,-6725.0,-984.0
-746.0,-3685.0,-478.0,-905.0,-9109.0,-1159.0
-148.0,-3760.0,-289.0,-1051.0,-11476.0,-1368.0
1028.0,-3567.0,-240.0,-1171.0,-13741.0,-1627.0
2335.0,-3588.0,118.0,-1264.0,-15722.0,-1899.0
3794.0,-3734.0,609.0,-1296.0,-17304.0,-2111.0
4179.0,-3869.0,1300.0,-924.0,-20485.0,-2384.0
3794.0,-3981.0,1552.0,-633.0,-20383.0,-2038.0
3103.0,-3965.0,1481.0,-563.0,-18799.0,-1546.0
1706.0,-3927.0,1255.0,-549.0,-15470.0,-942.0
1553.0,-3892.0,1238.0,-542.0,-11725.0,-442.0
1565.0,-3905.0,1195.0,-486.0,-8288.0,-171.0
1575.0,-3868.0,1174.0,-373.0,-5465.0,89.0
1517.0,-3827.0,1122.0,-348.0,-3584.0,261.0
1560.0,-3887.0,1109.0,-393.0,-2393.0,321.0
1618.0,-3879.0,1004.0,-380.0,-1854.0,294.0
1729.0,-3849.0,884.0,-338.0,-1625.0,239.0
1659.0,-3861.0,955.0,-284.0,-1430.0,176.0
1585.0,-3836.0,968.0,-233.0,-1339.0,121.0
1568.0,-3833.0,1078.0,-235.0,-1120.0,116.0
1665.0,-3834.0,1093.0,-196.0,-825.0,132.0
1585.0,-3795.0,1137.0,-119.0,-646.0,147.0
1558.0,-3814.0,1109.0,-46.0,-402.0,185.0
1574.0,-3849.0,1086.0,26.0,-246.0,206.0
1556.0,-3845.0,1054.0,54.0,-1.0,150.0
1475.0,-3863.0,1041.0,16.0,12.0,117.0
1465.0,-3865.0,1118.0,-50.0,119.0,90.0
1676.0,-3778.0,1127.0,-81.0,239.0,38.0
1703.0,-3762.0,1162.0,-75.0,249.0,-41.0
1765.0,-3742.0,1193.0,-65.0,217.0,-98.0
1873.0,-3750.0,1277.0,-56.0,213.0,-115.0
2215.0,-3761.0,1376.0,-49.0,262.0,-123.0
2595.0,-3756.0,1550.0,-63.0,457.0,-119.0
2796.0,-3740.0,1811.0,-84.0,791.0,-101.0
3463.0,-3884.0,1845.0,-100.0,1234.0,-70.0
4275.0,-4032.0,1579.0,-128.0,1774.0,-31.0
5754.0,-3924.0,908.0,-181.0,2563.0,55.0
6303.0,-3724.0,-129.0,-227.0,3874.0,246.0
4755.0,-3561.0,-1825.0,-246.0,5706.0,478.0
1404.0,-3660.0,-3358.0,-311.0,8279.0,818.0
-3007.0,-3950.0,-3958.0,-244.0,11847.0,1308.0
-6260.0,-4328.0,-3993.0,115.0,16369.0,1833.0
-8502.0,-4347.0,-2802.0,900.0,28941.0,4543.0
-8696.0,-3856.0,-938.0,881.0,31283.0,5657.0
-6794.0,-3437.0,-111.0,1270.0,29246.0,5988.0
-1302.0,-2710.0,671.0,1793.0,24391.0,5212.0
-1203.0,-3116.0,594.0,2550.0,19137.0,3941.0
-1940.0,-3138.0,436.0,2810.0,12761.0,3101.0
-2566.0,-2781.0,327.0,2633.0,6603.0,2739.0
-2621.0,-2579.0,367.0,2309.0,2616.0,2361.0
-2351.0,-2739.0,561.0,1527.0,1155.0,2048.0
-2117.0,-2983.0,652.0,731.0,1120.0,1923.0
-2067.0,-3071.0,721.0,296.0,1700.0,1922.0
-2046.0,-3074.0,926.0,220.0,1946.0,1796.0
-1720.0,-3103.0,855.0,152.0,1208.0,1544.0
-1548.0,-3106.0,818.0,-113.0,144.0,1272.0
-1598.0,-3107.0,733.0,-366.0,-547.0,973.0
-1952.0,-3187.0,614.0,-448.0,-843.0,715.0
-2534.0,-3189.0,345.0,-443.0,-1073.0,503.0
-3246.0,-3175.0,296.0,-446.0,-1463.0,332.0
-3606.0,-3215.0,211.0,-507.0,-1789.0,-104.0
-3606.0,-3255.0,48.0,-537.0,-2016.0,-284.0
-3236.0,-3300.0,-60.0,-551.0,-2752.0,-498.0
-1553.0,-3581.0,-504.0,-628.0,-4248.0,-786.0
-1395.0,-3638.0,-420.0,-760.0,-6663.0,-1094.0
-1320.0,-3674.0,-506.0,-919.0,-9454.0,-1375.0
-1105.0,-3680.0,-509.0,-1105.0,-12014.0,-1602.0
-607.0,-3687.0,-422.0,-1323.0,-14017.0,-1810.0
440.0,-3523.0,-318.0,-1520.0,-15519.0,-2059.0
2201.0,-3412.0,21.0,-1620.0,-16665.0,-2343.0
4008.0,-3469.0,1031.0,-1606.0,-17726.0,-2625.0
4736.0,-3804.0,1904.0,-1524.0,-18897.0,-2882.0
4729.0,-3949.0,2118.0,-1406.0,-20023.0,-3099.0
4300.0,-4002.0,1993.0,-1163.0,-21264.0,-3260.0
3281.0,-4047.0,1674.0,-880.0,-21592.0,-3078.0
2038.0,-4055.0,1436.0,-691.0,-19984.0,-2524.0
1208.0,-4060.0,1435.0,-807.0,-16529.0,-1782.0
784.0,-4088.0,1514.0,-801.0,-1086.0,-329.0
587.0,-4018.0,1626.0,-729.0,200.0,-149.0
1666.0,-3649.0,1406.0,-557.0,453.0,-60.0
1666.0,-3633.0,1292.0,-355.0,-200.0,-104.0
1576.0,-3623.0,1290.0,-178.0,-1041.0,-255.0
1513.0,-3535.0,1236.0,-53.0,-1429.0,-364.0
1451.0,-3479.0,1367.0,62.0,-1494.0,-379.0
1512.0,-3499.0,1446.0,140.0,-1301.0,-319.0
1568.0,-3482.0,1454.0,137.0,-1015.0,-256.0
1453.0,-3500.0,1388.0,124.0,-696.0,-237.0
1220.0,-3497.0,1293.0,180.0,-526.0,-245.0
1144.0,-3532.0,1313.0,207.0,-450.0,-310.0
1246.0,-3568.0,1266.0,165.0,-387.0,-372.0
1492.0,-3586.0,1312.0,109.0,-180.0,-361.0
1741.0,-3588.0,1355.0,60.0,-49.0,-357.0
2048.0,-3577.0,1343.0,45.0,-71.0,-347.0
2231.0,-3593.0,1335.0,10.0,-178.0,-349.0
2379.0,-3597.0,1358.0,-28.0,-380.0,-290.0
2851.0,-3708.0,1617.0,-27.0,-112.0,-257.0
3447.0,-3727.0,1668.0,-27.0,399.0,-215.0
4653.0,-3754.0,1250.0,-42.0,1052.0,-152.0
4519.0,-3744.0,675.0,-111.0,1973.0,-57.0
4184.0,-3812.0,171.0,-139.0,3512.0,119.0
3197.0,-3696.0,-184.0,-98.0,5334.0,225.0
2237.0,-3579.0,-790.0,-91.0,7958.0,386.0
309.0,-3796.0,-955.0,50.0,11124.0,670.0
-1685.0,-4002.0,-1507.0,204.0,14358.0,974.0
-3905.0,-4253.0,-1444.0,319.0,18267.0,1396.0
-5213.0,-4405.0,-1049.0,567.0,21552.0,1777.0
-5818.0,-4170.0,-371.0,899.0,23541.0,2386.0
-5641.0,-3834.0,453.0,1023.0,25011.0,3128.0
-4774.0,-3310.0,859.0,1293.0,25359.0,3654.0
-3697.0,-2973.0,1248.0,1766.0,23712.0,3896.0
-2557.0,-2931.0,1318.0,2339.0,20236.0,3374.0
-1652.0,-3069.0,1258.0,3071.0,16391.0,2415.0
-1490.0,-3201.0,1163.0,3785.0,5213.0,735.0
-1971.0,-3213.0,1044.0,3304.0,2734.0,565.0
-2457.0,-3112.0,935.0,2718.0,1567.0,547.0
-2367.0,-2983.0,944.0,2291.0,1535.0,579.0
-2326.0,-3015.0,1086.0,2067.0,1892.0,554.0
-2401.0,-2956.0,1131.0,1939.0,2162.0,552.0
-2489.0,-2900.0,1147.0,1846.0,1881.0,494.0
-2601.0,-2883.0,1121.0,1747.0,1185.0,378.0
-2742.0,-2856.0,1116.0,1610.0,587.0,237.0
-2937.0,-2800.0,986.0,1493.0,263.0,81.0
-3245.0,-2722.0,937.0,1417.0,69.0,-92.0
-3347.0,-2704.0,855.0,1299.0,-217.0,-230.0
-3126.0,-2722.0,624.0,1142.0,-664.0,-357.0
-2883.0,-2723.0,329.0,983.0,-1271.0,-500.0
-2560.0,-2726.0,105.0,837.0,-2053.0,-673.0
-2103.0,-2739.0,-26.0,660.0,-3024.0,-914.0
-1513.0,-2732.0,-367.0,446.0,-4361.0,-1276.0
-860.0,-2720.0,-442.0,195.0,-6304.0,-1700.0
40.0,-2818.0,-377.0,-613.0,-13807.0,-2989.0
994.0,-2887.0,-322.0,-916.0,-16197.0,-3437.0
2482.0,-2734.0,-187.0,-1128.0,-18292.0,-3884.0
6040.0,-3492.0,2312.0,-1206.0,-19941.0,-4308.0
5017.0,-3672.0,2247.0,-1185.0,-21522.0,-4780.0
3750.0,-3566.0,1985.0,-851.0,-23067.0,-4957.0
2607.0,-3467.0,1802.0,-560.0,-22294.0,-4131.0
1909.0,-3597.0,1816.0,-825.0,-18448.0,-2842.0
1707.0,-3660.0,1909.0,-1182.0,-13728.0,-1958.0
2035.0,-3752.0,1954.0,-1247.0,-8791.0,-1377.0
2505.0,-3779.0,2014.0,-1196.0,-4377.0,-1049.0
2846.0,-3679.0,2059.0,-1189.0,-1846.0,-992.0
2880.0,-3598.0,1941.0,-1328.0,-818.0,-1139.0
2614.0,-3627.0,1867.0,-1399.0,-925.0,-1421.0
2421.0,-3714.0,1844.0,-1422.0,-1982.0,-1703.0
2260.0,-3638.0,1674.0,-1405.0,-2589.0,-1775.0
2257.0,-3608.0,1808.0,-1338.0,-2460.0,-1757.0
2420.0,-3598.0,1958.0,-1298.0,-1787.0,-1694.0
2612.0,-3563.0,2022.0,-1028.0,136.0,-1512.0
2677.0,-3523.0,1983.0,-879.0,161.0,-1545.0
2630.0,-3487.0,2019.0,-759.0,243.0,-1602.0
3019.0,-3475.0,2072.0,-654.0,411.0,-1640.0
3469.0,-3552.0,2098.0,-577.0,773.0,-1608.0
3683.0,-3482.0,2100.0,-524.0,1312.0,-1559.0
3793.0,-3439.0,2144.0,-462.0,1901.0,-1517.0
4087.0,-3437.0,2090.0,-375.0,2503.0,-1457.0
4119.0,-3342.0,1761.0,-267.0,3149.0,-1408.0
3768.0,-3228.0,1530.0,-139.0,4070.0,-1300.0
3237.0,-3223.0,1240.0,108.0,5439.0,-1175.0
2422.0,-3254.0,1087.0,299.0,6960.0,-1020.0
1896.0,-3337.0,783.0,460.0,8778.0,-813.0
620.0,-3536.0,890.0,661.0,10808.0,-653.0
192.0,-3751.0,819.0,823.0,12740.0,-402.0
-978.0,-3847.0,1056.0,892.0,14582.0,93.0
-2107.0,-3592.0,786.0,947.0,16311.0,733.0
-2996.0,-3221.0,859.0,1100.0,17905.0,1365.0
-3742.0,-2965.0,775.0,2267.0,18507.0,1774.0
-4194.0,-2599.0,1043.0,2902.0,15876.0,1414.0
-3084.0,-2230.0,1267.0,3492.0,13047.0,1606.0
-1198.0,-2726.0,2309.0,3681.0,10400.0,1824.0
-1895.0,-2659.0,2196.0,3697.0,7591.0,1838.0
-2434.0,-2313.0,2193.0,3654.0,5463.0,1685.0
-2260.0,-2123.0,2159.0,3348.0,4300.0,1270.0
-1992.0,-2236.0,2222.0,2835.0,3766.0,893.0
-1876.0,-2332.0,2262.0,2439.0,3980.0,796.0
-2009.0,-2304.0,2316.0,2415.0,4293.0,868.0
-2166.0,-2278.0,2421.0,2540.0,4176.0,981.0
-2264.0,-2233.0,2510.0,2468.0,3553.0,994.0
-2170.0,-2188.0,2602.0,2201.0,2754.0,984.0
-2058.0,-2179.0,2620.0,2018.0,2265.0,960.0
-2019.0,-2162.0,2591.0,1983.0,2288.0,856.0
-2162.0,-2110.0,2646.0,1981.0,2343.0,723.0
-2511.0,-2014.0,2581.0,2006.0,2097.0,644.0
-2779.0,-1928.0,2539.0,2010.0,1339.0,286.0
-2755.0,-1800.0,2455.0,1988.0,1234.0,211.0
-3063.0,-1422.0,1959.0,1915.0,966.0,112.0
-4218.0,-1496.0,1593.0,1798.0,561.0,-49.0
-5134.0,-1542.0,1334.0,1664.0,31.0,-280.0
-4973.0,-1316.0,43.0,1479.0,-684.0,-538.0
-3661.0,-942.0,-894.0,1206.0,-1554.0,-783.0
-422.0,-516.0,-1513.0,897.0,-2589.0,-1056.0
2197.0,-830.0,-523.0,523.0,-4378.0,-1391.0
3339.0,-1413.0,226.0,200.0,-8193.0,-1951.0
6053.0,-1392.0,-135.0,85.0,-13977.0,-2865.0
8164.0,-2149.0,2175.0,-102.0,-20348.0,-3810.0
8262.0,-3184.0,3050.0,-436.0,-25611.0,-4148.0
6736.0,-3479.0,2313.0,-1105.0,-28476.0,-3762.0
4833.0,-3620.0,2566.0,-1711.0,-30182.0,-3216.0
3275.0,-3389.0,2857.0,-1939.0,-30549.0,-2323.0
2962.0,-3033.0,2860.0,-2552.0,-25817.0,-1009.0
3766.0,-2894.0,2600.0,-1917.0,-8382.0,-990.0
4570.0,-2743.0,2304.0,-1009.0,-5854.0,-772.0
4512.0,-2680.0,1899.0,-274.0,-5753.0,-926.0
3229.0,-2218.0,1569.0,-129.0,-6030.0,-1311.0
3171.0,-2151.0,1446.0,-185.0,-5352.0,-1558.0
3095.0,-2187.0,1294.0,-47.0,-3923.0,-1498.0
3006.0,-2155.0,1184.0,334.0,-2410.0,-1321.0
3022.0,-2091.0,1111.0,649.0,-1405.0,-1193.0
3238.0,-1971.0,1046.0,701.0,-809.0,-1117.0
3481.0,-1933.0,1175.0,634.0,-675.0,-1083.0
3568.0,-1984.0,1273.0,525.0,-666.0,-1084.0
3401.0,-1998.0,1231.0,469.0,-654.0,-1072.0
3272.0,-1965.0,1175.0,493.0,-811.0,-1064.0
3354.0,-1937.0,1295.0,489.0,-904.0,-1052.0
3490.0,-1964.0,1362.0,426.0,-893.0,-1032.0
3530.0,-1942.0,1333.0,310.0,-708.0,-1005.0
3503.0,-1967.0,1359.0,252.0,-465.0,-1006.0
3446.0,-1951.0,1421.0,281.0,-386.0,-1038.0
3483.0,-1912.0,1470.0,235.0,-30.0,-1019.0
3600.0,-1864.0,1527.0,244.0,188.0,-1021.0
3800.0,-1798.0,1512.0,270.0,417.0,-1002.0
5278.0,-1746.0,1928.0,326.0,635.0,-992.0
6016.0,-1769.0,2109.0,377.0,810.0,-997.0
6640.0,-1865.0,2164.0,392.0,1025.0,-987.0
6669.0,-2074.0,2019.0,374.0,1478.0,-944.0
6331.0,-2281.0,1636.0,321.0,2288.0,-861.0
5066.0,-2525.0,1328.0,244.0,3752.0,-692.0
3450.0,-2546.0,1100.0,186.0,5970.0,-461.0
2668.0,-2350.0,469.0,140.0,8931.0,-244.0
1130.0,-2213.0,546.0,216.0,12085.0,-141.0
-181.0,-2208.0,857.0,489.0,15244.0,-68.0
-1499.0,-2119.0,1076.0,970.0,18455.0,-63.0
-3008.0,-1701.0,1046.0,1720.0,20760.0,-151.0
-4276.0,-1082.0,1242.0,2340.0,22402.0,18.0
-5156.0,-581.0,1566.0,2767.0,23545.0,82.0
-4992.0,-223.0,1920.0,3310.0,23499.0,116.0
-3677.0,23.0,2603.0,4653.0,17651.0,655.0
-2031.0,21.0,2971.0,4723.0,14471.0,723.0
-1054.0,-151.0,2780.0,4360.0,10900.0,533.0
-1810.0,-963.0,2689.0,3892.0,7195.0,180.0
-2616.0,-906.0,2621.0,3427.0,4089.0,-138.0
-3040.0,-789.0,2688.0,2893.0,1913.0,-278.0
-2831.0,-722.0,2881.0,2299.0,1117.0,-183.0
-2270.0,-748.0,3176.0,1642.0,2036.0,-84.0
-1787.0,-719.0,3198.0,1191.0,2991.0,-90.0
-1631.0,-617.0,3199.0,1108.0,3027.0,-46.0
-1795.0,-629.0,3088.0,1102.0,2127.0,12.0
-2250.0,-591.0,2776.0,1065.0,862.0,54.0
-3024.0,-438.0,2591.0,1009.0,-153.0,102.0
-3439.0,-343.0,2407.0,1029.0,-637.0,149.0
-3558.0,-323.0,2050.0,1068.0,-471.0,193.0
-3897.0,-381.0,2100.0,999.0,17.0,171.0
-3698.0,-514.0,1776.0,926.0,199.0,158.0
-3680.0,-535.0,1619.0,891.0,-184.0,174.0
-3353.0,-448.0,1009.0,218.0,-5015.0,-212.0
-2308.0,-283.0,545.0,-49.0,-7923.0,-505.0
-732.0,-253.0,367.0,-281.0,-11398.0,-823.0
4164.0,-789.0,1899.0,-315.0,-15478.0,-1070.0
4544.0,-1033.0,2202.0,-269.0,-19460.0,-1173.0
4693.0,-1117.0,2490.0,-231.0,-22774.0,-1074.0
5080.0,-1132.0,2788.0,-226.0,-24622.0,-664.0
5137.0,-1112.0,2898.0,-326.0,-24511.0,-76.0
5277.0,-992.0,2711.0,-615.0,-22464.0,163.0
5208.0,-945.0,2584.0,-654.0,-19552.0,116.0
4817.0,-879.0,2349.0,-304.0,-17044.0,204.0
3995.0,-723.0,2116.0,83.0,-14347.0,497.0
3614.0,-590.0,1807.0,402.0,-11549.0,601.0
3680.0,-503.0,1595.0,691.0,-9448.0,502.0
3828.0,-447.0,1491.0,844.0,-7408.0,439.0
3963.0,-461.0,1514.0,964.0,-5450.0,333.0
3993.0,-491.0,1522.0,1135.0,-4050.0,235.0
4003.0,-480.0,1509.0,1246.0,-3392.0,124.0
4149.0,-428.0,1509.0,1032.0,-2798.0,170.0
4160.0,-384.0,1487.0,922.0,-2436.0,120.0
4081.0,-410.0,1507.0,832.0,-1961.0,53.0
3651.0,-437.0,1553.0,734.0,-1434.0,-19.0
3545.0,-470.0,1568.0,608.0,-912.0,-65.0
3520.0,-510.0,1594.0,493.0,-395.0,-82.0
3631.0,-485.0,1694.0,375.0,171.0,-120.0
3958.0,-453.0,1811.0,300.0,496.0,-182.0
4642.0,-449.0,1914.0,263.0,692.0,-221.0
5203.0,-461.0,2106.0,229.0,813.0,-235.0
5723.0,-499.0,2164.0,183.0,882.0,-278.0
5870.0,-631.0,2091.0,147.0,975.0,-293.0
5255.0,-833.0,2135.0,133.0,1156.0,-276.0
4225.0,-882.0,1958.0,81.0,1653.0,-214.0
3273.0,-734.0,1828.0,-17.0,2981.0,-101.0
2204.0,-599.0,1890.0,-91.0,5085.0,24.0
1866.0,-375.0,2088.0,-116.0,7851.0,99.0
1646.0,-232.0,2213.0,448.0,13734.0,-153.0
1161.0,-49.0,2297.0,582.0,13086.0,-214.0
-196.0,-477.0,3608.0,636.0,12507.0,-181.0
784.0,-434.0,3834.0,724.0,11797.0,-155.0
1454.0,-379.0,3980.0,745.0,11005.0,-115.0
2127.0,-337.0,3919.0,572.0,10090.0,-79.0
1780.0,-385.0,3911.0,437.0,8384.0,-91.0
1210.0,-418.0,3716.0,489.0,6210.0,-39.0
438.0,-479.0,3740.0,593.0,4607.0,10.0
-142.0,-490.0,3631.0,721.0,3709.0,-87.0
-343.0,-437.0,3495.0,809.0,4115.0,-139.0
-441.0,-340.0,3362.0,870.0,5436.0,-234.0
-630.0,-231.0,3387.0,977.0,6698.0,-315.0
-516.0,-214.0,3325.0,1033.0,7691.0,-349.0
-888.0,-221.0,3384.0,1128.0,7999.0,-422.0
-1083.0,-196.0,3202.0,1277.0,7729.0,-452.0
-1658.0,-176.0,2947.0,1428.0,7400.0,-456.0
-2176.0,-61.0,2770.0,1488.0,7844.0,-495.0
-2401.0,108.0,2680.0,1470.0,8068.0,-434.0
-2571.0,198.0,2633.0,1446.0,8171.0,-370.0
-3055.0,250.0,2626.0,1510.0,7800.0,-350.0
-3337.0,320.0,2547.0,1544.0,7126.0,-314.0
-3506.0,387.0,2428.0,1503.0,6317.0,-321.0
-3802.0,381.0,1838.0,1426.0,5474.0,-317.0
-4865.0,440.0,1263.0,1261.0,4849.0,-324.0
-5546.0,694.0,665.0,1066.0,4250.0,-334.0
-6036.0,618.0,503.0,886.0,3469.0,-306.0
-6428.0,497.0,212.0,689.0,2496.0,-228.0
-5814.0,210.0,-226.0,475.0,1265.0,-150.0
-4330.0,-8.0,-643.0,252.0,-456.0,-109.0
-1969.0,-401.0,-1435.0,-26.0,-2918.0,-119.0
742.0,-548.0,-1649.0,-570.0,-5970.0,-111.0
4182.0,-644.0,-1162.0,-1111.0,-10330.0,-336.0
6696.0,-565.0,701.0,-1378.0,-15710.0,-597.0
8459.0,-740.0,1966.0,-1449.0,-21491.0,-918.0
8295.0,-674.0,2203.0,-624.0,-32767.0,488.0
7341.0,-610.0,2017.0,-280.0,-32362.0,1183.0
6062.0,-378.0,1870.0,-79.0,-28511.0,1008.0
4469.0,213.0,1805.0,741.0,-22202.0,485.0
4378.0,170.0,1499.0,1623.0,-15298.0,545.0
4391.0,150.0,1180.0,1990.0,-10097.0,863.0
4234.0,213.0,860.0,2114.0,-7384.0,722.0
4005.0,384.0,654.0,2017.0,-5939.0,550.0
4190.0,388.0,784.0,1857.0,-4841.0,470.0
4508.0,153.0,1023.0,1595.0,-3748.0,560.0
4753.0,84.0,1049.0,1318.0,-3125.0,788.0
4857.0,126.0,1178.0,1173.0,-2848.0,892.0
4633.0,116.0,1273.0,1117.0,-2619.0,849.0
4182.0,-10.0,1265.0,907.0,-2522.0,702.0
3813.0,-128.0,1293.0,461.0,-2277.0,719.0
3634.0,-158.0,1376.0,166.0,-2162.0,688.0
3641.0,-159.0,1514.0,104.0,-1660.0,564.0
3844.0,-194.0,1549.0,28.0,-699.0,465.0
4104.0,-230.0,1602.0,-242.0,581.0,197.0
4375.0,-248.0,1667.0,-192.0,449.0,151.0
4780.0,-216.0,1768.0,-188.0,288.0,142.0
6459.0,-239.0,2135.0,-205.0,334.0,162.0
6824.0,-301.0,1996.0,-194.0,667.0,197.0
6647.0,-434.0,1863.0,-173.0,1405.0,260.0
6279.0,-601.0,1685.0,-195.0,2546.0,354.0
5292.0,-752.0,1248.0,-293.0,4300.0,542.0
4300.0,-693.0,1205.0,-482.0,6695.0,791.0
3738.0,-730.0,1349.0,-583.0,9333.0,893.0
2910.0,-836.0,1438.0,-538.0,12301.0,890.0
1631.0,-778.0,1609.0,-462.0,15254.0,880.0
35.0,-681.0,1355.0,-346.0,17956.0,878.0
-1370.0,-265.0,1336.0,-17.0,19906.0,732.0
-1964.0,307.0,1488.0,385.0,21170.0,689.0
-2189.0,755.0,2064.0,860.0,21511.0,523.0
-1909.0,766.0,2459.0,1426.0,20819.0,455.0
-1914.0,495.0,2663.0,1804.0,19750.0,640.0
-1967.0,196.0,3002.0,2816.0,13167.0,112.0
-1462.0,120.0,2955.0,2569.0,11135.0,-271.0
-1589.0,179.0,2829.0,2067.0,9656.0,-615.0
-3187.0,255.0,2588.0,1717.0,8283.0,-823.0
-3335.0,348.0,2545.0,1615.0,7491.0,-855.0
-3459.0,423.0,2616.0,1590.0,7061.0,-951.0
-3469.0,432.0,2817.0,1517.0,6698.0,-953.0
-3231.0,328.0,2914.0,1335.0,6465.0,-857.0
-3104.0,259.0,2929.0,1163.0,6056.0,-865.0
-3122.0,260.0,2709.0,1073.0,5215.0,-833.0
-3346.0,333.0,2338.0,956.0,4166.0,-827.0
-4266.0,363.0,1657.0,806.0,3315.0,-811.0
-5423.0,546.0,1625.0,619.0,2516.0,-742.0
-5708.0,628.0,1360.0,479.0,1841.0,-633.0
-5806.0,500.0,1663.0,411.0,1317.0,-509.0
-5494.0,218.0,1251.0,326.0,778.0,-360.0
-5175.0,76.0,1056.0,166.0,107.0,-204.0
-3760.0,32.0,369.0,-1150.0,-9976.0,-44.0
-1771.0,-27.0,53.0,-1326.0,-14422.0,-405.0
6445.0,-108.0,2275.0,-1232.0,-18914.0,-734.0
6874.0,-188.0,2670.0,-1091.0,-22551.0,-1006.0
6214.0,-245.0,2541.0,-695.0,-25392.0,-933.0
4854.0,27.0,2364.0,-151.0,-27417.0,-398.0
3939.0,393.0,2665.0,88.0,-26818.0,206.0
3511.0,407.0,3174.0,3.0,-23158.0,528.0
3430.0,190.0,3279.0,142.0,-18761.0,517.0
3685.0,-22.0,2920.0,603.0,-13890.0,497.0
4213.0,-39.0,2569.0,940.0,-9331.0,696.0
4529.0,125.0,2359.0,1088.0,-6138.0,682.0
4471.0,187.0,2358.0,869.0,-4362.0,617.0
4218.0,167.0,2357.0,478.0,-4037.0,707.0
3966.0,85.0,2397.0,211.0,-4307.0,827.0
3703.0,52.0,2371.0,65.0,-3961.0,861.0
3613.0,59.0,2368.0,83.0,-3048.0,867.0
3618.0,77.0,2387.0,41.0,-145.0,442.0
3565.0,81.0,2413.0,0.0,560.0,313.0
3510.0,31.0,2472.0,-11.0,951.0,199.0
4042.0,33.0,2643.0,-54.0,1294.0,102.0
4413.0,48.0,2659.0,-121.0,1618.0,44.0
4615.0,-32.0,2862.0,-185.0,2115.0,10.0
4363.0,-149.0,2950.0,-270.0,2824.0,11.0
3978.0,-329.0,2950.0,-354.0,3559.0,50.0
3197.0,-419.0,2976.0,-452.0,4501.0,142.0
2733.0,-416.0,3081.0,-594.0,6017.0,285.0
2643.0,-327.0,2857.0,-708.0,8018.0,416.0
2166.0,-248.0,2691.0,-757.0,10249.0,447.0
1777.0,-346.0,2735.0,-731.0,12391.0,495.0
797.0,-460.0,2295.0,-609.0,14387.0,474.0
-852.0,-504.0,1873.0,-355.0,15746.0,425.0
-2450.0,-292.0,1483.0,-79.0,16923.0,354.0
-3544.0,153.0,1454.0,233.0,17792.0,289.0
-3886.0,601.0,1152.0,560.0,18585.0,531.0
-3628.0,904.0,1107.0,1953.0,18660.0,728.0
-3109.0,854.0,1487.0,2345.0,16719.0,561.0
-2658.0,657.0,2107.0,2589.0,13983.0,188.0
-2970.0,516.0,2286.0,2580.0,11166.0,-256.0
-3635.0,274.0,2082.0,2226.0,8893.0,-682.0
-4303.0,95.0,1933.0,1596.0,7238.0,-1045.0
-4548.0,91.0,1908.0,1047.0,6203.0,-1259.0
-4337.0,108.0,2245.0,755.0,5565.0,-1374.0
-3655.0,110.0,2596.0,562.0,5269.0,-1364.0
-3007.0,157.0,2675.0,307.0,4964.0,-1236.0
-2771.0,104.0,2852.0,102.0,4287.0,-1090.0
-2710.0,26.0,2731.0,89.0,3095.0,-984.0
-3158.0,46.0,2494.0,160.0,1724.0,-884.0
-3772.0,73.0,2205.0,203.0,544.0,-785.0
-4414.0,203.0,1833.0,266.0,-90.0,-648.0
-4951.0,293.0,1368.0,293.0,29.0,-498.0
-5635.0,369.0,873.0,244.0,562.0,-359.0
-6060.0,545.0,603.0,224.0,1107.0,-202.0
-6322.0,519.0,80.0,168.0,182.0,74.0
-6586.0,298.0,72.0,77.0,-1294.0,106.0
-6333.0,-42.0,-517.0,-137.0,-3418.0,150.0
84.0,-305.0,-1693.0,-595.0,-6293.0,174.0
3000.0,-175.0,-901.0,-1198.0,-10157.0,84.0
5728.0,-260.0,977.0,-1699.0,-14847.0,-220.0
7809.0,-548.0,2336.0,-1693.0,-20870.0,-713.0
7959.0,-584.0,2765.0,-1404.0,-27221.0,-1056.0
7260.0,-489.0,2996.0,-1132.0,-31819.0,-1023.0
5900.0,-298.0,3189.0,-663.0,-32767.0,-511.0
4198.0,-89.0,3315.0,-387.0,-32211.0,384.0
3409.0,-21.0,3392.0,-627.0,-27812.0,493.0
3328.0,-45.0,3268.0,-207.0,-21684.0,194.0
3522.0,-37.0,2903.0,592.0,-15201.0,83.0
3924.0,17.0,2549.0,1039.0,-8904.0,161.0
4079.0,71.0,2528.0,1249.0,-5649.0,191.0
4217.0,89.0,2480.0,1188.0,-4621.0,139.0
4584.0,121.0,2555.0,928.0,-3938.0,225.0
4702.0,182.0,2633.0,700.0,-2337.0,639.0
4751.0,220.0,2713.0,690.0,-2077.0,699.0
4630.0,199.0,2772.0,635.0,-1301.0,561.0
4517.0,118.0,2785.0,521.0,-177.0,442.0
4494.0,35.0,2764.0,341.0,1059.0,391.0
4117.0,-136.0,2725.0,124.0,2611.0,359.0
3299.0,-245.0,2563.0,-88.0,4138.0,323.0
2546.0,-260.0,2616.0,-315.0,5745.0,335.0
2179.0,-256.0,2792.0,-519.0,7736.0,431.0
2222.0,-298.0,2912.0,-670.0,9730.0,553.0
2285.0,-334.0,2607.0,-801.0,11661.0,617.0
1687.0,-353.0,2082.0,-812.0,13436.0,585.0
319.0,-478.0,1765.0,-737.0,14714.0,541.0
-1599.0,-559.0,1444.0,-660.0,15519.0,537.0
-3336.0,-380.0,1653.0,-546.0,16066.0,617.0
-3767.0,-99.0,2252.0,-266.0,16719.0,711.0
-2875.0,195.0,2611.0,143.0,17535.0,712.0
-2005.0,212.0,2439.0,531.0,18358.0,705.0
-1874.0,136.0,1879.0,1773.0,14568.0,713.0
-2226.0,300.0,1422.0,2042.0,12036.0,446.0
-2618.0,345.0,1432.0,2169.0,9915.0,76.0
-3138.0,531.0,1941.0,2212.0,8743.0,-239.0
-3244.0,470.0,1855.0,2122.0,8947.0,-404.0
-3658.0,244.0,1708.0,1891.0,9229.0,-660.0
-4076.0,43.0,1779.0,1546.0,8545.0,-1009.0
-4214.0,47.0,1756.0,1258.0,7386.0,-1221.0
-4395.0,92.0,1675.0,974.0,6364.0,-1300.0
-4502.0,122.0,1754.0,768.0,5747.0,-1239.0
-4461.0,121.0,1787.0,605.0,5517.0,-1126.0
-4315.0,129.0,1901.0,425.0,5277.0,-1087.0
-4178.0,152.0,1836.0,377.0,4605.0,-1017.0
-4091.0,130.0,1785.0,528.0,3692.0,-772.0
-4235.0,96.0,1645.0,558.0,2966.0,-616.0
-4443.0,127.0,1511.0,501.0,2382.0,-543.0
-4569.0,166.0,1559.0,478.0,1840.0,-416.0
-4495.0,213.0,1407.0,193.0,882.0,278.0
-4825.0,248.0,1124.0,107.0,406.0,379.0
-4679.0,185.0,1188.0,14.0,-371.0,462.0
-4273.0,76.0,1441.0,-46.0,-1287.0,534.0
-3441.0,-5.0,1154.0,-178.0,-2369.0,567.0
-2805.0,-1.0,1163.0,-432.0,-3681.0,586.0
-2257.0,47.0,1091.0,-706.0,-5377.0,573.0
-1974.0,107.0,1337.0,-964.0,-7396.0,514.0
-1491.0,126.0,1627.0,-1144.0,-9659.0,438.0
-378.0,135.0,1660.0,-1228.0,-11984.0,401.0
586.0,80.0,1778.0,-1153.0,-14123.0,381.0
1922.0,4.0,2311.0,-1055.0,-15754.0,179.0
3125.0,-244.0,3150.0,-954.0,-16735.0,-16.0
3730.0,-201.0,3620.0,-849.0,-17445.0,-178.0
3855.0,-105.0,3694.0,-742.0,-17981.0,-291.0
3564.0,138.0,3475.0,-605.0,-18658.0,-286.0
3060.0,175.0,3327.0,-473.0,-18990.0,-58.0
2195.0,89.0,3007.0,-122.0,-14438.0,508.0
1337.0,-76.0,3191.0,61.0,-11646.0,441.0
1435.0,-291.0,3437.0,97.0,-8802.0,330.0
3262.0,-233.0,3412.0,25.0,-6512.0,96.0
3120.0,-211.0,3273.0,-55.0,-5725.0,-124.0
3056.0,-239.0,3143.0,-131.0,-6287.0,-194.0
3189.0,-259.0,3098.0,-211.0,-7232.0,-28.0
3479.0,-180.0,3083.0,-87.0,-7828.0,255.0
3870.0,-109.0,3225.0,56.0,-7484.0,422.0
4159.0,-25.0,3229.0,177.0,-6193.0,521.0
4104.0,-4.0,3102.0,352.0,-5381.0,529.0
3897.0,49.0,3009.0,511.0,-4995.0,508.0
3693.0,72.0,2905.0,694.0,-4699.0,358.0
3564.0,76.0,2804.0,780.0,-4256.0,208.0
3454.0,105.0,2771.0,790.0,-3243.0,196.0
3409.0,103.0,2819.0,818.0,-1959.0,189.0
3550.0,131.0,2868.0,810.0,-649.0,158.0
3694.0,155.0,3050.0,747.0,632.0,124.0
3894.0,159.0,3112.0,426.0,3600.0,105.0
3965.0,135.0,3193.0,283.0,4534.0,173.0
3923.0,40.0,3232.0,131.0,5660.0,290.0
3810.0,-325.0,2972.0,-46.0,7109.0,431.0
3490.0,-362.0,2337.0,-221.0,9002.0,584.0
2485.0,-562.0,1998.0,-365.0,11093.0,645.0
1218.0,-518.0,1294.0,-445.0,13242.0,668.0
-334.0,-440.0,641.0,-439.0,15337.0,677.0
-2286.0,-120.0,-49.0,-266.0,17343.0,733.0
-4235.0,231.0,-426.0,189.0,19324.0,713.0
-5635.0,654.0,67.0,812.0,21134.0,754.0
-5861.0,908.0,491.0,1615.0,22577.0,714.0
-5397.0,1101.0,958.0,2345.0,23291.0,889.0
-4432.0,1091.0,1257.0,2973.0,22670.0,1016.0
-3611.0,958.0,1524.0,3357.0,20615.0,807.0
-3137.0,744.0,1755.0,3283.0,17614.0,448.0
-3087.0,556.0,1708.0,2938.0,13856.0,176.0
-3389.0,462.0,1816.0,2514.0,9762.0,-19.0
-3535.0,420.0,1743.0,899.0,2453.0,-34.0
-3769.0,444.0,1823.0,466.0,2116.0,-45.0
-3848.0,432.0,1906.0,210.0,2000.0,-40.0
-3816.0,495.0,2001.0,85.0,1868.0,-57.0
-3724.0,534.0,2120.0,63.0,1668.0,-47.0
-3447.0,556.0,1995.0,76.0,1426.0,-52.0
-3413.0,572.0,2096.0,94.0,1174.0,-18.0
-3433.0,527.0,2091.0,113.0,952.0,55.0
-3519.0,492.0,2054.0,114.0,686.0,145.0
-3628.0,511.0,2079.0,89.0,382.0,283.0
-3662.0,544.0,1959.0,42.0,128.0,443.0
-3828.0,562.0,1731.0,-17.0,96.0,590.0
-4422.0,670.0,1524.0,-127.0,335.0,691.0
-4954.0,736.0,1143.0,-215.0,497.0,777.0
-5620.0,824.0,694.0,-239.0,512.0,850.0
-5987.0,909.0,292.0,-242.0,428.0,906.0
-6337.0,850.0,-195.0,-241.0,234.0,954.0
-6788.0,633.0,-402.0,-260.0,-61.0,964.0
-6806.0,175.0,-853.0,-677.0,-4240.0,898.0
-6114.0,-294.0,-1526.0,-1145.0,-6843.0,837.0
-4334.0,-480.0,-2744.0,-1734.0,-10247.0,601.0
5852.0,-342.0,-610.0,-2320.0,-14649.0,282.0
8198.0,-101.0,2101.0,-2511.0,-20313.0,29.0
8793.0,92.0,3342.0,-2101.0,-26701.0,-370.0
8763.0,188.0,3582.0,-1483.0,-32130.0,-489.0
7240.0,291.0,2807.0,-370.0,-32767.0,180.0
5485.0,362.0,2226.0,931.0,-32718.0,1477.0
3685.0,464.0,2270.0,1260.0,-31680.0,2294.0
2472.0,551.0,2678.0,1701.0,-26667.0,2388.0
2472.0,605.0,2878.0,2291.0,-17984.0,2077.0
3290.0,717.0,2802.0,2529.0,-7990.0,1945.0
3850.0,806.0,2517.0,2643.0,-1242.0,1727.0
3683.0,819.0,2129.0,2434.0,1415.0,1236.0
3104.0,821.0,1837.0,2103.0,316.0,873.0
2856.0,808.0,1768.0,1877.0,-1487.0,656.0
3086.0,866.0,1956.0,1651.0,-1925.0,520.0
3575.0,907.0,2048.0,1140.0,-220.0,705.0
3881.0,941.0,2204.0,1127.0,7.0,696.0
3972.0,953.0,2374.0,1066.0,-152.0,613.0
3500.0,780.0,2560.0,925.0,-297.0,545.0
3545.0,755.0,2696.0,686.0,-63.0,490.0
3628.0,709.0,2945.0,390.0,639.0,487.0
3746.0,669.0,2993.0,85.0,1583.0,507.0
3480.0,621.0,2981.0,-189.0,2518.0,472.0
3141.0,511.0,3090.0,-415.0,3373.0,413.0
2484.0,302.0,3002.0,-612.0,4199.0,367.0
1551.0,193.0,2906.0,-809.0,5149.0,373.0
898.0,105.0,2925.0,-997.0,6269.0,446.0
590.0,66.0,3111.0,-1120.0,7565.0,530.0
603.0,113.0,3529.0,-1187.0,8858.0,537.0
1300.0,120.0,3629.0,-1224.0,9972.0,502.0
1599.0,94.0,3956.0,-1101.0,10555.0,389.0
2132.0,-15.0,4041.0,-920.0,10445.0,277.0
2836.0,-221.0,3648.0,-722.0,9918.0,1222.0
2645.0,-336.0,3184.0,-483.0,11830.0,1604.0
-7040.0,300.0,-221.0,-127.0,14579.0,2042.0
-8256.0,875.0,185.0,477.0,17781.0,2342.0
-7960.0,1063.0,835.0,1105.0,20663.0,2599.0
-6662.0,898.0,1106.0,1343.0,22701.0,2915.0
-5177.0,665.0,1490.0,1212.0,22655.0,3050.0
-3880.0,557.0,1592.0,1098.0,20227.0,2924.0
-3246.0,684.0,1709.0,1064.0,16088.0,2599.0
-3153.0,747.0,1668.0,951.0,10900.0,2380.0
-3509.0,734.0,1749.0,481.0,5809.0,2401.0
-3661.0,611.0,1769.0,54.0,2139.0,2570.0
-3486.0,688.0,1694.0,-226.0,365.0,2671.0
-3384.0,791.0,1692.0,-477.0,-198.0,2702.0
-3348.0,871.0,1879.0,-752.0,20.0,2808.0
-3283.0,941.0,2006.0,-1137.0,554.0,2950.0
-3165.0,1077.0,2136.0,-1489.0,842.0,3037.0
-2939.0,1092.0,2323.0,-1887.0,403.0,3051.0
-2592.0,1111.0,2478.0,-2035.0,226.0,3032.0
-2341.0,1079.0,2525.0,-2099.0,-170.0,3001.0
-3417.0,1139.0,1976.0,-2164.0,-651.0,2954.0
-4212.0,1030.0,1963.0,-2247.0,-1114.0,2920.0
-4658.0,850.0,1848.0,-2295.0,-1330.0,2877.0
-4806.0,744.0,1894.0,-2316.0,-1331.0,2797.0
-4555.0,573.0,1780.0,-2331.0,-1313.0,2726.0
-3995.0,430.0,1451.0,-2372.0,-1587.0,2646.0
-3043.0,296.0,1104.0,-2441.0,-2326.0,2579.0
-2182.0,123.0,694.0,-2548.0,-3630.0,2492.0
-1361.0,19.0,253.0,-2620.0,-5724.0,2304.0
-320.0,94.0,-91.0,-2603.0,-8604.0,2039.0
1077.0,509.0,-465.0,-2457.0,-12282.0,1794.0
2697.0,1013.0,-464.0,-2142.0,-15908.0,1554.0
4520.0,1013.0,-169.0,-1772.0,-19006.0,1210.0
5998.0,1001.0,340.0,-1253.0,-21627.0,840.0
7471.0,997.0,1233.0,-512.0,-23759.0,523.0
8949.0,1154.0,2205.0,1930.0,-26618.0,1119.0
9721.0,1177.0,2976.0,1992.0,-25102.0,1005.0
8566.0,1105.0,3129.0,2198.0,-22582.0,727.0
1024.0,935.0,2235.0,2590.0,-17797.0,542.0
437.0,935.0,2368.0,2626.0,-11027.0,562.0
1307.0,883.0,2400.0,2397.0,-4155.0,937.0
2804.0,830.0,2303.0,2302.0,1457.0,1298.0
3930.0,884.0,2149.0,2291.0,4920.0,1369.0
4391.0,970.0,2128.0,2240.0,5334.0,1442.0
4215.0,1087.0,2043.0,2144.0,3085.0,1462.0
3745.0,1080.0,1859.0,2109.0,370.0,1285.0
3386.0,1143.0,1755.0,2094.0,-1895.0,1057.0
3121.0,1152.0,1738.0,2112.0,-3224.0,927.0
3184.0,1211.0,1706.0,2196.0,-2849.0,976.0
3233.0,1271.0,1829.0,2297.0,-1511.0,1082.0
3297.0,1320.0,1733.0,2302.0,-254.0,1163.0
3455.0,1308.0,1757.0,2253.0,690.0,1192.0
3583.0,1284.0,1670.0,2182.0,975.0,1216.0
3662.0,1265.0,1621.0,1887.0,500.0,1250.0
3653.0,1248.0,1663.0,1732.0,302.0,1227.0
3593.0,1254.0,1522.0,1577.0,345.0,1216.0
4326.0,1161.0,2238.0,1455.0,472.0,1199.0
4625.0,1132.0,2371.0,1340.0,873.0,1182.0
4757.0,1135.0,2121.0,1208.0,1316.0,1191.0
4614.0,1158.0,2024.0,1038.0,1897.0,1214.0
4823.0,1099.0,1970.0,775.0,2771.0,1325.0
5533.0,975.0,1667.0,449.0,4023.0,1538.0
5276.0,1268.0,926.0,21.0,5988.0,1902.0
4057.0,1474.0,125.0,-436.0,8471.0,2270.0
2253.0,1474.0,-454.0,-767.0,11385.0,2479.0
554.0,1592.0,-797.0,-1124.0,14871.0,2656.0
-1151.0,1686.0,-651.0,-1541.0,18773.0,2923.0
-3107.0,1225.0,-349.0,-1523.0,22594.0,3106.0
-4929.0,724.0,486.0,-1455.0,25252.0,3212.0
-5861.0,211.0,1592.0,-1815.0,26898.0,3514.0
-5836.0,234.0,2518.0,-1895.0,27287.0,3411.0
-4755.0,534.0,3052.0,-2374.0,19459.0,2535.0
-3432.0,679.0,3126.0,-2143.0,15526.0,2229.0
-2741.0,648.0,3164.0,-1477.0,11570.0,1571.0
-3348.0,436.0,3281.0,-698.0,7487.0,839.0
-3239.0,595.0,3194.0,-302.0,4582.0,378.0
-3172.0,656.0,3052.0,-274.0,3137.0,122.0
-3195.0,552.0,2963.0,-455.0,2809.0,50.0
-3300.0,453.0,3025.0,-573.0,2686.0,154.0
-3381.0,451.0,3030.0,-574.0,2245.0,192.0
-3502.0,499.0,2998.0,-458.0,1624.0,117.0
-3849.0,536.0,2821.0,-384.0,1239.0,52.0
-4691.0,560.0,2307.0,-456.0,1120.0,73.0
-5707.0,554.0,2179.0,-519.0,938.0,87.0
-6031.0,504.0,1859.0,-458.0,412.0,73.0
-5779.0,368.0,1481.0,-337.0,-360.0,32.0
-5007.0,156.0,835.0,-255.0,-1189.0,-22.0
-3834.0,0.0,335.0,-250.0,-2105.0,-114.0
-1996.0,19.0,-445.0,-345.0,-3481.0,-307.0
-194.0,355.0,-945.0,-565.0,-14358.0,-1399.0
1981.0,994.0,-1671.0,-330.0,-19507.0,-1888.0
4700.0,1421.0,-1659.0,112.0,-24258.0,-2413.0
11326.0,1616.0,3326.0,829.0,-28341.0,-2825.0
13032.0,1379.0,4113.0,1800.0,-32077.0,-2551.0
11116.0,605.0,3210.0,2548.0,-32767.0,-1487.0
6985.0,-29.0,1792.0,2130.0,-32393.0,-916.0
2805.0,-196.0,1092.0,1803.0,-30417.0,-950.0
-1092.0,453.0,1363.0,1449.0,-24366.0,-934.0
-3237.0,757.0,2663.0,540.0,-13187.0,-816.0
-2217.0,977.0,3326.0,-572.0,-1216.0,-196.0
796.0,828.0,3393.0,-845.0,8286.0,-56.0
2850.0,512.0,3102.0,-569.0,13868.0,81.0
3914.0,370.0,2907.0,260.0,13995.0,352.0
4302.0,515.0,2751.0,902.0,9275.0,236.0
4171.0,779.0,2489.0,830.0,3817.0,52.0
3767.0,899.0,2282.0,498.0,-452.0,-208.0
3217.0,908.0,2344.0,-81.0,-3849.0,-464.0
2744.0,848.0,2526.0,194.0,-552.0,-156.0
2417.0,830.0,2634.0,224.0,1638.0,-103.0
2181.0,837.0,2788.0,69.0,3528.0,-75.0
1903.0,540.0,3677.0,-115.0,4986.0,-47.0
2127.0,441.0,4004.0,-269.0,5796.0,-1.0
2608.0,403.0,4250.0,-396.0,6166.0,-14.0
3129.0,265.0,3785.0,-561.0,6367.0,-65.0
3063.0,263.0,3247.0,-747.0,6503.0,-94.0
2358.0,233.0,2921.0,-918.0,6763.0,-64.0
1288.0,292.0,2418.0,-1034.0,7311.0,37.0
194.0,602.0,1844.0,-1075.0,8246.0,171.0
-486.0,909.0,1738.0,-1063.0,9867.0,431.0
-1030.0,1073.0,1412.0,-852.0,11947.0,598.0
-1896.0,1015.0,1191.0,-450.0,14573.0,851.0
-2824.0,887.0,1131.0,25.0,17331.0,1299.0
-3514.0,791.0,871.0,565.0,19265.0,1623.0
-4276.0,911.0,1004.0,1041.0,20202.0,1859.0
-4734.0,1078.0,1112.0,1284.0,17941.0,1709.0
-5117.0,1159.0,1458.0,1380.0,16016.0,1269.0
-3851.0,1087.0,1507.0,1447.0,13729.0,804.0
-3608.0,1114.0,1545.0,1346.0,11363.0,561.0
-3463.0,1067.0,1642.0,1079.0,8759.0,397.0
-3697.0,997.0,1687.0,828.0,5914.0,250.0
-4015.0,973.0,1729.0,665.0,3447.0,147.0
-4095.0,975.0,1779.0,544.0,1783.0,27.0
-3972.0,976.0,1855.0,365.0,822.0,-46.0
-3806.0,931.0,1935.0,153.0,511.0,-136.0
-3685.0,903.0,2008.0,-88.0,521.0,-269.0
-3488.0,897.0,2025.0,-260.0,353.0,-359.0
-3335.0,901.0,2028.0,-318.0,-154.0,-372.0
-3456.0,908.0,1961.0,-341.0,-868.0,-382.0
-3806.0,897.0,1883.0,-396.0,-1536.0,-423.0
-4351.0,906.0,1548.0,-448.0,-2049.0,-439.0
-5100.0,905.0,1293.0,-453.0,-2343.0,-404.0
-5689.0,868.0,1145.0,-519.0,-2195.0,-328.0
-5971.0,690.0,1071.0,-570.0,-2496.0,-304.0
-5751.0,472.0,946.0,-647.0,-3334.0,-322.0
-2876.0,68.0,12.0,-870.0,-4863.0,-396.0
-1457.0,407.0,-418.0,-1176.0,-7387.0,-547.0
316.0,914.0,-744.0,-1368.0,-10901.0,-775.0
2467.0,1451.0,-534.0,-1355.0,-15082.0,-996.0
3717.0,1226.0,296.0,-1198.0,-19359.0,-1282.0
4932.0,1199.0,1085.0,-859.0,-23224.0,-1663.0
6904.0,1403.0,1807.0,-204.0,-26707.0,-2001.0
9203.0,1307.0,2859.0,622.0,-29230.0,-1845.0
10081.0,1020.0,3121.0,1205.0,-30052.0,-1129.0
7958.0,289.0,2533.0,1056.0,-29279.0,-522.0
4125.0,-155.0,2147.0,703.0,-27794.0,-527.0
727.0,-125.0,2487.0,540.0,-24792.0,-362.0
-1861.0,75.0,3336.0,-106.0,-18154.0,9.0
-2504.0,396.0,3807.0,-814.0,-8876.0,-57.0
-181.0,521.0,3385.0,-1368.0,403.0,62.0
2560.0,371.0,3035.0,-271.0,7734.0,661.0
4112.0,291.0,2858.0,44.0,3154.0,761.0
4647.0,383.0,2870.0,22.0,-1390.0,766.0
2769.0,724.0,3082.0,-418.0,-4672.0,364.0
2438.0,749.0,3072.0,-656.0,-5583.0,-30.0
2441.0,685.0,3083.0,-461.0,-4005.0,-56.0
2387.0,573.0,2962.0,-77.0,-1568.0,24.0
2117.0,533.0,2923.0,122.0,443.0,89.0
1990.0,490.0,3002.0,55.0,1585.0,134.0
2129.0,486.0,3053.0,-81.0,1839.0,105.0
2424.0,505.0,3117.0,-239.0,1676.0,20.0
2734.0,504.0,3302.0,-355.0,1411.0,-81.0
2911.0,475.0,3385.0,-379.0,1115.0,-198.0
2946.0,453.0,3396.0,-329.0,780.0,-325.0
3010.0,424.0,3461.0,-284.0,418.0,-410.0
3135.0,439.0,3501.0,-258.0,88.0,-455.0
3155.0,453.0,3434.0,-298.0,69.0,-468.0
3087.0,500.0,3320.0,-389.0,517.0,-415.0
2996.0,552.0,3219.0,-578.0,3695.0,8.0
2842.0,540.0,3256.0,-593.0,5192.0,167.0
2737.0,526.0,3246.0,-600.0,6814.0,298.0
1349.0,268.0,2898.0,-625.0,8583.0,467.0
528.0,264.0,2121.0,-635.0,10399.0,605.0
-420.0,373.0,1803.0,-634.0,12231.0,734.0
-674.0,572.0,1321.0,-673.0,14082.0,911.0
-1643.0,567.0,1254.0,-724.0,15960.0,1096.0
-2653.0,484.0,847.0,-600.0,17752.0,1237.0
-4104.0,457.0,680.0,-236.0,19105.0,1417.0
-5447.0,492.0,876.0,188.0,20006.0,1630.0
-6362.0,587.0,1100.0,719.0,20507.0,1793.0
-6389.0,758.0,1263.0,975.0,20842.0,1783.0
-5687.0,825.0,1426.0,1109.0,20525.0,1645.0
-4695.0,802.0,1412.0,1201.0,19542.0,1434.0
-3797.0,801.0,1563.0,1343.0,17431.0,1026.0
-3042.0,627.0,1547.0,1460.0,14229.0,508.0
-2598.0,560.0,1598.0,1554.0,10294.0,75.0
-2699.0,517.0,1575.0,1068.0,704.0,-618.0
-3350.0,473.0,1590.0,735.0,-449.0,-603.0
-4007.0,489.0,1567.0,451.0,-732.0,-463.0
-4004.0,517.0,1738.0,269.0,-402.0,-355.0
-3677.0,481.0,1909.0,96.0,108.0,-306.0
-3352.0,443.0,1908.0,-22.0,317.0,-252.0
-3164.0,461.0,1958.0,-64.0,-6.0,-241.0
-3144.0,516.0,2024.0,-88.0,-617.0,-272.0
-3292.0,536.0,2066.0,-147.0,-1179.0,-279.0
-3470.0,556.0,2037.0,-202.0,-1546.0,-245.0
-3574.0,587.0,2005.0,-240.0,-1702.0,-202.0
-3576.0,606.0,1996.0,-229.0,-1658.0,-128.0
-3529.0,619.0,1974.0,-220.0,-1441.0,-43.0
-3758.0,612.0,1823.0,-240.0,-1197.0,61.0
-4242.0,581.0,1296.0,-254.0,-1103.0,144.0
-5320.0,516.0,1038.0,-251.0,-1206.0,174.0
-6128.0,478.0,371.0,-245.0,-1455.0,158.0
-6667.0,294.0,541.0,-252.0,-1756.0,129.0
-6248.0,203.0,-131.0,-404.0,-3554.0,4.0
-5154.0,135.0,-699.0,-550.0,-5446.0,-112.0
-3478.0,149.0,-1216.0,-730.0,-8591.0,-327.0
3558.0,1121.0,-2178.0,-748.0,-12932.0,-663.0
5302.0,880.0,-809.0,-607.0,-17981.0,-1047.0
6673.0,917.0,1075.0,-374.0,-23347.0,-1522.0
8701.0,1062.0,2412.0,91.0,-28450.0,-1943.0
10844.0,1171.0,3372.0,874.0,-32290.0,-1844.0
10813.0,819.0,3400.0,1734.0,-32767.0,-972.0
7203.0,364.0,2415.0,1437.0,-32565.0,-364.0
3898.0,142.0,1651.0,1154.0,-31033.0,-163.0
895.0,-6.0,2178.0,904.0,-26988.0,374.0
-1309.0,-36.0,3234.0,249.0,-18521.0,865.0
-1180.0,-144.0,3816.0,-421.0,-7571.0,1057.0
955.0,-196.0,3832.0,-1159.0,1936.0,1206.0
2846.0,-119.0,3516.0,-1268.0,8638.0,1130.0
3918.0,51.0,3313.0,-1103.0,11217.0,1079.0
4284.0,367.0,3133.0,-931.0,-3082.0,438.0
4180.0,601.0,3111.0,-688.0,-4318.0,280.0
2835.0,240.0,3770.0,-387.0,-3117.0,182.0
2938.0,301.0,3798.0,-106.0,-1181.0,-10.0
3054.0,301.0,3936.0,-94.0,806.0,-161.0
3294.0,186.0,3929.0,-245.0,2445.0,-244.0
3309.0,113.0,3896.0,-351.0,3477.0,-260.0
3342.0,51.0,3968.0,-405.0,4066.0,-205.0
3327.0,-86.0,3643.0,-459.0,4524.0,-130.0
2856.0,-93.0,3199.0,-581.0,5242.0,-47.0
1850.0,76.0,2813.0,-684.0,6461.0,31.0
443.0,194.0,2580.0,-708.0,8142.0,131.0
-647.0,206.0,2424.0,-662.0,10279.0,259.0
-1384.0,297.0,2342.0,-571.0,12715.0,438.0
-1530.0,459.0,2393.0,-347.0,15401.0,651.0
-1509.0,428.0,2106.0,-23.0,17746.0,834.0
-1851.0,425.0,1947.0,195.0,19193.0,1089.0
-2437.0,394.0,1644.0,843.0,17571.0,1354.0
-3293.0,454.0,1576.0,1033.0,16367.0,1463.0
-4003.0,536.0,1555.0,1160.0,15280.0,1489.0
-4421.0,650.0,1516.0,1211.0,14196.0,1459.0
-4251.0,617.0,1522.0,1193.0,13139.0,1381.0
-3989.0,626.0,1446.0,1155.0,11647.0,1208.0
-3740.0,633.0,1585.0,1040.0,9602.0,983.0
-3465.0,579.0,1762.0,864.0,7107.0,759.0
-3247.0,434.0,1862.0,695.0,4599.0,617.0
-3157.0,391.0,2000.0,467.0,2387.0,466.0
-3015.0,356.0,2187.0,267.0,594.0,347.0
-2887.0,392.0,2288.0,80.0,-705.0,239.0
-2892.0,431.0,2313.0,-130.0,-1554.0,140.0
-3132.0,464.0,2304.0,-329.0,-2113.0,50.0
-3433.0,449.0,2186.0,-431.0,-2399.0,-19.0
-3821.0,477.0,2066.0,-463.0,-2442.0,-8.0
-4321.0,492.0,1640.0,-474.0,-2287.0,23.0
-5011.0,525.0,1369.0,-480.0,-2005.0,28.0
-5648.0,413.0,1474.0,-639.0,-1905.0,44.0
-5796.0,332.0,1108.0,-703.0,-2707.0,-17.0
-5475.0,197.0,782.0,-828.0,-4137.0,-177.0
-971.0,610.0,-1638.0,-1042.0,-6558.0,-480.0
2236.0,1105.0,-2571.0,-1157.0,-10240.0,-860.0
4707.0,600.0,-654.0,-1158.0,-14972.0,-1198.0
6985.0,609.0,11.0,-1102.0,-20156.0,-1560.0
10029.0,838.0,1420.0,-806.0,-25322.0,-1832.0
12281.0,636.0,2825.0,-214.0,-30652.0,-1739.0
10347.0,-432.0,2955.0,458.0,-32767.0,-851.0
5499.0,-974.0,2709.0,-59.0,-32390.0,-270.0
1676.0,-811.0,2799.0,-528.0,-30805.0,-516.0
-1689.0,-135.0,3633.0,-452.0,-26231.0,-152.0
-2558.0,281.0,3901.0,-1255.0,-15093.0,30.0
160.0,90.0,3437.0,-1757.0,-2497.0,116.0
3105.0,-271.0,3288.0,-1568.0,6189.0,350.0
4503.0,-241.0,3228.0,-836.0,10960.0,930.0
4787.0,-49.0,3339.0,-15.0,9914.0,1361.0
4318.0,150.0,3321.0,-967.0,-4459.0,477.0
3357.0,187.0,3274.0,-908.0,-5227.0,145.0
2555.0,148.0,3250.0,-486.0,-3432.0,196.0
2737.0,184.0,3382.0,-113.0,-826.0,267.0
2923.0,128.0,3429.0,-6.0,1154.0,268.0
3018.0,36.0,3538.0,-43.0,2183.0,232.0
3014.0,-30.0,3716.0,-75.0,2256.0,131.0
3183.0,-97.0,3873.0,-77.0,1769.0,-11.0
3355.0,-137.0,3880.0,-115.0,1311.0,-137.0
3503.0,-126.0,3881.0,-200.0,1253.0,-243.0
3525.0,-142.0,3881.0,-279.0,1684.0,-320.0
3405.0,-169.0,3597.0,-343.0,2460.0,-316.0
2953.0,-140.0,3155.0,-399.0,3510.0,-246.0
2039.0,-97.0,2861.0,-463.0,4944.0,-92.0
783.0,-15.0,2713.0,-499.0,6776.0,91.0
-241.0,55.0,2730.0,-492.0,8891.0,262.0
-790.0,111.0,2811.0,-442.0,11225.0,442.0
-1023.0,204.0,2743.0,-298.0,13725.0,641.0
-1136.0,248.0,2736.0,257.0,17802.0,1208.0
-1277.0,130.0,2574.0,407.0,17366.0,1237.0
-1572.0,186.0,2550.0,585.0,16401.0,1247.0
-2573.0,288.0,1962.0,811.0,15480.0,1294.0
-2868.0,292.0,1769.0,1017.0,14895.0,1283.0
-3270.0,305.0,1385.0,1272.0,14412.0,1177.0
-3915.0,310.0,1262.0,1521.0,13844.0,1096.0
-4401.0,377.0,1076.0,1606.0,13118.0,1081.0
-4736.0,499.0,1082.0,1663.0,12233.0,997.0
-4684.0,525.0,1067.0,1641.0,11310.0,821.0
-4392.0,533.0,1173.0,1608.0,10245.0,634.0
-4082.0,452.0,1266.0,1484.0,9140.0,522.0
-3824.0,385.0,1315.0,1301.0,7848.0,471.0
-3801.0,349.0,1391.0,1159.0,6197.0,426.0
-3839.0,317.0,1290.0,1056.0,4440.0,260.0
-3987.0,376.0,1262.0,902.0,2924.0,106.0
-3965.0,437.0,1272.0,688.0,1925.0,11.0
-3757.0,481.0,1279.0,452.0,1321.0,-26.0
-3662.0,452.0,1406.0,67.0,184.0,23.0
-3616.0,385.0,1488.0,23.0,-352.0,21.0
-3632.0,390.0,1556.0,-32.0,-842.0,47.0
-4900.0,379.0,1042.0,-120.0,-1166.0,31.0
-5977.0,395.0,850.0,-205.0,-1377.0,-2.0
-6581.0,345.0,962.0,-243.0,-1560.0,-2.0
-6389.0,198.0,880.0,-249.0,-1720.0,-24.0
-5872.0,62.0,664.0,-300.0,-1906.0,-56.0
-4815.0,-53.0,252.0,-391.0,-2295.0,-100.0
-3591.0,-198.0,-163.0,-509.0,-3304.0,-177.0
-2455.0,-168.0,-572.0,-719.0,-5328.0,-321.0
-796.0,401.0,-939.0,-959.0,-8526.0,-480.0
1384.0,800.0,-852.0,-1111.0,-12551.0,-669.0
2712.0,821.0,-5.0,-1111.0,-16798.0,-884.0
3657.0,635.0,715.0,-1034.0,-20665.0,-1167.0
4956.0,568.0,1698.0,-695.0,-24218.0,-1625.0
7101.0,770.0,2613.0,86.0,-27080.0,-1757.0
8692.0,448.0,3902.0,963.0,-26137.0,-357.0
8646.0,250.0,4168.0,864.0,-22991.0,58.0
72.0,71.0,2991.0,311.0,-16876.0,717.0
-901.0,178.0,3330.0,-176.0,-8330.0,925.0
-1016.0,242.0,3459.0,-281.0,363.0,1108.0
-219.0,203.0,3482.0,-343.0,7230.0,1421.0
1165.0,211.0,3442.0,-114.0,10800.0,1522.0
2266.0,347.0,3434.0,7.0,10788.0,1289.0
3090.0,456.0,3465.0,-52.0,8588.0,1172.0
3608.0,468.0,3412.0,-14.0,5143.0,992.0
3810.0,385.0,3359.0,-6.0,1015.0,592.0
3655.0,256.0,3336.0,-12.0,-2282.0,243.0
3447.0,221.0,3531.0,3.0,-4371.0,22.0
3470.0,192.0,3845.0,6.0,-4953.0,5.0
3367.0,88.0,3896.0,-85.0,-4185.0,78.0
2890.0,-85.0,3865.0,-209.0,-2573.0,123.0
2161.0,-209.0,3829.0,-305.0,-534.0,131.0
1472.0,-137.0,4021.0,-551.0,4928.0,436.0
1193.0,-92.0,4263.0,-618.0,6704.0,443.0
1352.0,-85.0,4308.0,-560.0,8268.0,411.0
1009.0,-215.0,3577.0,-365.0,9297.0,393.0
399.0,-23.0,3208.0,-191.0,9509.0,387.0
-161.0,182.0,2998.0,-170.0,9549.0,439.0
-482.0,428.0,2666.0,-150.0,10080.0,471.0
-941.0,467.0,2319.0,22.0,11429.0,531.0
-1582.0,556.0,1751.0,393.0,13308.0,648.0
-2511.0,534.0,1696.0,860.0,15107.0,806.0
-3188.0,542.0,1534.0,1274.0,16327.0,1074.0
-3621.0,560.0,1871.0,1545.0,16851.0,1318.0
-3585.0,524.0,1698.0,1714.0,17029.0,1536.0
-3463.0,583.0,1878.0,1836.0,16846.0,1615.0
-3185.0,504.0,1471.0,1870.0,16315.0,1474.0
-3239.0,539.0,1306.0,1826.0,15290.0,1235.0
-3689.0,596.0,1158.0,1831.0,13602.0,1048.0
-4326.0,602.0,1178.0,1842.0,11313.0,874.0
-4429.0,678.0,1090.0,1514.0,6557.0,823.0
-4195.0,706.0,1201.0,1357.0,5773.0,754.0
-3640.0,648.0,1196.0,1170.0,4746.0,514.0
-3576.0,506.0,1064.0,1024.0,3411.0,256.0
-3773.0,579.0,1132.0,908.0,1904.0,59.0
-3828.0,612.0,1164.0,702.0,744.0,-73.0
-3759.0,604.0,1181.0,464.0,274.0,-29.0
-3758.0,585.0,1179.0,298.0,366.0,-34.0
-3855.0,624.0,1188.0,199.0,594.0,-88.0
-4211.0,628.0,1038.0,138.0,565.0,-95.0
-4776.0,626.0,695.0,64.0,219.0,-68.0
-5727.0,628.0,462.0,-28.0,-188.0,-63.0
-6429.0,676.0,16.0,-119.0,-468.0,-78.0
-7254.0,607.0,-106.0,-190.0,-648.0,-117.0
-7331.0,551.0,-278.0,-240.0,-923.0,-169.0
-6855.0,239.0,-768.0,-295.0,-1472.0,-225.0
-5538.0,152.0,-1669.0,-371.0,-2502.0,-325.0
-3273.0,-90.0,-2894.0,-532.0,-4285.0,-490.0
-269.0,14.0,-4107.0,-1765.0,-16244.0,-1139.0
3584.0,999.0,-4531.0,-1994.0,-22762.0,-1443.0
5556.0,963.0,-2268.0,-1966.0,-29646.0,-1977.0
10992.0,1047.0,3059.0,-1335.0,-32767.0,-2495.0
11089.0,496.0,3548.0,394.0,-32767.0,-1893.0
8254.0,-370.0,2787.0,999.0,-32696.0,-518.0
4983.0,-770.0,2426.0,800.0,-32767.0,94.0
1810.0,-864.0,2329.0,794.0,-32102.0,545.0
-1151.0,-603.0,2497.0,-427.0,-24830.0,1228.0
-2828.0,-210.0,3408.0,-1196.0,-12864.0,1202.0
-1869.0,-94.0,3916.0,-1952.0,120.0,1613.0
385.0,-352.0,4074.0,-2432.0,10678.0,1752.0
2019.0,-235.0,3997.0,-2009.0,16591.0,1539.0
2893.0,24.0,4070.0,-1500.0,16562.0,1206.0
3471.0,135.0,3932.0,-1125.0,11684.0,739.0
3967.0,150.0,3971.0,-894.0,5578.0,564.0
4212.0,56.0,4066.0,-998.0,166.0,264.0
3906.0,-54.0,3977.0,-1052.0,-3652.0,-134.0
3043.0,-73.0,3977.0,-891.0,-2007.0,514.0
2029.0,-96.0,4042.0,-899.0,400.0,585.0
1294.0,-61.0,4099.0,-826.0,3200.0,542.0
518.0,-262.0,4247.0,-679.0,5873.0,401.0
534.0,-267.0,4173.0,-511.0,7706.0,313.0
489.0,-216.0,4057.0,-337.0,8263.0,349.0
431.0,-144.0,3987.0,-222.0,7674.0,361.0
451.0,-97.0,3820.0,-219.0,6607.0,301.0
485.0,-74.0,3809.0,-197.0,5515.0,193.0
607.0,-74.0,3893.0,-119.0,4532.0,106.0
833.0,-129.0,3788.0,-9.0,3742.0,46.0
896.0,-100.0,3769.0,125.0,3062.0,-16.0
972.0,-117.0,3875.0,233.0,2443.0,-53.0
1161.0,-216.0,3841.0,291.0,1959.0,-93.0
1123.0,-235.0,3863.0,302.0,1633.0,-133.0
1227.0,-232.0,3976.0,250.0,1547.0,-117.0
1302.0,-192.0,3957.0,221.0,1916.0,-92.0
1165.0,-30.0,4108.0,209.0,2515.0,-85.0
1469.0,-26.0,3869.0,387.0,5958.0,197.0
1341.0,-66.0,3459.0,517.0,7641.0,425.0
1426.0,-16.0,2643.0,694.0,9669.0,694.0
-1820.0,396.0,-983.0,818.0,12042.0,1106.0
-4957.0,312.0,-961.0,923.0,14693.0,1516.0
-7395.0,357.0,-521.0,1230.0,17142.0,1827.0
-8200.0,670.0,225.0,1462.0,19442.0,2210.0
-7376.0,823.0,808.0,1707.0,21015.0,2273.0
-5983.0,711.0,992.0,1795.0,21939.0,2157.0
-4610.0,416.0,1241.0,1572.0,21874.0,1770.0
-3776.0,278.0,1376.0,1476.0,19217.0,1161.0
-3527.0,340.0,1398.0,1530.0,14577.0,631.0
-3864.0,421.0,1269.0,1555.0,9153.0,373.0
-4847.0,413.0,1106.0,1236.0,4001.0,346.0
-5366.0,419.0,964.0,838.0,526.0,350.0
-5741.0,443.0,955.0,523.0,-1042.0,264.0
-5911.0,492.0,1092.0,355.0,-1417.0,154.0
-5812.0,465.0,1238.0,190.0,-1281.0,83.0
-5389.0,462.0,1184.0,-129.0,-3359.0,-203.0
-4696.0,403.0,1163.0,-197.0,-5009.0,-381.0
-3716.0,345.0,957.0,-343.0,-6938.0,-580.0
-758.0,327.0,1012.0,-577.0,-9302.0,-781.0
53.0,203.0,1309.0,-794.0,-11845.0,-982.0
491.0,110.0,1956.0,-972.0,-14214.0,-1209.0
862.0,131.0,2411.0,-1068.0,-15845.0,-1452.0
1175.0,137.0,2712.0,-1074.0,-16451.0,-1695.0
1208.0,207.0,3137.0,-964.0,-16368.0,-1957.0
1668.0,224.0,2984.0,-862.0,-16003.0,-2036.0
1872.0,154.0,3214.0,-685.0,-15636.0,-1974.0
2185.0,22.0,3072.0,-342.0,-15271.0,-1747.0
2401.0,33.0,2946.0,-87.0,-14702.0,-1298.0
2144.0,138.0,3031.0,74.0,-14096.0,-903.0
1809.0,134.0,3038.0,153.0,-13365.0,-596.0
1377.0,116.0,3189.0,29.0,-12263.0,-452.0
1635.0,55.0,3277.0,-40.0,-11087.0,-487.0
2526.0,118.0,3413.0,214.0,-8255.0,-310.0
3430.0,113.0,3586.0,125.0,-8036.0,-371.0
1942.0,-266.0,3635.0,-6.0,-7511.0,-471.0
1993.0,-189.0,3755.0,-210.0,-6920.0,-451.0
2505.0,-57.0,3791.0,-479.0,-5532.0,-259.0
2903.0,20.0,3804.0,-677.0,-3617.0,-89.0
2952.0,61.0,3666.0,-629.0,-2023.0,-96.0
2795.0,60.0,3502.0,-482.0,-1307.0,-115.0
2569.0,99.0,3293.0,-284.0,-1430.0,-78.0
2310.0,102.0,3329.0,-117.0,-1994.0,-26.0
2380.0,130.0,3374.0,-84.0,-2108.0,18.0
2598.0,145.0,3341.0,-71.0,-1637.0,-39.0
2727.0,152.0,3304.0,-16.0,-959.0,-96.0
2708.0,154.0,3274.0,69.0,-472.0,-169.0
2638.0,171.0,3216.0,119.0,-315.0,-225.0
2573.0,192.0,3135.0,133.0,-282.0,-250.0
2432.0,148.0,3098.0,115.0,-231.0,-264.0
2406.0,82.0,3131.0,-32.0,465.0,-275.0
2449.0,97.0,3213.0,-61.0,834.0,-273.0
2465.0,116.0,3368.0,-85.0,1100.0,-277.0
2876.0,50.0,3828.0,-120.0,1282.0,-275.0
2988.0,4.0,3763.0,-109.0,1449.0,-256.0
2985.0,31.0,3791.0,-110.0,1610.0,-219.0
3171.0,-3.0,3910.0,-215.0,2022.0,-103.0
3164.0,-66.0,3858.0,-361.0,2830.0,54.0
3187.0,-64.0,3838.0,-514.0,3989.0,199.0
3163.0,-32.0,3489.0,-662.0,5494.0,393.0
2599.0,15.0,2905.0,-712.0,7232.0,548.0
1872.0,86.0,2319.0,-729.0,9178.0,696.0
1367.0,203.0,1420.0,-745.0,11411.0,910.0
1291.0,482.0,24.0,-644.0,13872.0,1124.0
485.0,830.0,-1075.0,-452.0,16852.0,1410.0
-1749.0,601.0,-1277.0,-222.0,19882.0,1675.0
-4911.0,117.0,-1486.0,83.0,22629.0,1899.0
-7830.0,74.0,-1260.0,477.0,24872.0,2200.0
-9262.0,440.0,-399.0,1343.0,27413.0,2264.0
-8528.0,766.0,339.0,1038.0,26675.0,1640.0
-6500.0,554.0,832.0,963.0,22986.0,1258.0
-3328.0,210.0,986.0,1233.0,17491.0,1030.0
-3189.0,393.0,931.0,1400.0,11298.0,503.0
-3331.0,370.0,843.0,1123.0,5052.0,156.0
-3497.0,198.0,836.0,717.0,647.0,391.0
-3556.0,94.0,973.0,299.0,-1291.0,506.0
-3394.0,160.0,1136.0,106.0,-1956.0,345.0
-3226.0,184.0,1288.0,61.0,-1930.0,185.0
-3294.0,128.0,1399.0,-36.0,-1428.0,46.0
-3413.0,85.0,1390.0,-209.0,-761.0,-76.0
-3594.0,117.0,1352.0,-264.0,-351.0,-191.0
-3806.0,127.0,1289.0,-131.0,-403.0,-227.0
-3936.0,152.0,1279.0,17.0,-632.0,-189.0
-3899.0,164.0,1345.0,64.0,-622.0,-152.0
-3640.0,167.0,1349.0,39.0,-426.0,-109.0
-3569.0,189.0,1393.0,42.0,-206.0,-91.0
-3791.0,211.0,1410.0,25.0,-255.0,-159.0
-4004.0,225.0,1457.0,18.0,-430.0,-137.0
-4056.0,221.0,1505.0,11.0,-423.0,-89.0
-4870.0,233.0,942.0,-23.0,-225.0,-73.0
-5869.0,270.0,600.0,-57.0,-119.0,-51.0
-6640.0,347.0,403.0,-68.0,-298.0,-53.0
-7277.0,358.0,-245.0,-61.0,-661.0,-60.0
-7722.0,276.0,-141.0,-55.0,-1069.0,-70.0
-7057.0,63.0,-504.0,-59.0,-1548.0,-93.0
-5602.0,-191.0,-1102.0,-63.0,-2365.0,-153.0
-3283.0,-323.0,-1631.0,-105.0,-3975.0,-271.0
-1004.0,-369.0,-2036.0,-349.0,-6644.0,-435.0
2043.0,726.0,-2752.0,-838.0,-10448.0,-650.0
3657.0,791.0,-1391.0,-1273.0,-15282.0,-946.0
3758.0,675.0,-593.0,-1486.0,-20920.0,-1225.0
4919.0,903.0,25.0,-1445.0,-26166.0,-1597.0
7086.0,1277.0,1278.0,-949.0,-30465.0,-2245.0
8695.0,651.0,2539.0,289.0,-32767.0,-2298.0
8976.0,136.0,3067.0,515.0,-29113.0,-149.0
7542.0,-263.0,3155.0,282.0,-25619.0,85.0
4527.0,-634.0,3225.0,-770.0,-18956.0,388.0
-3055.0,-947.0,3972.0,-1474.0,-10718.0,411.0
-995.0,-751.0,3909.0,-1802.0,-2031.0,825.0
2382.0,-597.0,3883.0,-2181.0,5390.0,1366.0
4410.0,-367.0,3866.0,-2065.0,9469.0,1411.0
5110.0,-183.0,3922.0,-1599.0,9209.0,1228.0
4565.0,-234.0,4070.0,-1158.0,5176.0,1326.0
3446.0,-299.0,4047.0,-847.0,-412.0,1240.0
2501.0,-233.0,3891.0,-772.0,-4891.0,601.0
2114.0,-136.0,3845.0,-697.0,-6278.0,65.0
2084.0,-183.0,3897.0,-598.0,-4556.0,154.0
2289.0,-273.0,3934.0,-495.0,-1431.0,326.0
2658.0,-350.0,4053.0,-327.0,1354.0,244.0
3073.0,-402.0,4102.0,-178.0,2941.0,132.0
3413.0,-456.0,4065.0,-83.0,3090.0,62.0
3521.0,-549.0,4087.0,-80.0,2489.0,-41.0
3397.0,-627.0,4240.0,-89.0,1817.0,-145.0
3192.0,-657.0,4220.0,-56.0,3080.0,-68.0
2889.0,-585.0,3876.0,-1.0,5093.0,12.0
817.0,-285.0,2482.0,151.0,7561.0,101.0
171.0,-89.0,2107.0,386.0,10193.0,297.0
-324.0,279.0,1548.0,669.0,13064.0,600.0
-890.0,497.0,1159.0,883.0,15667.0,880.0
-1609.0,617.0,815.0,1082.0,17784.0,1223.0
-2519.0,537.0,762.0,1320.0,19390.0,1564.0
-3586.0,500.0,559.0,1676.0,20544.0,1921.0
-4527.0,492.0,942.0,2034.0,20808.0,2305.0
-5157.0,479.0,1052.0,2219.0,20794.0,2640.0
-5380.0,446.0,1218.0,2230.0,20722.0,2666.0
-5033.0,384.0,1076.0,2168.0,20248.0,2425.0
-4831.0,402.0,1019.0,2087.0,18920.0,1956.0
-4628.0,363.0,966.0,2007.0,16496.0,1488.0
-4550.0,338.0,891.0,1803.0,13537.0,995.0
-4618.0,400.0,927.0,867.0,2934.0,430.0
-4583.0,373.0,794.0,595.0,1600.0,291.0
-2807.0,155.0,1054.0,346.0,663.0,203.0
-2753.0,46.0,1394.0,136.0,35.0,95.0
-3220.0,52.0,1634.0,-79.0,-366.0,46.0
-3798.0,163.0,1592.0,-235.0,-693.0,-35.0
-4108.0,288.0,1482.0,-297.0,-1016.0,-97.0
-4179.0,353.0,1396.0,-322.0,-1314.0,-78.0
-4281.0,386.0,1300.0,-313.0,-1391.0,120.0
-4483.0,376.0,1278.0,-249.0,-1004.0,464.0
-4632.0,355.0,1404.0,-146.0,-521.0,565.0
-4666.0,335.0,1405.0,-53.0,-390.0,541.0
-4900.0,367.0,1380.0,-9.0,-798.0,451.0
-5164.0,388.0,1202.0,2.0,-1480.0,359.0
-5570.0,369.0,971.0,-14.0,-2215.0,305.0
-5691.0,286.0,763.0,-44.0,-2990.0,238.0
-5381.0,120.0,551.0,-88.0,-3961.0,155.0
-4677.0,-9.0,27.0,-457.0,-8183.0,-150.0
-3577.0,-74.0,-703.0,-788.0,-10627.0,-356.0
-2014.0,311.0,-1199.0,-1095.0,-13778.0,-566.0
3010.0,665.0,-518.0,-1153.0,-17562.0,-963.0
4429.0,708.0,38.0,-871.0,-21546.0,-1618.0
6716.0,1067.0,1290.0,-319.0,-25389.0,-2150.0
8954.0,901.0,2651.0,492.0,-28229.0,-2026.0
10237.0,598.0,3219.0,753.0,-29180.0,-1332.0
8496.0,6.0,2598.0,627.0,-29265.0,-720.0
4817.0,-294.0,2049.0,603.0,-28945.0,-415.0
984.0,-639.0,2504.0,520.0,-26723.0,-26.0
-2468.0,-815.0,3531.0,-302.0,-20965.0,620.0
-3043.0,-700.0,4094.0,-1403.0,-12257.0,791.0
430.0,-526.0,3886.0,-1998.0,-2603.0,997.0
3661.0,-365.0,3506.0,-2275.0,5132.0,1157.0
5173.0,-15.0,3411.0,-2038.0,8947.0,1139.0
5290.0,48.0,3629.0,-1514.0,8084.0,1180.0
4285.0,-27.0,3602.0,-1022.0,3744.0,1567.0
2950.0,-102.0,3585.0,-725.0,-6381.0,112.0
2056.0,-115.0,3549.0,-654.0,-3784.0,225.0
1948.0,-62.0,3575.0,-537.0,-715.0,362.0
2819.0,-74.0,3377.0,-411.0,1507.0,340.0
2833.0,-100.0,3300.0,-336.0,2373.0,276.0
2807.0,-80.0,3232.0,-219.0,1819.0,148.0
2788.0,-68.0,3184.0,-128.0,788.0,8.0
2738.0,-88.0,3162.0,-96.0,43.0,-140.0
2795.0,-127.0,3338.0,-107.0,-130.0,-249.0
3015.0,-105.0,3465.0,-73.0,45.0,-312.0
3179.0,-115.0,3655.0,-19.0,354.0,-364.0
3450.0,-189.0,3743.0,-5.0,699.0,-413.0
3741.0,-236.0,3795.0,-22.0,1052.0,-449.0
3880.0,-327.0,3860.0,-40.0,1454.0,-445.0
4100.0,-485.0,3820.0,-86.0,2049.0,-373.0
4560.0,-468.0,3110.0,-187.0,3024.0,-276.0
4512.0,-307.0,2429.0,-361.0,4529.0,-112.0
3710.0,-104.0,1194.0,-537.0,6542.0,127.0
1385.0,-37.0,342.0,-388.0,15773.0,757.0
-1424.0,54.0,-225.0,-57.0,19617.0,1101.0
-3498.0,345.0,-435.0,335.0,23317.0,1528.0
-6113.0,369.0,685.0,679.0,26292.0,2047.0
-6608.0,511.0,1240.0,1021.0,27297.0,2527.0
-6473.0,567.0,1422.0,1433.0,26372.0,2959.0
-5765.0,486.0,1503.0,1849.0,24338.0,3020.0
-5052.0,392.0,1422.0,2148.0,21530.0,2489.0
-4485.0,329.0,1406.0,2339.0,17825.0,1759.0
-4304.0,332.0,1312.0,2492.0,14030.0,1027.0
-4103.0,423.0,1279.0,2406.0,10546.0,409.0
-4020.0,526.0,1158.0,2069.0,7005.0,253.0
-4090.0,529.0,1134.0,1741.0,4043.0,272.0
-4101.0,476.0,1112.0,1448.0,1957.0,335.0
-3938.0,503.0,1178.0,1169.0,574.0,451.0
-3704.0,467.0,1250.0,896.0,-429.0,528.0
-3382.0,421.0,1349.0,598.0,-1085.0,518.0
-3177.0,377.0,1457.0,277.0,-1398.0,470.0
-2949.0,310.0,1766.0,-361.0,-2013.0,194.0
-2515.0,261.0,1837.0,-455.0,-2471.0,123.0
-2339.0,293.0,2044.0,-516.0,-2805.0,103.0
-2686.0,342.0,2025.0,-553.0,-2931.0,72.0
-3034.0,354.0,1988.0,-562.0,-2935.0,106.0
-3380.0,358.0,1927.0,-526.0,-2633.0,168.0
-3743.0,365.0,1651.0,-489.0,-2069.0,170.0
-4529.0,359.0,1520.0,-479.0,-1448.0,198.0
-5205.0,347.0,940.0,-468.0,-927.0,193.0
-5990.0,272.0,833.0,-464.0,-674.0,174.0
-6292.0,99.0,556.0,-465.0,-750.0,132.0
-6280.0,-116.0,73.0,-472.0,-1168.0,44.0
-5718.0,-305.0,-973.0,-497.0,-1938.0,-90.0
-4470.0,-246.0,-1583.0,-575.0,-3260.0,-281.0
-1906.0,247.0,-2450.0,-754.0,-5401.0,-533.0
1583.0,878.0,-2959.0,-931.0,-8531.0,-934.0
3881.0,749.0,-2074.0,-948.0,-12894.0,-1379.0
5530.0,733.0,-892.0,-781.0,-18201.0,-1775.0
7035.0,1033.0,886.0,1404.0,-32767.0,-2226.0
9674.0,1296.0,2469.0,1775.0,-32767.0,-1323.0
12203.0,1439.0,3174.0,1699.0,-32709.0,-943.0
3068.0,-817.0,1860.0,1692.0,-32110.0,-389.0
-1489.0,-546.0,2411.0,858.0,-27051.0,487.0
-4394.0,-468.0,3596.0,-347.0,-17090.0,644.0
-2822.0,-626.0,3956.0,-1357.0,-4910.0,439.0
1395.0,-875.0,3837.0,-2294.0,5786.0,457.0
3961.0,-522.0,3377.0,-2294.0,12530.0,501.0
5104.0,100.0,3211.0,-1502.0,13737.0,833.0
5327.0,483.0,3240.0,-1119.0,9327.0,1350.0
4732.0,407.0,3307.0,-1044.0,2616.0,1378.0
3581.0,146.0,3390.0,-973.0,-3609.0,736.0
2555.0,-29.0,3390.0,-766.0,-7254.0,217.0
2098.0,-31.0,3344.0,-249.0,-6748.0,191.0
2061.0,24.0,3305.0,-4.0,-3641.0,236.0
2272.0,21.0,3295.0,-56.0,-551.0,182.0
2534.0,-41.0,3341.0,-152.0,2369.0,215.0
2694.0,-61.0,3241.0,-126.0,1344.0,68.0
3170.0,-15.0,3446.0,-126.0,609.0,-77.0
3407.0,13.0,3573.0,-88.0,332.0,-200.0
3602.0,60.0,3484.0,-42.0,434.0,-280.0
3703.0,39.0,3367.0,-24.0,787.0,-294.0
3800.0,-83.0,3425.0,-30.0,1276.0,-263.0
4136.0,-220.0,3191.0,-80.0,2029.0,-199.0
4386.0,-256.0,2746.0,-210.0,3199.0,-64.0
4324.0,-109.0,2094.0,-368.0,4659.0,75.0
3738.0,95.0,1479.0,-573.0,6467.0,173.0
2337.0,177.0,474.0,-772.0,8673.0,290.0
-117.0,108.0,-154.0,-804.0,11301.0,468.0
-2315.0,112.0,-505.0,-586.0,14507.0,630.0
-4109.0,116.0,-409.0,-366.0,17811.0,776.0
-5648.0,26.0,209.0,-127.0,20999.0,1118.0
-6764.0,-157.0,1067.0,8.0,23520.0,1627.0
-6846.0,-134.0,1865.0,786.0,23345.0,2077.0
-5600.0,-92.0,2159.0,1131.0,20802.0,1504.0
-3887.0,54.0,2236.0,1457.0,17501.0,732.0
-3847.0,-186.0,1689.0,1765.0,13236.0,-61.0
-4806.0,-68.0,1535.0,2089.0,8822.0,-757.0
-5107.0,145.0,1547.0,2225.0,4992.0,-1157.0
-4826.0,247.0,1539.0,2174.0,2496.0,-1107.0
-4414.0,199.0,1585.0,1731.0,1964.0,-755.0
-4094.0,94.0,1677.0,1348.0,2864.0,-349.0
-3721.0,98.0,1652.0,1211.0,3481.0,-232.0
-3409.0,161.0,1536.0,1162.0,2972.0,-313.0
-3364.0,212.0,1596.0,1064.0,1602.0,-424.0
-3323.0,210.0,1650.0,872.0,313.0,-442.0
-3330.0,226.0,1572.0,657.0,-363.0,-449.0
-3445.0,284.0,1519.0,515.0,-593.0,-409.0
-3579.0,300.0,1365.0,455.0,-670.0,-317.0
-4426.0,314.0,1246.0,394.0,-586.0,-256.0
-5285.0,251.0,592.0,276.0,-421.0,-198.0
-6700.0,281.0,286.0,80.0,-276.0,-184.0
-7579.0,406.0,-497.0,-9.0,-498.0,-239.0
-7849.0,242.0,-244.0,-90.0,-1054.0,-340.0
-4362.0,-170.0,-3912.0,-236.0,-2460.0,-471.0
-1645.0,-223.0,-5924.0,-513.0,-4953.0,-761.0
3118.0,1392.0,-7773.0,-1061.0,-9082.0,-1151.0
5913.0,451.0,-4335.0,-1491.0,-14581.0,-1675.0
9225.0,1762.0,-2778.0,-1417.0,-22537.0,-1949.0
12270.0,1411.0,870.0,-1300.0,-31257.0,-2068.0
14883.0,1105.0,2658.0,-535.0,-32767.0,-2280.0
12713.0,-675.0,2726.0,1184.0,-32707.0,-1727.0
7209.0,-2004.0,1788.0,1037.0,-32719.0,-396.0
2408.0,-1576.0,451.0,268.0,-32767.0,-108.0
-2648.0,-555.0,1509.0,-612.0,-31706.0,732.0
-4842.0,-254.0,3078.0,-2269.0,-20074.0,951.0
-1304.0,-642.0,3262.0,-3331.0,-2059.0,930.0
2532.0,-1116.0,2999.0,-3673.0,11085.0,668.0
4196.0,-920.0,3052.0,-2540.0,18339.0,658.0
4479.0,-684.0,2972.0,-2299.0,1678.0,1000.0
