sequence,AccelerometerX,AccelerometerY,AccelerometerZ,GyroscopeX,GyroscopeY,GyroscopeZ
0,-60,-47,1075,201,335,111
1,-73,-44,1080,121,265,103
2,-67,-52,1089,193,121,56
3,-74,-65,1073,222,-61,-8
4,-97,-57,1039,166,-124,-65
5,-110,-62,1019,31,-94,-65
6,-104,-50,1001,-47,52,-8
7,-76,-35,1014,-36,171,74
8,-98,-43,1025,-2,277,140
9,-96,-26,1020,58,353,171
10,-99,-29,1024,113,404,175
11,-84,-49,1050,121,390,142
12,-106,-53,1061,50,310,111
13,-83,-38,1063,-34,218,68
14,-98,-41,1057,-139,117,29
15,-99,-23,1028,-190,85,5
16,-94,-39,1027,-165,70,-20
17,-90,-37,1003,-86,68,0
18,-96,-36,983,-61,62,42
19,-98,-51,993,-67,80,58
20,-93,-53,1008,-57,83,87
21,-121,-79,1037,-14,66,87
22,-113,-79,1046,-16,1,44
23,-119,-77,1052,-92,-34,3
24,-110,-69,1036,-194,-26,29
25,-117,-91,1016,-331,3,-6
26,-89,-71,1006,-413,50,-71
27,-54,-40,1001,-422,66,-137
28,-39,-25,1016,-409,42,-176
29,-11,6,1010,-352,-30,-163
30,-13,29,989,-268,-104,-118
31,-12,45,963,-170,-131,-14
32,-45,-3,951,-112,-129,89
33,-60,-37,951,-34,-40,160
34,-85,-60,965,-16,80,185
35,-105,-74,982,13,152,201
36,-120,-84,1016,42,175,195
37,-130,-101,1061,-14,183,156
38,-127,-81,1055,-110,126,93
39,-123,-56,1061,-213,54,66
40,-123,-33,1022,-262,-2,50
41,-113,-21,995,-237,-43,82
42,-129,-19,973,-157,-14,138
43,-125,-35,972,-116,76,189
44,-128,-54,979,-116,144,228
45,-142,-70,1001,-47,205,250
46,-157,-105,1033,3,244,240
47,-158,-125,1089,-30,183,189
48,-150,-95,1089,-104,91,117
49,-158,-88,1073,-139,9,87
50,-181,-90,1047,-59,-43,82
51,-157,-86,1042,27,-59,85
52,-171,-86,1009,-14,-47,85
53,-158,-97,1007,-106,37,107
54,-151,-91,1011,-131,123,97
55,-153,-94,1026,-81,152,99
56,-144,-103,1041,-57,148,97
57,-125,-86,1050,-94,107,72
58,-124,-92,1055,-118,66,50
59,-122,-87,1035,-92,1,29
60,-128,-76,1049,-75,-53,-20
61,-115,-70,1022,-43,-106,-30
62,-110,-34,1003,1,-102,-28
63,-95,-32,985,5,-22,-22
64,-102,-13,982,64,42,15
65,-100,-31,987,140,117,74
66,-111,-50,1010,150,167,125
67,-129,-73,1037,128,199,167
68,-130,-115,1049,13,203,164
69,-131,-145,1064,-108,179,125
70,-144,-157,1051,-170,166,56
71,-135,-139,1066,-200,144,-36
72,-131,-106,1086,-170,87,-118
73,-115,-76,1062,-129,83,-141
74,-99,-44,1072,-122,80,-124
75,-103,-7,1070,-110,87,-96
76,-86,-2,1085,-45,105,-24
77,-96,-4,1079,-2,78,37
78,-86,-1,1052,-49,46,74
79,-98,-28,1060,-147,15,107
80,-113,-39,1043,-170,5,109
81,-115,-57,1041,-127,25,87
82,-122,-63,1039,-106,29,58
83,-116,-61,1043,-133,41,15
84,-105,-38,1037,-151,25,35
85,-115,-55,1045,-106,13,60
86,-116,-49,1019,-57,15,109
87,-136,-73,1029,-22,29,154
88,-125,-87,1009,-18,46,177
89,-134,-99,1013,-8,41,185
90,-153,-117,1010,35,50,189
91,-146,-136,1023,42,46,142
92,-144,-131,1024,-4,29,66
93,-153,-128,1010,-16,31,42
94,-149,-118,1017,5,60,37
95,-146,-105,1019,-10,113,31
96,-133,-97,1021,-34,154,33
97,-131,-98,1048,-63,150,37
98,-153,-95,1040,-69,130,37
99,-138,-108,1051,-53,111,21
100,-144,-116,1049,-30,62,0
101,-142,-114,1055,-59,41,-32
102,-132,-103,1046,-83,3,-61
103,-132,-88,1053,-71,-34,-81
104,-125,-74,1043,-16,-51,-67
105,-135,-84,1018,7,-32,-47
106,-123,-80,1022,-8,5,-38
107,-133,-86,1022,-20,15,-32
108,-128,-87,1027,-2,19,-36
109,-129,-84,1018,31,11,-53
110,-136,-87,1013,29,0,-47
111,-141,-82,1025,0,-6,-38
112,-137,-80,1006,-51,7,-22
113,-142,-83,994,-55,35,0
114,-147,-85,991,-20,48,0
115,-151,-88,1017,82,52,-12
116,-163,-103,1007,152,44,1
117,-166,-96,1010,152,54,0
118,-153,-93,1032,91,82,-6
119,-153,-88,1042,27,68,-12
120,-148,-84,1049,-2,41,-24
121,-159,-77,1044,-34,0,-26
122,-150,-93,1033,-26,-8,-24
123,-160,-90,1020,-43,-16,-32
124,-156,-88,1033,-8,-14,-47
125,-166,-87,1027,33,17,-53
126,-161,-89,1025,70,60,-69
127,-156,-92,1035,50,89,-63
128,-146,-71,1051,23,82,-73
129,-140,-63,1044,0,46,-65
130,-150,-74,1060,0,0,-79
131,-150,-59,1050,-38,-42,-86
132,-138,-62,1030,-81,-57,-75
133,-153,-58,1006,-86,-63,-49
134,-147,-67,991,-30,-55,-20
135,-146,-72,996,68,-12,-14
136,-151,-65,1003,140,46,-4
137,-144,-70,1042,140,74,-20
138,-156,-80,1044,128,42,-32
139,-145,-74,1045,107,1,-57
140,-134,-40,1028,70,-30,-67
141,-140,-51,1011,-8,-24,-49
142,-141,-44,1006,-26,5,-34
143,-142,-34,986,-6,25,-12
144,-145,-40,998,25,72,3
145,-133,-61,1013,48,87,27
146,-151,-65,1034,66,66,17
147,-145,-72,1046,44,35,0
148,-146,-52,1044,-8,15,-26
149,-139,-55,1046,-45,-2,-26
150,-129,-55,1031,-38,-43,-24
151,-147,-46,1024,9,-53,-6
152,-145,-74,1022,19,-47,17
153,-145,-78,1013,5,-30,17
154,-148,-71,1025,-26,-8,3
155,-149,-70,1002,-51,9,-18
156,-148,-60,1021,-61,27,-20
157,-153,-55,1017,-51,35,-14
158,-151,-62,1006,-51,48,-24
159,-145,-63,1015,-61,66,-16
160,-136,-59,1030,-47,72,-10
161,-151,-47,1035,-2,41,5
162,-140,-53,1027,56,48,29
163,-155,-60,1028,70,80,42
164,-153,-62,1035,48,99,39
165,-159,-62,1069,37,87,39
166,-148,-63,1075,27,64,35
167,-141,-50,1092,44,27,42
168,-161,-59,1083,74,21,42
169,-157,-51,1095,72,9,50
170,-155,-71,1130,64,0,46
171,-170,-67,1163,64,-28,42
172,-170,-72,1168,62,-42,39
173,-161,-79,1225,72,-6,33
174,-166,-58,1268,150,42,23
175,-154,-47,1389,244,64,17
176,-171,-39,1503,326,15,25
177,-179,-24,1618,347,-18,54
178,-212,-32,1771,304,-59,64
179,-240,-32,1901,238,-114,97
180,-240,-33,2021,148,-245,125
181,-252,-22,2048,117,-450,150
182,-282,-21,2048,156,-721,207
183,-325,-34,2048,234,-997,271
184,-344,-58,2048,291,-1276,332
185,-387,-87,2048,291,-1608,314
186,-390,-91,2048,283,-2049,257
187,-426,-79,2048,287,-2483,177
188,-429,-69,2048,308,-2803,142
189,-427,-51,1965,308,-3086,64
190,-429,-37,1862,302,-3276,52
191,-428,-32,1755,230,-3415,72
192,-405,-49,1657,191,-3493,130
193,-371,-59,1583,173,-3596,109
194,-371,-71,1497,226,-3762,70
195,-314,-51,1433,251,-3958,23
196,-290,-38,1373,255,-4194,0
197,-248,-3,1293,248,-4411,-14
198,-247,24,1200,302,-4651,-8
199,-212,67,1077,341,-4809,27
200,-197,110,934,359,-4858,115
201,-198,89,762,501,-4813,261
202,-181,59,612,580,-4657,357
203,-157,50,460,644,-4458,416
204,-110,26,361,796,-4223,453
205,-63,32,260,931,-4057,503
206,-8,16,147,1078,-4004,511
207,43,28,5,1107,-3917,503
208,79,55,-135,1093,-3811,523
209,131,86,-310,1115,-3612,533
210,194,123,-430,1121,-3340,537
211,271,176,-481,957,-2985,529
212,307,191,-528,673,-2624,662
213,367,205,-545,281,-2202,744
214,401,200,-580,-30,-1795,839
215,435,214,-588,-161,-1413,859
216,432,207,-589,-51,-1067,923
217,478,180,-563,97,-667,947
218,504,172,-524,95,-329,955
219,523,171,-463,111,42,949
220,513,183,-387,197,365,1023
221,480,171,-319,365,667,1115
222,441,138,-297,638,953,1230
223,392,124,-214,898,1281,1259
224,367,108,-121,990,1589,1306
225,348,88,-25,980,1853,1279
226,310,51,55,939,2083,1251
227,295,28,153,755,2351,1246
228,283,9,279,496,2537,1189
229,244,-1,344,285,2546,1146
230,225,1,371,289,2498,1058
231,215,15,375,304,2476,986
232,163,38,410,289,2533,982
233,110,51,455,271,2732,998
234,64,23,476,289,2992,1058
235,29,-32,562,343,3181,1089
236,-3,-94,624,335,3275,1058
237,-30,-161,627,210,3337,1031
238,-51,-164,658,46,3355,867
239,-96,-99,738,74,3443,708
240,-95,-59,839,371,3529,705
241,-123,-26,978,806,3449,689
242,-114,-19,1068,1093,3330,640
243,-123,-23,1122,1011,3226,654
244,-151,-48,1170,701,3210,669
245,-194,-76,1207,279,3187,683
246,-222,-78,1270,46,3244,664
247,-254,-95,1401,52,3257,722
248,-251,-146,1443,214,3156,726
249,-253,-137,1473,263,3023,558
250,-238,-99,1480,203,2994,490
251,-212,-49,1549,150,2943,451
252,-220,13,1623,189,2869,421
253,-213,35,1678,257,2722,525
254,-228,36,1690,265,2517,572
255,-234,-31,1658,193,2328,638
256,-225,-83,1639,35,2132,656
257,-224,-58,1607,-43,1939,468
258,-238,-40,1568,-12,1869,400
259,-238,-53,1506,1,1849,392
260,-236,-27,1458,52,1841,253
261,-231,17,1458,189,1869,179
262,-229,52,1470,244,1847,140
263,-246,65,1515,136,1824,167
264,-228,47,1535,-16,1789,197
265,-246,31,1523,-110,1591,250
266,-249,17,1508,-71,1402,279
267,-274,-2,1513,44,1281,250
268,-270,-20,1513,125,1154,261
269,-263,-20,1482,210,1009,179
270,-256,-16,1508,271,890,82
271,-246,-4,1510,257,757,44
272,-241,16,1511,142,582,21
273,-257,50,1469,-86,437,11
274,-225,60,1449,-229,330,29
275,-214,66,1394,-270,199,76
276,-237,47,1371,-223,107,132
277,-264,2,1339,-124,68,158
278,-257,-15,1313,-155,80,146
279,-249,-40,1290,-202,93,130
280,-256,-47,1289,-250,62,93
281,-248,-44,1256,-299,-45,48
282,-234,-38,1216,-358,-167,3
283,-226,-32,1161,-407,-260,-57
284,-221,-17,1136,-428,-333,-71
285,-220,-2,1104,-315,-418,-86
286,-216,-14,1066,-151,-452,-96
287,-223,8,1041,-90,-432,-71
288,-210,-1,1038,-106,-391,-53
289,-216,-17,1000,-122,-334,-47
290,-206,-12,1003,-184,-256,-63
291,-203,-20,1003,-239,-208,-75
292,-195,-11,1004,-258,-209,-73
293,-195,-18,969,-239,-219,-75
294,-191,-38,987,-241,-241,-100
295,-188,-27,979,-250,-258,-139
296,-187,-21,966,-241,-276,-143
297,-179,-14,972,-211,-278,-135
298,-177,-6,943,-159,-260,-139
299,-171,2,948,-131,-227,-137
300,-171,21,937,-110,-170,-122
301,-170,10,949,-83,-100,-100
302,-160,4,955,-67,-55,-102
303,-167,-3,963,-67,-26,-133
304,-158,10,986,-104,-20,-143
305,-176,13,1001,-90,-55,-159
306,-183,1,998,-67,-71,-176
307,-185,2,1003,-73,-90,-206
308,-166,18,1005,-104,-83,-208
309,-183,33,996,-145,-83,-190
310,-173,22,1002,-145,-57,-163
311,-176,35,995,-133,-32,-120
312,-176,29,980,-110,-2,-92
313,-174,34,989,-71,27,-88
314,-175,32,995,-57,58,-92
315,-164,25,1034,-34,74,-98
316,-167,33,1040,7,44,-124
317,-164,28,1048,35,-6,-137
318,-180,31,1038,42,-51,-139
319,-175,42,1055,68,-71,-139
320,-165,29,1045,70,-77,-122
321,-174,33,1030,42,-63,-98
322,-169,39,1034,-2,-22,-94
323,-178,39,1035,-57,1,-63
324,-180,35,1055,-47,29,-42
325,-184,18,1057,-24,5,-16
326,-179,6,1063,-12,-34,-18
327,-176,-2,1084,-30,-83,-32
328,-180,-9,1074,-45,-110,-32
329,-185,-16,1059,-47,-122,-49
330,-185,-11,1062,-28,-125,-86
331,-187,-9,1067,-51,-133,-86
332,-182,-22,1046,-43,-145,-73
333,-187,-33,1040,-40,-125,-83
334,-180,-45,1044,-12,-114,-83
335,-183,-51,1041,25,-112,-81
336,-192,-59,1051,35,-122,-92
337,-187,-70,1060,-12,-129,-110
338,-189,-76,1056,-86,-139,-135
339,-186,-80,1046,-157,-157,-178
340,-191,-78,1032,-229,-153,-209
341,-183,-67,1020,-262,-124,-233
342,-175,-76,1013,-225,-90,-225
343,-176,-86,1040,-131,-92,-221
344,-183,-81,1052,-77,-110,-239
345,-181,-69,1042,-106,-133,-258
346,-176,-63,1044,-139,-159,-252
347,-168,-72,1043,-176,-188,-249
348,-175,-53,1046,-151,-250,-262
349,-167,-43,1041,-127,-282,-262
350,-174,-51,1031,-110,-258,-272
351,-177,-45,1028,-161,-245,-274
352,-171,-59,1024,-256,-192,-299
353,-181,-57,1009,-290,-190,-317
354,-171,-75,1001,-227,-155,-325
355,-166,-64,1021,-124,-155,-387
356,-173,-64,1033,-28,-165,-438
357,-180,-70,1038,-51,-170,-483
358,-169,-61,1037,-110,-194,-542
359,-173,-36,1053,-184,-243,-573
360,-168,-12,1019,-215,-256,-551
361,-164,-24,969,-231,-219,-516
362,-161,-28,975,-204,-168,-500
363,-152,-26,982,-122,-122,-489
364,-163,-41,995,-57,-53,-489
365,-168,-40,1018,-43,-14,-512
366,-157,-33,1021,-32,0,-549
367,-158,-17,1044,-57,-10,-543
368,-160,-12,1057,-90,-57,-542
369,-156,-13,1045,-86,-100,-545
370,-165,-18,1037,-81,-127,-536
371,-160,-22,1031,-100,-127,-520
372,-160,-4,1007,-129,-124,-495
373,-167,-29,1028,-106,-110,-487
374,-165,-25,1013,-69,-100,-487
375,-162,-18,1029,-49,-67,-502
376,-163,-5,1035,-30,-32,-506
377,-155,-16,1040,23,-34,-487
378,-154,-21,1048,115,-67,-473
379,-156,-16,1052,160,-118,-461
380,-146,-24,1055,158,-159,-458
381,-157,-22,1038,128,-172,-463
382,-166,-10,1036,128,-168,-448
383,-163,-6,1016,117,-118,-436
384,-162,-25,1028,91,-73,-424
385,-156,-35,1034,101,-22,-420
386,-154,-36,1060,93,-4,-422
387,-161,-43,1038,82,0,-442
388,-145,-46,1046,-2,3,-465
389,-158,-37,1057,-61,-14,-487
390,-143,-24,1042,-53,-69,-500
391,-134,-36,1028,27,-112,-514
392,-146,-24,1038,111,-163,-506
393,-152,-21,1013,144,-172,-491
394,-155,-45,1003,107,-143,-475
395,-154,-35,983,62,-102,-463
396,-151,-50,988,72,-36,-473
397,-155,-32,992,105,-8,-491
398,-142,-32,1016,144,-8,-495
399,-147,-44,1031,140,-26,-475
400,-146,-51,1026,83,-43,-477
401,-145,-64,1025,7,-57,-518
402,-147,-63,1026,-43,-81,-583
403,-152,-70,994,-57,-114,-624
404,-147,-52,982,1,-110,-668
405,-140,-34,1005,66,-81,-702
406,-141,-31,1008,83,-61,-696
407,-139,-13,1010,89,-26,-690
408,-132,1,1013,64,-24,-665
409,-132,1,1006,37,-32,-631
410,-132,-13,991,1,-24,-598
411,-140,-20,982,7,-30,-606
412,-131,-9,997,66,-30,-631
413,-136,-12,1011,132,-43,-649
414,-140,1,1001,191,-45,-653
415,-128,9,1019,195,-55,-629
416,-139,1,1027,177,-65,-612
417,-142,5,1019,177,-55,-598
418,-140,2,1004,177,-57,-565
419,-139,-6,1020,187,-49,-543
420,-144,-3,1025,191,-32,-542
421,-144,0,1049,193,-8,-547
422,-145,12,1036,160,-20,-549
423,-146,13,1058,140,-45,-540
424,-155,14,1050,95,-67,-516
425,-148,13,1027,66,-84,-495
426,-150,6,1007,74,-83,-497
427,-148,0,1003,109,-65,-497
428,-161,-2,1001,130,-34,-499
429,-146,-1,988,166,-24,-495
430,-150,-19,1007,195,-8,-485
431,-158,-10,986,199,1,-463
432,-189,-38,1011,146,25,-448
433,-124,-23,1007,93,64,-352
434,-174,-26,998,23,7,-362
435,-138,-29,986,-2,21,-286
436,-187,-43,986,-53,-30,-247
437,-167,-73,980,3,74,-217
438,-143,-78,1001,33,117,-235
439,-171,-79,1024,97,150,-327
440,-148,-76,1013,103,203,-391
441,-163,-71,1035,56,175,-450
442,-158,-71,1012,70,140,-510
443,-157,-63,1034,42,121,-542
444,-164,-49,1010,-2,83,-590
445,-151,-45,994,-36,29,-614
446,-146,-36,984,-69,5,-629
447,-142,-35,950,-83,3,-643
448,-165,-32,955,-28,7,-649
449,-168,-46,975,87,64,-668
450,-157,-38,1009,136,121,-750
451,-151,-27,1021,54,154,-795
452,-140,-18,1040,-38,169,-774
453,-134,-7,1032,-112,156,-749
454,-140,4,1017,-131,117,-727
455,-146,11,996,-75,78,-704
456,-143,21,1005,7,58,-696
457,-138,36,1009,107,66,-661
458,-148,26,1018,158,66,-655
459,-145,39,1009,222,103,-733
460,-134,65,1025,214,154,-772
461,-132,99,1052,167,154,-784
462,-134,119,1042,152,136,-750
463,-130,123,1051,119,132,-702
464,-125,121,1042,87,132,-663
465,-128,133,1057,85,134,-633
466,-135,138,1047,111,115,-559
467,-143,131,1059,167,91,-471
468,-151,120,1062,207,66,-446
469,-154,115,1073,185,60,-450
470,-147,126,1063,107,64,-452
471,-143,122,1064,85,48,-434
472,-143,126,1069,74,42,-389
473,-144,118,1031,44,29,-305
474,-160,106,1024,50,46,-256
475,-153,105,1036,85,103,-245
476,-154,95,1052,113,107,-178
477,-149,81,1061,154,89,-157
478,-148,89,1038,89,82,-147
479,-159,90,1049,21,74,-141
480,-148,89,1041,3,89,-104
481,-157,91,1053,-6,83,-61
482,-157,80,1027,-20,78,-10
483,-153,55,1027,-28,97,42
484,-167,46,1018,5,128,70
485,-168,28,1046,64,136,66
486,-171,29,1063,85,128,46
487,-166,29,1052,54,121,31
488,-172,24,1048,3,97,23
489,-164,20,1043,-24,72,15
490,-169,36,1042,-14,41,23
491,-166,28,1060,13,42,50
492,-167,28,1039,9,44,95
493,-191,0,1018,11,66,119
494,-170,-5,1028,46,140,146
495,-181,-20,1049,42,175,107
496,-186,-27,1063,76,195,70
497,-170,-22,1111,74,189,60
498,-186,-27,1116,35,115,70
499,-191,-22,1126,25,74,74
500,-186,0,1153,0,23,74
501,-171,0,1163,-2,-14,85
502,-185,25,1226,42,-12,107
503,-182,41,1278,136,27,119
504,-201,43,1380,261,39,95
505,-212,76,1505,369,21,5
506,-205,124,1660,417,31,17
507,-186,159,1795,384,-28,46
508,-191,214,1951,324,-211,78
509,-211,259,2048,308,-397,167
510,-215,278,2048,326,-592,275
511,-263,271,2048,369,-827,429
512,-295,262,2048,388,-1104,593
513,-315,257,2048,435,-1352,708
514,-386,229,2048,574,-1727,779
515,-446,183,2048,630,-2221,857
516,-494,124,2048,712,-2696,878
517,-547,98,2048,761,-3198,835
518,-609,81,2048,673,-3752,826
519,-648,75,2048,390,-4333,867
520,-684,65,2048,183,-4846,902
521,-713,38,2048,126,-5317,912
522,-744,-7,1848,222,-5665,917
523,-730,-36,1609,380,-5819,880
524,-704,-83,1391,345,-5864,847
525,-664,-106,1134,195,-5903,837
526,-616,-144,888,199,-5879,728
527,-529,-124,653,248,-5831,603
528,-432,-98,372,169,-5846,515
529,-332,-61,101,166,-5793,464
530,-224,-25,-196,183,-5702,517
531,-135,-17,-475,324,-5459,572
532,-59,-31,-694,640,-5043,599
533,74,-48,-805,855,-4432,619
534,149,-38,-828,951,-3731,593
535,214,-48,-787,1021,-3141,582
536,289,-45,-731,1080,-2602,515
537,350,-31,-674,1019,-2143,476
538,416,-49,-602,851,-1807,443
539,444,-34,-562,681,-1540,416
540,449,-11,-521,576,-1280,318
541,466,8,-491,455,-934,279
542,485,16,-439,255,-596,304
543,519,43,-425,68,-292,322
544,554,63,-394,25,11,371
545,571,95,-319,21,326,378
546,567,108,-303,-10,583,400
547,566,128,-272,-16,787,365
548,596,166,-286,-22,1054,283
549,577,211,-223,93,1271,322
550,553,259,-159,517,1470,396
551,538,307,-89,1021,1660,529
552,487,324,8,1542,1830,685
553,443,330,93,1857,2046,779
554,393,328,173,1847,2222,826
555,333,314,271,1697,2376,804
556,312,313,368,1404,2531,763
557,279,342,439,1064,2664,726
558,226,330,488,861,2710,751
559,169,308,503,726,2751,761
560,108,276,491,611,2873,812
561,81,232,520,464,3091,789
562,58,244,571,304,3308,730
563,26,250,598,85,3433,724
564,-35,263,628,48,3537,775
565,-50,250,712,142,3681,896
566,-66,247,789,339,3736,972
567,-122,226,912,746,3626,964
568,-152,169,957,1130,3453,1027
569,-223,96,1017,1289,3298,1027
570,-258,32,1053,1039,3308,1000
571,-269,17,1090,568,3429,841
572,-263,64,1166,95,3646,699
573,-258,101,1261,-211,3763,703
574,-268,133,1347,-274,3699,681
575,-279,136,1407,-88,3603,742
576,-275,129,1483,173,3425,818
577,-287,95,1564,382,3228,791
578,-326,62,1647,503,3054,791
579,-319,36,1690,261,2890,738
580,-325,10,1702,-221,2705,644
581,-353,-10,1660,-493,2552,578
582,-346,-35,1630,-551,2470,519
583,-332,-39,1593,-583,2355,382
584,-318,3,1615,-563,2248,210
585,-295,40,1598,-581,2146,103
586,-268,63,1564,-645,1986,93
587,-272,61,1580,-655,1783,87
588,-281,59,1539,-723,1570,87
589,-292,57,1461,-797,1400,140
590,-301,12,1397,-772,1347,240
591,-321,-14,1346,-563,1361,275
592,-323,-46,1354,-280,1443,261
593,-302,-32,1397,-163,1525,195
594,-290,-24,1412,-293,1513,117
595,-285,-22,1411,-493,1410,54
596,-251,4,1385,-667,1234,-6
597,-267,24,1337,-698,1023,-77
598,-269,35,1270,-487,855,-106
599,-259,57,1265,-268,757,-90
600,-259,75,1225,-73,667,-55
601,-290,82,1227,117,615,-43
602,-290,72,1199,162,623,7
603,-286,46,1203,54,662,46
604,-283,32,1186,-133,650,56
605,-291,17,1163,-297,578,27
606,-285,-1,1112,-387,501,-8
607,-280,19,1083,-354,458,-96
608,-272,62,1095,-239,462,-182
609,-261,81,1107,-159,402,-190
610,-264,93,1122,-92,302,-170
611,-259,94,1090,-43,251,-155
612,-258,89,1056,-57,205,-112
613,-257,97,1029,-77,216,-94
614,-254,98,1025,-100,234,-65
615,-264,110,1024,-114,259,-57
616,-267,111,1073,-75,312,-69
617,-224,159,1119,-36,330,-59
618,-282,123,1140,-45,242,-43
619,-269,89,1146,-81,220,11
620,-261,86,1143,-178,183,-6
621,-266,91,1129,-250,128,-43
622,-275,103,1118,-157,70,-28
623,-273,96,1106,-22,31,21
624,-290,87,1119,82,35,27
625,-269,79,1102,46,76,21
626,-269,95,1119,-75,89,-14
627,-262,90,1099,-168,74,-20
628,-269,84,1105,-137,9,-34
629,-261,64,1111,-73,-51,-28
630,-272,60,1107,-53,-125,-40
631,-269,56,1081,-71,-180,-38
632,-283,40,1076,-106,-204,-43
633,-273,43,1038,-145,-184,-59
634,-272,51,1006,-178,-135,-63
635,-264,60,1001,-168,-61,-75
636,-270,67,1001,-131,-12,-83
637,-253,64,1001,-104,5,-88
638,-255,65,1028,-102,-26,-71
639,-250,60,1024,-98,-57,-73
640,-246,63,1041,-112,-114,-92
641,-247,58,1028,-114,-149,-84
642,-249,57,1005,-151,-170,-69
643,-253,45,992,-161,-180,-61
644,-257,26,985,-120,-139,-71
645,-261,21,977,-79,-81,-106
646,-249,27,973,-102,-36,-143
647,-245,46,999,-188,-22,-165
648,-234,56,995,-241,-61,-168
649,-238,55,1005,-260,-100,-198
650,-237,68,962,-282,-139,-208
651,-234,59,932,-325,-157,-196
652,-239,64,931,-284,-145,-186
653,-246,44,929,-198,-116,-196
654,-249,50,925,-127,-77,-202
655,-247,41,945,-53,-10,-209
656,-253,35,968,-12,42,-196
657,-246,34,992,-16,74,-192
658,-257,33,1011,-63,83,-209
659,-246,20,1041,-108,48,-233
660,-247,19,1020,-188,-6,-237
661,-255,11,1037,-215,-63,-252
662,-257,8,1016,-223,-104,-252
663,-258,6,1005,-194,-137,-258
664,-269,-16,990,-153,-114,-274
665,-258,-10,965,-131,-12,-295
666,-255,14,993,-118,54,-323
667,-257,19,1005,-69,70,-342
668,-261,11,1036,-20,80,-352
669,-259,6,1060,-24,64,-372
670,-257,5,1058,-71,0,-385
671,-253,12,1079,-114,-69,-397
672,-264,1,1066,-149,-151,-409
673,-279,0,1039,-112,-184,-407
674,-289,-14,1004,-67,-157,-420
675,-283,-12,1010,-59,-65,-483
676,-271,14,1011,-92,11,-540
677,-258,36,1031,-122,44,-536
678,-258,41,1047,-83,41,-522
679,-253,42,1056,-67,-6,-504
680,-267,14,1051,-79,-83,-477
681,-272,11,1029,-90,-139,-469
682,-271,-3,1002,-75,-180,-475
683,-287,5,1014,-16,-198,-502
684,-273,8,1017,52,-190,-532
685,-285,14,1006,93,-170,-524
686,-275,25,1015,123,-149,-522
687,-273,21,1015,83,-116,-532
688,-269,37,1025,-2,-108,-542
689,-264,41,1018,-77,-125,-526
690,-264,25,990,-81,-131,-487
691,-253,29,1017,-63,-129,-495
692,-258,24,1014,-59,-131,-522
693,-266,15,1027,-79,-153,-516
694,-269,18,1014,-75,-184,-512
695,-274,15,1017,-26,-209,-510
696,-268,8,1021,-24,-223,-477
697,-262,16,992,-63,-208,-465
698,-273,10,1001,-100,-204,-471
699,-259,10,988,-94,-188,-483
700,-253,17,993,-69,-167,-493
701,-255,20,996,-43,-155,-510
702,-260,10,967,-26,-137,-512
703,-248,13,982,-2,-90,-508
704,-260,13,978,21,-38,-512
705,-256,15,1002,56,-22,-530
706,-240,12,997,83,-14,-545
707,-258,4,1018,97,15,-559
708,-252,-3,1039,42,37,-571
709,-265,-8,1043,-40,11,-596
710,-258,-6,1011,-114,-26,-629
711,-262,-12,1021,-180,-59,-633
712,-259,-10,1018,-190,-67,-590
713,-264,-15,1010,-176,-84,-559
714,-268,-26,1023,-96,-94,-581
715,-255,-41,1016,-22,-77,-625
716,-258,-29,1057,-34,-96,-663
717,-255,-39,1043,-94,-124,-696
718,-252,-24,1028,-202,-159,-750
719,-253,-14,1001,-278,-188,-784
720,-245,-15,997,-256,-208,-768
721,-252,-20,981,-137,-184,-766
722,-248,-11,958,5,-104,-774
723,-243,-9,976,80,-24,-762
724,-243,9,1008,56,29,-780
725,-250,4,1029,-20,48,-793
726,-240,11,1023,-77,50,-768
727,-255,2,1018,-104,-2,-756
728,-237,-6,1015,-83,-61,-727
729,-253,-12,1039,-57,-69,-752
730,-252,-7,1034,-71,-110,-774
731,-255,-12,1025,-84,-155,-786
732,-263,-16,1024,-88,-167,-793
733,-262,-7,1001,-122,-155,-788
734,-262,-13,990,-167,-127,-770
735,-240,-8,976,-159,-92,-747
736,-254,0,979,-114,-98,-735
737,-251,1,978,-47,-63,-741
738,-254,-24,977,41,-49,-727
739,-253,-38,983,42,-43,-752
740,-247,-24,999,-36,-26,-792
741,-239,-21,998,-143,-10,-817
742,-249,-20,982,-159,-14,-834
743,-250,-14,980,-79,-2,-833
744,-225,-11,992,29,5,-825
745,-228,-11,998,93,-22,-815
746,-228,-3,1019,95,-38,-799
747,-229,11,1015,56,-42,-735
748,-227,2,1004,29,-51,-688
749,-237,-9,1008,37,-84,-672
750,-237,-13,1022,41,-100,-676
751,-262,-40,989,62,-81,-706
752,-256,-24,1003,103,5,-733
753,-245,-15,1023,78,46,-768
754,-238,-7,1022,80,42,-772
755,-242,10,1023,109,21,-768
756,-233,6,1021,130,-26,-747
757,-250,3,1021,119,-47,-733
758,-248,-5,1004,62,-53,-715
759,-238,-6,1007,27,-77,-706
760,-240,-1,977,11,-90,-694
761,-246,-6,969,64,-92,-713
762,-233,6,968,158,-49,-727
763,-226,20,983,150,11,-700
764,-217,51,982,125,23,-692
765,-217,46,979,70,13,-643
766,-233,59,1006,50,27,-584
767,-216,52,1000,35,37,-567
768,-211,35,987,17,42,-538
769,-228,29,997,5,60,-534
770,-209,29,1001,31,78,-551
771,-223,43,1012,29,54,-543
772,-233,46,1005,56,46,-534
773,-224,46,1003,89,56,-536
774,-213,68,1017,60,70,-538
775,-213,82,1010,11,64,-495
776,-197,79,998,39,60,-436
777,-205,86,1000,85,50,-405
778,-207,81,992,115,48,-366
779,-213,81,998,125,52,-327
780,-217,98,1022,89,64,-282
781,-214,90,1015,66,78,-245
782,-229,79,999,95,80,-223
783,-231,101,1005,154,103,-217
784,-226,83,1010,197,130,-168
785,-236,76,1050,177,136,-127
786,-224,65,1033,107,128,-102
787,-241,47,1041,3,119,-96
788,-243,36,1022,-59,101,-98
789,-237,42,1007,-79,93,-106
790,-240,26,998,-22,105,-98
791,-232,50,1010,58,130,-65
792,-248,40,1029,128,128,-51
793,-227,48,1057,150,140,-8
794,-246,31,1040,68,121,35
795,-245,18,1046,-20,111,56
796,-238,15,1030,-57,91,68
797,-237,14,1047,-61,76,78
798,-234,16,1045,-40,56,85
799,-249,11,1048,58,37,113
800,-246,-2,1057,146,48,136
801,-246,2,1100,130,60,154
802,-242,7,1117,72,50,173
803,-245,11,1129,-8,7,197
804,-240,18,1169,-32,0,185
805,-233,55,1207,-88,19,175
806,-238,60,1281,-69,-14,218
807,-237,98,1364,11,31,240
808,-264,135,1484,74,-14,283
809,-272,149,1581,27,13,382
810,-317,167,1725,-112,50,490
811,-318,145,1857,-161,72,550
812,-338,106,2001,-159,54,533
813,-373,107,2048,-131,-83,486
814,-398,102,2048,-206,-368,521
815,-414,83,2048,-325,-819,523
816,-465,93,2048,-2,-1200,525
817,-510,64,2048,37,-1848,556
818,-582,40,2048,33,-2524,583
819,-623,32,2048,-36,-3204,638
820,-652,23,2048,-137,-3836,654
821,-678,33,2048,-125,-4354,607
822,-705,85,2048,-42,-4684,523
823,-719,102,2048,83,-4920,566
824,-737,85,1982,187,-5147,662
825,-744,44,1860,175,-5399,687
826,-733,14,1668,93,-5651,693
827,-717,-7,1461,-112,-5856,703
828,-695,-35,1252,-293,-5999,699
829,-642,-66,1010,-415,-6045,625
830,-570,-39,819,-520,-6018,525
831,-508,-15,606,-622,-6012,439
832,-439,-16,427,-542,-5950,460
833,-331,-34,284,-317,-5838,546
834,-283,-34,105,21,-5711,568
835,-210,-86,-52,394,-5471,667
836,-145,-120,-178,775,-5172,714
837,-81,-126,-269,939,-4766,699
838,0,-156,-366,794,-4295,673
839,105,-116,-398,587,-3827,566
840,189,-41,-473,517,-3387,455
841,277,1,-482,359,-3067,400
842,364,85,-524,470,-2778,392
843,432,148,-551,509,-2586,464
844,473,175,-610,591,-2405,658
845,440,147,-676,785,-2149,792
846,418,129,-728,1109,-1684,839
847,430,87,-725,1185,-1061,871
848,439,70,-700,1167,-497,916
849,410,35,-631,1025,-49,900
850,426,5,-584,951,349,837
851,470,4,-557,818,677,716
852,503,-12,-567,550,878,675
853,487,-16,-598,447,1072,626
854,471,1,-609,587,1332,511
855,430,72,-555,861,1683,437
856,411,115,-449,1183,2082,457
857,379,159,-318,1455,2474,560
858,336,178,-188,1572,2806,664
859,278,150,-89,1583,3111,765
860,233,78,43,1492,3341,777
861,150,68,183,1488,3498,642
862,66,41,329,1460,3607,511
863,21,43,463,1255,3697,429
864,-14,57,576,908,3822,386
865,-52,68,664,625,3912,347
866,-70,98,744,425,3947,314
867,-98,110,777,335,3937,289
868,-147,153,842,443,3910,261
869,-188,171,932,560,3902,357
870,-211,174,994,652,3966,501
871,-257,138,1112,689,4000,576
872,-256,92,1216,644,4044,650
873,-274,71,1300,533,3914,593
874,-324,66,1357,496,3746,460
875,-359,65,1410,529,3609,437
876,-364,49,1455,593,3605,417
877,-369,64,1504,611,3623,382
878,-369,101,1546,601,3660,371
879,-338,99,1620,517,3666,378
880,-328,114,1653,332,3525,412
881,-341,117,1653,64,3328,425
882,-329,130,1589,-114,3103,498
883,-359,112,1553,-159,2890,525
884,-367,97,1547,-51,2755,560
885,-356,82,1528,78,2662,576
886,-385,42,1501,240,2560,564
887,-382,16,1507,261,2574,503
888,-356,15,1512,27,2587,437
889,-379,43,1546,-329,2521,353
890,-364,45,1556,-532,2449,326
891,-349,58,1588,-551,2279,304
892,-350,84,1588,-387,2070,304
893,-326,56,1573,-159,1794,408
894,-346,43,1569,60,1478,421
895,-345,54,1527,214,1259,339
896,-343,49,1521,218,1179,318
897,-360,52,1521,78,1173,339
898,-357,39,1487,-42,1207,353
899,-364,6,1483,-198,1236,335
900,-363,-1,1491,-379,1195,296
901,-372,8,1479,-333,1074,232
902,-371,-7,1463,-278,830,164
903,-366,-6,1440,-342,576,113
904,-346,15,1385,-432,402,58
905,-353,26,1323,-500,269,21
906,-349,39,1260,-495,144,21
907,-348,47,1178,-413,123,1
908,-354,62,1122,-323,169,21
909,-348,44,1109,-243,269,33
910,-325,58,1081,-174,337,27
911,-328,64,1105,-180,341,42
912,-295,64,1094,-239,316,46
913,-296,74,1109,-198,187,31
914,-297,78,1112,-114,3,1
915,-300,76,1090,-59,-112,-16
916,-305,77,1057,-104,-206,7
917,-317,72,1043,-167,-206,-12
918,-314,59,1011,-237,-161,-18
919,-306,51,1003,-247,-100,-20
920,-309,43,1001,-168,-45,-53
921,-295,55,1029,-94,-20,-92
922,-281,63,1052,-131,-28,-106
923,-272,63,1044,-184,-67,-104
924,-301,77,1055,-239,-163,-61
925,-282,61,1023,-211,-194,-10
926,-295,62,1022,-104,-258,-40
927,-282,52,1015,-81,-288,-45
928,-293,47,1001,-143,-295,-51
929,-299,55,979,-157,-280,-63
930,-304,62,988,-190,-260,-59
931,-297,64,987,-133,-135,-77
932,-289,61,1007,-83,-71,-71
933,-281,54,990,-127,-86,-84
934,-278,59,991,-180,-67,-98
935,-275,68,1003,-235,-65,-88
936,-276,82,1022,-260,-116,-84
937,-279,72,1019,-188,-163,-67
938,-281,62,1005,-102,-202,-55
939,-278,52,997,-81,-239,-34
940,-284,34,976,-49,-206,-34
941,-301,27,1013,-2,-153,-88
942,-274,35,998,-12,-100,-122
943,-265,56,1021,-110,-51,-145
944,-251,71,1016,-176,-16,-161
945,-255,86,1035,-159,-36,-147
946,-263,88,1023,-129,-75,-120
947,-256,74,1033,-108,-137,-57
948,-269,68,1030,-71,-167,-10
949,-263,51,1002,-59,-174,42
950,-271,26,999,-84,-163,5
951,-294,33,980,-90,-120,-20
952,-262,53,1008,-63,-20,-22
953,-266,64,1005,-34,-30,17
954,-263,69,1013,-28,-51,68
955,-257,51,1009,-49,-67,97
956,-268,63,1003,-108,-92,107
957,-267,61,993,-192,-90,85
958,-257,55,981,-260,-83,74
959,-268,49,987,-333,-81,33
960,-261,46,994,-358,-57,-22
961,-280,32,968,-372,-73,-34
962,-281,25,954,-292,-63,-84
963,-279,21,966,-231,9,-131
964,-285,32,975,-209,1,-100
965,-280,18,1013,-151,-2,-69
966,-287,13,1020,-112,-36,-43
967,-284,2,1016,-145,-84,-67
968,-285,-14,1028,-206,-118,-71
969,-287,-31,1028,-264,-161,-65
970,-302,-38,1022,-264,-217,-104
971,-320,-54,1014,-170,-200,-155
972,-317,-59,995,-71,-135,-202
973,-308,-61,1018,-4,-69,-280
974,-298,-58,1057,19,-53,-336
975,-290,-43,1086,-6,-94,-399
976,-281,-22,1078,-71,-157,-432
977,-279,-28,1083,-137,-231,-407
978,-287,-43,1056,-229,-295,-379
979,-298,-63,1024,-268,-315,-403
980,-307,-73,966,-245,-268,-458
981,-300,-63,974,-147,-139,-514
982,-281,-38,998,-86,-28,-538
983,-279,-26,1024,-16,44,-581
984,-271,-10,1047,15,11,-579
985,-272,-7,1060,9,-59,-579
986,-265,6,1064,-16,-143,-577
987,-265,-14,1046,-45,-233,-569
988,-273,-16,1010,-59,-297,-575
989,-285,-23,1015,-83,-313,-602
990,-295,-31,1001,-61,-307,-620
991,-278,-31,990,-47,-247,-637
992,-282,-25,993,-36,-194,-667
993,-281,-21,976,-2,-129,-655
994,-276,-11,990,62,-94,-639
995,-275,-12,1008,138,-118,-631
996,-260,-10,1013,177,-145,-637
997,-262,2,1011,95,-155,-633
998,-273,8,1012,-18,-147,-624
999,-237,-10,1009,-165,-116,-583
1000,-253,-7,988,-200,-135,-665
1001,-259,-6,971,-186,-149,-721
1002,-261,5,965,-110,-129,-790
1003,-271,3,965,-18,-106,-840
1004,-254,21,964,1,-88,-836
1005,-252,37,978,0,-61,-809
1006,-244,43,973,15,-47,-764
1007,-244,58,986,66,-38,-752
1008,-236,45,974,113,-49,-702
1009,-232,43,965,109,-69,-657
1010,-243,34,978,64,-90,-627
1011,-257,29,976,42,-102,-604
1012,-262,21,965,52,-100,-579
1013,-267,21,995,52,-83,-575
1014,-270,0,965,66,-51,-557
1015,-274,-1,981,52,-40,-555
1016,-268,11,977,52,13,-557
1017,-260,-1,988,87,23,-542
1018,-265,12,993,117,42,-526
1019,-261,-14,989,128,76,-538
1020,-257,-6,1012,117,35,-555
1021,-256,-6,1023,128,-4,-584
1022,-268,-22,979,148,-18,-618
1023,-280,-30,946,177,44,-645
1024,-274,-21,960,158,167,-663
1025,-282,0,962,167,300,-661
1026,-253,8,972,203,382,-618
1027,-263,27,1009,283,386,-604
1028,-264,28,1045,326,326,-563
1029,-260,11,1057,375,214,-563
1030,-252,11,1079,328,54,-551
1031,-258,13,1051,193,-96,-584
1032,-262,27,1059,80,-186,-600
1033,-275,33,1015,-24,-202,-624
1034,-246,23,976,-6,-133,-588
1035,-285,13,952,54,-77,-661
1036,-299,-6,935,83,-22,-706
1037,-267,19,969,136,132,-754
1038,-274,21,1004,111,189,-788
1039,-262,30,1042,29,201,-762
1040,-263,25,1058,-47,171,-737
1041,-263,27,1059,-104,72,-766
1042,-273,34,1044,-143,-40,-747
1043,-284,33,1017,-145,-122,-727
1044,-287,25,989,-98,-180,-659
1045,-298,16,972,-65,-149,-624
1046,-296,-8,921,-22,-55,-602
1047,-278,11,944,42,85,-624
1048,-266,29,955,85,171,-659
1049,-264,46,988,103,189,-641
1050,-259,47,1003,89,199,-596
1051,-261,44,1013,33,154,-600
1052,-276,39,1013,-40,95,-625
1053,-255,39,991,-86,54,-612
1054,-276,46,985,-86,41,-633
1055,-284,25,958,-18,62,-600
1056,-288,22,946,91,113,-594
1057,-275,37,973,242,171,-625
1058,-283,40,996,335,189,-622
1059,-249,49,1032,310,197,-579
1060,-247,51,1052,210,150,-565
1061,-260,54,1054,76,42,-512
1062,-248,46,1019,41,-26,-504
1063,-268,51,981,83,-94,-512
1064,-253,45,976,123,-75,-499
1065,-269,69,980,191,-24,-540
1066,-253,60,1003,214,52,-573
1067,-255,75,1009,210,111,-588
1068,-242,98,1028,134,117,-567
1069,-229,93,1033,54,97,-530
1070,-239,96,1033,-2,66,-493
1071,-255,103,1057,-104,13,-442
1072,-237,103,1019,-172,-16,-370
1073,-237,110,1023,-172,-81,-295
1074,-258,97,995,-112,-125,-219
1075,-253,77,985,-12,-92,-200
1076,-266,70,973,97,-4,-208
1077,-257,64,1004,218,54,-241
1078,-253,73,1009,236,82,-264
1079,-253,93,1052,164,64,-256
1080,-255,98,1033,103,42,-235
1081,-241,106,1035,44,27,-190
1082,-246,101,1013,-18,-22,-139
1083,-259,95,1023,-61,-40,-98
1084,-263,87,1014,-55,-30,-38
1085,-275,62,992,0,0,-16
1086,-279,56,992,85,74,-10
1087,-279,45,1014,117,150,-16
1088,-274,57,1049,85,175,-18
1089,-273,63,1061,33,156,-32
1090,-271,67,1064,-20,97,-8
1091,-268,64,1080,-36,41,27
1092,-272,72,1083,-75,-16,56
1093,-271,48,1108,-96,-32,95
1094,-261,64,1122,-125,-47,107
1095,-264,70,1136,-163,-43,68
1096,-258,101,1170,-211,13,54
1097,-255,165,1197,-270,37,111
1098,-248,195,1233,-217,31,242
1099,-279,199,1292,-18,13,375
1100,-271,184,1349,126,-12,519
1101,-302,154,1443,212,-26,560
1102,-309,139,1576,248,-6,550
1103,-339,108,1695,179,0,613
1104,-354,76,1839,66,-124,679
1105,-368,97,1913,19,-317,679
1106,-387,57,2007,-124,-594,660
1107,-449,25,2048,-47,-766,572
1108,-484,29,2048,101,-1110,589
1109,-528,23,2048,205,-1403,568
1110,-514,2,2048,238,-1633,572
1111,-575,-23,2048,31,-2057,580
1112,-603,-37,2048,-161,-2512,587
1113,-638,-73,2048,-319,-2958,544
1114,-653,-20,2048,-407,-3407,392
1115,-673,12,2048,-422,-3875,332
1116,-689,29,2048,-465,-4401,343
1117,-702,29,1992,-442,-4813,306
1118,-718,58,1827,-315,-5167,271
1119,-712,75,1669,-165,-5456,232
1120,-692,86,1524,-40,-5670,275
1121,-654,94,1346,-43,-5764,328
1122,-627,73,1182,-124,-5784,371
1123,-593,85,1046,-280,-5731,447
1124,-520,97,870,-458,-5641,474
1125,-466,106,718,-672,-5577,539
1126,-396,122,570,-700,-5454,607
1127,-321,91,443,-518,-5497,658
1128,-253,83,254,-98,-5540,693
1129,-183,52,113,476,-5510,718
1130,-129,-6,-63,1048,-5311,791
1131,-54,-68,-138,1410,-4858,841
1132,19,-84,-192,1357,-4385,923
1133,75,-118,-207,1109,-4042,912
1134,112,-116,-252,898,-3750,882
1135,191,-114,-303,736,-3504,798
1136,257,-64,-355,519,-3311,572
1137,314,-1,-420,126,-3094,443
1138,380,51,-578,-247,-2907,386
1139,425,118,-686,-270,-2651,296
1140,473,178,-787,-110,-2262,236
1141,507,244,-856,89,-1756,271
1142,510,305,-891,154,-1266,464
1143,526,318,-871,294,-659,755
1144,503,299,-799,398,-42,1017
1145,504,250,-704,550,490,1193
1146,522,180,-647,671,937,1271
1147,483,107,-571,732,1250,1310
1148,449,72,-485,835,1542,1275
1149,399,54,-425,898,1843,1197
1150,366,35,-355,1066,2060,1109
1151,316,53,-269,1302,2312,968
1152,283,61,-178,1488,2595,843
1153,277,84,-70,1490,2896,792
1154,229,82,24,1357,3208,796
1155,183,79,125,1220,3425,769
1156,118,91,258,1042,3572,691
1157,68,121,361,773,3660,658
1158,36,107,436,587,3744,695
1159,-6,146,530,457,3781,677
1160,-87,141,645,533,3845,685
1161,-128,92,724,703,3886,828
1162,-197,70,838,974,3917,863
1163,-239,40,942,1236,3974,771
1164,-268,52,1069,1300,3998,708
1165,-276,43,1174,1080,4027,714
1166,-260,40,1263,632,4033,714
1167,-250,48,1323,236,3894,707
1168,-269,87,1382,56,3673,623
1169,-306,150,1429,181,3544,587
1170,-346,114,1467,322,3478,742
1171,-345,50,1504,511,3423,933
1172,-346,-12,1505,675,3365,925
1173,-400,-68,1529,787,3322,849
1174,-389,-103,1580,652,3281,763
1175,-368,-116,1589,250,3320,593
1176,-370,-80,1630,-231,3255,474
1177,-366,-64,1663,-530,3166,451
1178,-342,-29,1652,-686,3000,480
1179,-368,-11,1645,-579,2730,451
1180,-394,-20,1665,-223,2494,417
1181,-346,-77,1635,-79,2322,486
1182,-354,-98,1574,-137,2013,453
1183,-356,-114,1533,-192,1781,339
1184,-344,-79,1461,-307,1714,261
1185,-336,-61,1419,-418,1714,207
1186,-320,-31,1346,-366,1859,134
1187,-345,-19,1335,-245,2013,142
1188,-316,3,1326,-59,2115,160
1189,-304,36,1350,99,2156,132
1190,-330,37,1398,220,2009,125
1191,-325,4,1440,146,1748,173
1192,-322,-10,1416,158,1572,162
1193,-327,-28,1371,1,1337,113
1194,-345,-10,1351,-307,1203,93
1195,-342,-1,1352,-256,1259,82
1196,-321,1,1360,-112,1291,89
1197,-343,8,1395,-69,1167,48
1198,-330,21,1399,58,1058,58
1199,-328,31,1396,103,873,33
1200,-331,39,1388,85,705,17
1201,-335,37,1393,0,542,0
1202,-334,39,1394,-83,367,-24
1203,-339,47,1359,-254,212,3
1204,-333,61,1347,-366,93,25
1205,-377,31,1284,-319,-14,13
1206,-352,6,1232,-266,-16,44
1207,-368,9,1213,-198,83,-36
1208,-350,30,1190,-213,148,-92
1209,-337,36,1201,-225,119,-133
1210,-329,53,1186,-223,15,-149
1211,-333,74,1179,-231,-94,-155
1212,-326,75,1163,-266,-192,-157
1213,-314,76,1153,-329,-272,-125
1214,-296,67,1136,-379,-362,-92
1215,-306,70,1115,-368,-475,-63
1216,-307,45,1068,-262,-518,-73
1217,-316,35,1022,-149,-500,-69
1218,-315,35,1000,-106,-422,-110
1219,-276,59,1011,-125,-327,-143
1220,-283,66,999,-153,-264,-172
1221,-282,79,1011,-131,-295,-141
1222,-273,65,1012,-125,-323,-110
1223,-283,54,985,-135,-366,-98
1224,-285,46,974,-127,-366,-92
1225,-276,43,963,-131,-338,-71
1226,-272,30,954,-190,-319,-67
1227,-279,35,943,-211,-301,-57
1228,-273,33,948,-139,-276,-79
1229,-271,53,939,-92,-250,-96
1230,-260,41,966,-63,-223,-96
1231,-267,32,973,-2,-227,-92
1232,-263,36,995,-12,-260,-77
1233,-259,26,968,46,-264,-106
1234,-265,20,981,7,-278,-124
1235,-267,23,979,-81,-247,-124
1236,-262,35,960,-131,-196,-141
1237,-264,36,990,-122,-159,-141
1238,-263,39,974,-43,-104,-125
1239,-257,31,1006,37,-84,-112
1240,-273,29,1028,56,-108,-116
1241,-259,14,1033,35,-139,-131
1242,-274,11,1026,0,-180,-133
1243,-271,5,1072,-2,-170,-135
1244,-263,1,1037,-26,-180,-135
1245,-268,2,1050,-22,-206,-176
1246,-271,-3,1043,-28,-186,-200
1247,-268,2,1042,-59,-155,-225
1248,-266,4,1031,-43,-127,-217
1249,-260,-1,1052,-22,-114,-233
1250,-253,-26,1065,-55,-106,-213
1251,-276,-28,1062,-120,-114,-202
1252,-276,-45,1070,-178,-118,-217
1253,-268,-53,1081,-211,-104,-229
1254,-267,-60,1086,-221,-112,-235
1255,-267,-61,1092,-223,-153,-237
1256,-279,-71,1062,-198,-237,-247
1257,-282,-88,1061,-186,-282,-293
1258,-270,-86,1061,-190,-284,-342
1259,-272,-79,1055,-170,-292,-393
1260,-269,-64,1047,-122,-280,-461
1261,-259,-65,1046,-69,-252,-508
1262,-271,-49,1016,-10,-272,-545
1263,-280,-55,1022,7,-274,-571
1264,-270,-58,1039,-36,-249,-590
1265,-253,-49,1023,-79,-252,-618
1266,-267,-40,1027,-98,-282,-641
1267,-269,-29,1009,-96,-311,-594
1268,-273,-41,1023,-59,-321,-577
1269,-266,-50,1032,-71,-311,-540
1270,-280,-89,1030,-108,-299,-624
1271,-269,-73,1034,-167,-334,-704
1272,-270,-58,1017,-249,-336,-752
1273,-259,-50,1011,-245,-325,-768
1274,-263,-47,1004,-229,-329,-819
1275,-255,-34,979,-227,-315,-829
1276,-269,-20,989,-276,-295,-797
1277,-214,-17,960,-282,-250,-801
1278,-234,-2,975,-229,-299,-819
1279,-243,5,981,-176,-319,-833
1280,-247,-13,971,-125,-295,-852
1281,-249,-22,971,-96,-295,-852
1282,-241,-32,960,-116,-286,-854
1283,-240,-37,948,-151,-274,-870
1284,-240,-21,967,-159,-249,-897
1285,-225,-3,960,-104,-209,-895
1286,-229,-9,968,-40,-157,-874
1287,-224,17,1001,15,-161,-885
1288,-220,8,999,0,-202,-848
1289,-229,10,995,-24,-250,-803
1290,-217,11,991,-26,-231,-772
1291,-222,-11,981,-42,-204,-727
1292,-219,-16,1004,-8,-176,-727
1293,-226,-25,987,46,-155,-745
1294,-227,-22,980,89,-133,-754
1295,-224,-40,995,83,-88,-786
1296,-221,-40,1006,31,-40,-850
1297,-219,-17,1007,-28,-45,-858
1298,-213,-13,1021,-67,-57,-850
1299,-226,-9,1018,-102,-73,-809
1300,-188,-25,994,-92,-77,-797
1301,-223,-18,998,-24,-143,-858
1302,-218,-24,1004,15,-165,-846
1303,-221,-37,993,105,-135,-821
1304,-219,-49,997,136,-168,-805
1305,-219,-55,1011,148,-137,-836
1306,-209,-46,997,134,-120,-846
1307,-210,-38,995,83,-108,-856
1308,-214,-37,1004,31,-114,-860
1309,-212,-39,992,3,-96,-907
1310,-208,-27,971,-10,-92,-891
1311,-193,-45,976,0,-79,-889
1312,-218,-26,953,37,-73,-926
1313,-203,-24,946,105,-71,-897
1314,-209,-20,965,251,-34,-905
1315,-217,-28,986,373,-36,-915
1316,-199,-18,994,390,-30,-901
1317,-214,-19,1008,281,-6,-909
1318,-204,-10,1000,109,0,-938
1319,-195,-3,994,-36,-2,-928
1320,-212,4,986,-26,-26,-918
1321,-211,3,998,74,-16,-887
1322,-216,-6,976,130,1,-856
1323,-205,-26,997,193,42,-850
1324,-211,-20,999,164,103,-879
1325,-201,-25,1028,80,132,-875
1326,-206,-12,1037,66,146,-883
1327,-199,0,1049,107,111,-872
1328,-186,11,1069,132,23,-870
1329,-188,21,1040,183,-79,-905
1330,-176,52,1023,248,-157,-918
1331,-170,66,1009,265,-192,-932
1332,-174,94,994,283,-186,-954
1333,-169,113,990,330,-165,-950
1334,-159,154,976,355,-122,-918
1335,-164,167,995,376,-71,-872
1336,-147,186,984,451,-30,-799
1337,-153,164,1001,439,21,-702
1338,-164,149,1021,390,48,-579
1339,-174,131,1038,310,78,-495
1340,-176,109,1042,197,72,-395
1341,-153,99,1036,109,48,-352
1342,-190,94,1052,68,29,-354
1343,-196,88,1031,-10,-32,-321
1344,-199,80,1010,-8,-36,-323
1345,-177,95,1014,-30,-55,-325
1346,-193,91,990,-45,-28,-331
1347,-191,96,980,-43,23,-301
1348,-190,109,963,11,68,-258
1349,-189,93,983,89,80,-196
1350,-193,78,995,193,107,-168
1351,-178,77,1021,185,93,-135
1352,-188,66,1047,42,87,-104
1353,-180,48,1030,-57,97,-83
1354,-189,58,1020,-133,74,-75
1355,-193,59,1015,-114,80,-59
1356,-185,59,1015,-73,80,-38
1357,-186,47,1019,-32,76,-12
1358,-197,52,1014,11,85,-8
1359,-170,39,1036,35,134,7
1360,-183,41,1047,48,140,7
1361,-172,54,1064,23,117,21
1362,-179,64,1060,31,80,29
1363,-186,64,1066,21,33,72
1364,-187,63,1082,7,35,87
1365,-179,64,1120,-14,41,117
1366,-190,76,1143,-12,44,121
1367,-200,75,1159,56,56,154
1368,-194,96,1253,167,107,171
1369,-198,93,1340,267,152,195
1370,-189,111,1444,267,160,244
1371,-199,107,1519,197,60,289
1372,-207,103,1565,169,-137,339
1373,-223,75,1620,234,-346,386
1374,-201,81,1625,384,-542,408
1375,-183,105,1698,623,-747,412
1376,-191,138,1796,875,-870,447
1377,-171,148,1868,1064,-915,482
1378,-234,180,2009,1152,-959,482
1379,-248,191,2048,1212,-1110,501
1380,-256,205,2048,1029,-1208,603
1381,-273,197,2048,687,-1413,707
1382,-327,182,2048,515,-1598,724
1383,-366,150,2048,208,-2022,828
1384,-421,131,2048,-45,-2481,916
1385,-415,119,2048,-129,-3053,943
1386,-469,80,2048,-124,-3667,843
1387,-501,94,2048,-69,-4114,759
1388,-484,100,1917,-153,-4422,746
1389,-488,131,1826,-247,-4649,732
1390,-488,144,1720,-262,-4811,726
1391,-473,145,1619,-346,-4928,773
1392,-452,132,1456,-522,-5036,802
1393,-439,119,1326,-579,-5114,753
1394,-417,120,1182,-495,-5196,724
1395,-405,120,1062,-327,-5174,728
1396,-373,103,923,-252,-5170,777
1397,-337,98,781,-241,-5192,847
1398,-288,72,615,-188,-5206,878
1399,-215,34,461,-159,-5243,869
1400,-176,15,276,-165,-5163,812
1401,-141,25,157,-225,-4946,753
1402,-66,15,55,-221,-4657,722
1403,9,52,-16,-182,-4377,662
1404,46,87,-98,-141,-4098,646
1405,109,99,-119,-2,-3838,779
1406,158,86,-163,195,-3606,853
1407,208,64,-191,351,-3442,904
1408,245,13,-227,539,-3268,931
1409,251,-48,-248,603,-3004,927
1410,291,-71,-274,548,-2649,916
1411,286,-90,-267,416,-2295,835
1412,321,-69,-255,269,-1946,750
1413,352,-73,-282,5,-1604,619
1414,369,-49,-309,-174,-1344,476
1415,388,-14,-321,-301,-1008,347
1416,411,-5,-325,-395,-672,339
1417,421,2,-341,-385,-375,433
1418,432,-47,-356,-299,-141,560
1419,456,-71,-388,-151,78,568
1420,474,-88,-427,-75,294,578
1421,468,-94,-483,-59,505,568
1422,456,-106,-527,107,722,503
1423,423,-79,-538,408,1076,447
1424,390,-61,-535,689,1566,357
1425,399,-14,-459,962,2144,304
1426,393,33,-369,1232,2644,318
1427,365,85,-207,1464,3058,353
1428,348,105,-71,1628,3310,378
1429,297,125,56,1732,3511,300
1430,237,155,187,1708,3701,292
1431,203,164,322,1593,3896,365
1432,136,143,379,1273,4060,464
1433,70,125,437,935,4160,554
1434,15,117,496,777,4339,541
1435,-50,135,600,861,4533,453
1436,-107,168,728,1142,4626,412
1437,-135,233,842,1449,4654,396
1438,-145,257,961,1642,4644,382
1439,-157,271,1063,1595,4537,371
1440,-189,285,1155,1343,4429,400
1441,-213,289,1214,976,4359,533
1442,-236,276,1242,650,4347,683
1443,-286,264,1336,474,4408,839
1444,-332,204,1422,460,4541,910
1445,-336,159,1555,482,4625,1017
1446,-374,109,1630,652,4542,988
1447,-408,59,1718,644,4320,910
1448,-414,10,1808,582,4093,753
1449,-391,34,1827,314,3792,609
1450,-391,48,1790,-122,3384,537
1451,-369,80,1761,-401,3042,486
1452,-367,117,1717,-418,2814,460
1453,-358,103,1693,-315,2544,597
1454,-330,56,1627,-49,2353,705
1455,-363,25,1551,70,2107,656
1456,-336,-2,1509,150,2042,611
1457,-331,3,1497,119,2148,529
1458,-338,18,1580,89,2232,464
1459,-317,10,1619,13,2251,496
1460,-291,-1,1639,-84,2121,523
1461,-297,-20,1607,-180,1845,457
1462,-306,-16,1570,-233,1597,386
1463,-302,-4,1511,-237,1410,347
1464,-320,12,1485,-182,1263,306
1465,-329,26,1476,-83,1203,300
1466,-310,16,1456,-4,1199,332
1467,-307,-11,1460,-49,1205,332
1468,-314,-27,1426,-155,1166,322
1469,-296,-43,1377,-188,1068,304
1470,-320,-60,1339,-208,951,232
1471,-318,-58,1336,-272,859,138
1472,-301,-39,1329,-342,750,52
1473,-300,-11,1325,-415,603,-20
1474,-297,23,1299,-430,455,-42
1475,-294,28,1265,-393,302,-18
1476,-298,30,1220,-323,169,-10
1477,-313,20,1158,-250,95,-28
1478,-301,16,1127,-198,74,-36
1479,-302,12,1098,-186,89,-88
1480,-291,49,1078,-137,144,-141
1481,-291,68,1122,-157,208,-168
1482,-278,68,1134,-202,197,-167
1483,-284,96,1160,-264,158,-131
1484,-266,79,1154,-356,101,-124
1485,-255,76,1146,-403,-28,-129
1486,-258,71,1114,-417,-170,-112
1487,-262,72,1098,-375,-258,-79
1488,-281,72,1091,-299,-317,-94
1489,-269,62,1076,-219,-315,-90
1490,-273,62,1025,-190,-274,-108
1491,-281,49,1031,-178,-213,-129
1492,-270,44,1019,-227,-145,-131
1493,-263,51,1027,-290,-98,-141
1494,-253,54,1044,-323,-129,-149
1495,-246,70,1033,-282,-155,-151
1496,-241,69,1047,-235,-206,-118
1497,-256,68,1042,-165,-250,-104
1498,-241,62,1020,-125,-278,-100
1499,-260,46,1023,-102,-305,-112
1500,-252,49,1007,-88,-333,-102
1501,-252,33,980,-34,-311,-127
1502,-250,50,989,-4,-274,-135
1503,-228,68,994,-47,-225,-151
1504,-236,56,1004,-75,-178,-151
1505,-238,56,1000,-83,-165,-124
1506,-247,58,999,-45,-170,-131
1507,-246,47,1008,-36,-157,-125
1508,-247,27,1006,-55,-129,-116
1509,-253,21,1029,-75,-125,-139
1510,-245,26,1038,-102,-112,-139
1511,-253,22,1055,-149,-120,-129
1512,-261,22,1035,-174,-163,-157
1513,-246,6,1035,-180,-186,-200
1514,-240,12,1010,-182,-219,-235
1515,-247,17,1023,-143,-241,-262
1516,-246,31,1014,-112,-256,-268
1517,-240,27,1017,-75,-237,-278
1518,-241,32,1010,-53,-219,-276
1519,-244,36,1016,-84,-188,-280
1520,-248,31,1018,-114,-161,-272
1521,-250,12,1017,-122,-155,-266
1522,-233,-4,1006,-90,-133,-274
1523,-244,-1,1012,-110,-116,-293
1524,-239,-2,1038,-139,-122,-321
1525,-226,6,1052,-174,-125,-364
1526,-233,14,1041,-231,-151,-362
1527,-233,18,1039,-217,-165,-368
1528,-235,22,1031,-153,-170,-387
1529,-238,14,1032,-86,-172,-395
1530,-224,11,1032,-26,-184,-385
1531,-224,24,1039,11,-188,-383
1532,-229,19,1053,-12,-198,-362
1533,-233,29,1048,-59,-233,-375
1534,-229,15,1048,-88,-233,-375
1535,-231,12,1030,-141,-252,-377
1536,-237,32,1021,-155,-262,-405
1537,-233,23,1023,-122,-231,-399
1538,-247,26,1025,-86,-211,-411
1539,-235,10,1024,-47,-188,-430
1540,-244,5,1017,-47,-176,-446
1541,-244,-6,1019,-67,-176,-446
1542,-244,0,1006,-81,-202,-448
1543,-243,25,1008,-73,-221,-452
1544,-243,10,1014,-53,-215,-452
1545,-236,4,1025,-77,-217,-459
1546,-222,12,1012,-131,-215,-461
1547,-238,1,995,-196,-202,-454
1548,-231,-6,1000,-157,-190,-461
1549,-237,2,985,-42,-198,-491
1550,-232,13,988,56,-170,-502
1551,-226,1,1008,105,-145,-499
1552,-215,-4,1010,80,-161,-493
1553,-223,-7,1023,5,-167,-500
1554,-219,0,1030,-106,-180,-520
1555,-218,-6,1019,-215,-188,-518
1556,-233,-15,1006,-262,-200,-514
1557,-220,-11,988,-274,-188,-543
1558,-212,-1,986,-254,-190,-559
1559,-218,-1,982,-174,-180,-588
1560,-216,15,983,-106,-180,-581
1561,-212,13,1009,-45,-178,-588
1562,-214,10,995,5,-198,-575
1563,-200,0,998,48,-213,-565
1564,-199,10,1000,46,-237,-571
1565,-211,2,995,3,-243,-575
1566,-210,4,987,-63,-221,-549
1567,-201,-1,989,-86,-161,-536
1568,-198,4,985,-90,-147,-596
1569,-211,0,987,-86,-163,-610
1570,-191,13,1006,-26,-104,-602
1571,-186,4,1011,-16,-102,-616
1572,-181,23,1021,11,-120,-584
1573,-192,17,1011,52,-118,-588
1574,-193,5,1017,48,-133,-581
1575,-188,20,1022,-2,-155,-573
1576,-197,8,1030,-32,-155,-559
1577,-196,-6,1028,-61,-141,-530
1578,-199,-8,1019,-69,-125,-524
1579,-199,-5,1022,-38,-118,-551
1580,-191,-15,1022,3,-79,-596
1581,-193,-23,1020,46,-92,-606
1582,-201,-15,1025,62,-114,-637
1583,-190,-7,1023,15,-118,-657
1584,-189,-9,1023,-57,-137,-659
1585,-187,13,1004,-102,-149,-649
1586,-194,3,987,-106,-168,-651
1587,-186,17,995,-53,-180,-647
1588,-191,8,985,3,-161,-616
1589,-192,0,998,19,-124,-600
1590,-189,1,996,44,-98,-594
1591,-184,2,1008,83,-55,-600
1592,-178,-3,1025,91,-40,-610
1593,-186,5,1024,56,-49,-618
1594,-192,-4,1039,-2,-51,-624
1595,-191,-6,1036,-40,-71,-610
1596,-183,0,1039,-43,-81,-610
1597,-192,4,1037,-77,-102,-608
1598,-190,2,1018,-61,-139,-600
1599,-193,15,1003,-2,-163,-600
1600,-187,4,999,37,-168,-584
1601,-182,-6,992,41,-127,-579
1602,-184,-11,973,-47,-88,-588
1603,-200,4,967,-98,-55,-606
1604,-197,14,975,-79,0,-590
1605,-193,18,1002,-30,41,-590
1606,-194,20,993,13,74,-600
1607,-190,5,1018,21,50,-584
1608,-202,-6,1045,-26,7,-573
1609,-205,-16,1022,-92,-24,-588
1610,-197,-15,1022,-161,-45,-594
1611,-200,-16,1005,-168,-59,-584
1612,-197,-15,990,-69,-59,-567
1613,-193,-19,986,44,-45,-557
1614,-185,-1,987,169,-24,-555
1615,-191,-10,1013,214,21,-547
1616,-182,-19,1034,121,64,-497
1617,-179,-20,1036,72,66,-502
1618,-176,-7,1046,54,17,-518
1619,-176,-15,1053,15,-20,-508
1620,-187,-15,1042,64,-61,-516
1621,-182,-12,1071,107,-79,-526
1622,-184,-30,1055,64,-53,-530
1623,-215,-47,1051,23,-57,-555
1624,-152,-15,1051,-59,-28,-487
1625,-213,1,1064,13,0,-540
1626,-177,-20,1027,56,46,-518
1627,-196,-20,1070,46,0,-508
1628,-177,-36,1060,103,66,-467
1629,-177,-29,1083,70,-8,-434
1630,-193,-45,1061,119,-40,-442
1631,-189,-39,1073,140,-61,-448
1632,-188,-41,1066,89,-75,-458
1633,-192,-24,1071,19,-49,-500
1634,-199,-22,1037,-67,-38,-502
1635,-197,-8,1012,-174,-16,-469
1636,-152,0,1003,-239,50,-495
1637,-177,26,986,-264,56,-491
1638,-170,21,987,-290,48,-458
1639,-164,25,965,-227,111,-424
1640,-165,35,982,-163,91,-426
1641,-153,17,987,-61,97,-448
1642,-174,16,983,0,95,-415
1643,-165,17,998,58,74,-438
1644,-174,10,1007,85,48,-471
1645,-173,11,1027,74,33,-508
1646,-159,33,1017,29,21,-524
1647,-157,52,1008,-36,-32,-532
1648,-157,81,982,-55,-65,-497
1649,-155,77,992,-47,-49,-436
1650,-157,86,970,0,-32,-368
1651,-158,76,980,54,-4,-329
1652,-158,71,998,119,21,-313
1653,-173,66,999,150,56,-282
1654,-151,50,1024,152,74,-266
1655,-166,35,1057,91,66,-288
1656,-171,41,1048,35,21,-270
1657,-165,57,1037,7,7,-264
1658,-155,65,1020,-28,-2,-249
1659,-152,78,1003,-10,-34,-209
1660,-154,75,1010,19,-34,-155
1661,-169,76,983,76,0,-104
1662,-175,66,993,158,48,-53
1663,-165,53,1016,210,111,-32
1664,-172,41,1046,193,107,-24
1665,-189,31,1050,218,85,-18
1666,-174,15,1047,197,68,3
1667,-173,4,1050,146,17,23
1668,-173,14,1059,97,-30,11
1669,-188,25,1041,56,-51,21
1670,-193,23,1034,64,-42,37
1671,-177,18,1034,107,11,66
1672,-177,24,1051,136,80,87
1673,-178,22,1094,128,125,117
1674,-175,10,1123,82,140,109
1675,-186,3,1135,25,119,111
1676,-191,-13,1178,-57,95,103
1677,-188,-4,1230,-135,41,60
1678,-191,7,1238,-149,-8,1
1679,-197,11,1285,-28,-47,11
1680,-220,2,1359,191,-24,-20
1681,-216,13,1486,451,89,-112
1682,-213,43,1647,572,250,-194
1683,-203,106,1810,511,289,-192
1684,-189,137,1992,326,228,-165
1685,-193,231,2048,39,115,-20
1686,-218,233,2048,-249,-225,232
1687,-273,252,2048,15,-444,468
1688,-355,193,2048,416,-696,609
1689,-479,54,2048,1115,-717,693
1690,-531,104,2048,1515,-809,568
1691,-573,127,2048,1470,-1219,429
1692,-624,142,2048,1240,-1983,435
1693,-710,185,2048,1015,-2981,501
1694,-760,169,2048,726,-4018,634
1695,-803,177,2048,427,-4971,671
1696,-930,129,2048,519,-5577,687
1697,-903,86,1899,800,-5844,757
1698,-844,118,1681,835,-6053,722
1699,-793,111,1461,621,-6260,724
1700,-731,108,1204,263,-6428,753
1701,-642,105,879,-8,-6489,763
1702,-574,119,573,-77,-6520,761
1703,-489,87,343,46,-6452,794
1704,-369,96,82,166,-6272,861
1705,-322,66,-128,341,-6104,904
1706,-239,4,-293,580,-5786,957
1707,-149,-38,-467,845,-5219,1000
1708,-46,-40,-498,1125,-4647,968
1709,49,-60,-475,1310,-4124,921
1710,126,-18,-401,1400,-3696,806
1711,157,-35,-410,1097,-3444,771
1712,260,0,-428,699,-3167,755
1713,344,37,-429,294,-2874,800
1714,356,35,-487,173,-2698,912
1715,387,-24,-521,462,-2569,957
1716,357,-33,-516,789,-2366,904
1717,380,-56,-622,781,-1901,902
1718,417,-69,-656,570,-1420,853
1719,461,-25,-699,208,-965,763
1720,465,-11,-693,-139,-532,792
1721,516,18,-719,-334,-165,804
1722,575,53,-806,-454,101,789
1723,572,71,-843,-368,324,783
1724,557,114,-849,48,677,792
1725,463,119,-805,712,1126,843
1726,429,134,-659,1332,1605,919
1727,387,136,-488,1673,2128,955
1728,358,121,-302,1718,2556,894
1729,356,163,-145,1521,2859,769
1730,332,216,-3,1177,3113,613
1731,277,267,87,685,3234,494
1732,265,332,116,304,3341,519
1733,188,363,115,292,3421,628
1734,115,335,129,525,3484,769
1735,47,330,130,861,3652,880
1736,-31,299,151,1121,3863,921
1737,-119,261,247,1369,4216,962
1738,-190,217,391,1519,4621,966
1739,-247,217,587,1384,4869,894
1740,-314,191,778,1107,4962,744
1741,-371,242,945,728,5068,744
1742,-380,210,1070,500,5156,767
1743,-397,242,1275,558,5105,773
1744,-405,284,1475,794,4921,748
1745,-409,329,1669,1167,4703,777
1746,-458,323,1786,1353,4500,892
1747,-446,302,1914,1064,4304,1044
1748,-492,228,1959,576,4109,1117
1749,-511,150,2043,115,3966,1216
1750,-481,116,2048,-63,3863,1244
1751,-435,58,2048,-202,3697,1212
1752,-417,33,2048,-311,3380,1111
1753,-428,10,2048,-430,3068,1000
1754,-428,-9,2048,-530,2736,875
1755,-389,-22,2048,-809,2345,769
1756,-369,-26,2020,-1129,1853,718
1757,-324,-44,1888,-1262,1375,699
1758,-336,-62,1678,-1042,1087,675
1759,-355,-107,1626,-467,1031,599
1760,-328,-119,1605,15,1242,542
1761,-291,-81,1633,21,1423,417
1762,-250,-35,1666,-334,1404,382
1763,-228,-13,1644,-616,1234,396
1764,-221,-40,1595,-670,927,357
1765,-219,-38,1491,-633,562,296
1766,-232,-25,1399,-508,283,218
1767,-224,-4,1343,-372,179,228
1768,-242,-8,1314,-141,119,195
1769,-264,-25,1308,125,150,142
1770,-260,-26,1285,214,220,125
1771,-238,-23,1289,42,210,107
1772,-226,-26,1272,-170,140,74
1773,-205,6,1246,-323,44,23
1774,-228,26,1200,-417,-84,0
1775,-223,33,1173,-452,-204,25
1776,-216,32,1143,-454,-254,33
1777,-204,51,1101,-407,-327,35
1778,-211,48,1060,-334,-358,15
1779,-204,50,1014,-243,-323,-8
1780,-209,50,996,-114,-254,-47
1781,-206,70,1008,-22,-167,-53
1782,-202,63,1009,-24,-180,-61
1783,-197,62,1032,-45,-186,-73
1784,-183,64,1018,-124,-184,-83
1785,-193,64,1038,-188,-204,-86
1786,-174,71,1027,-180,-264,-77
1787,-188,81,1009,-174,-305,-92
1788,-176,97,1014,-182,-329,-49
1789,-181,90,966,-149,-358,-8
1790,-180,98,973,-51,-348,-38
1791,-175,94,957,-16,-245,-67
1792,-171,93,973,-20,-131,-71
1793,-174,106,974,-2,-100,-61
1794,-162,87,989,-2,-59,-81
1795,-166,98,966,-6,-47,-71
1796,-174,87,999,-4,-49,-73
1797,-182,88,1015,-20,-55,-106
1798,-169,99,993,-47,-102,-125
1799,-158,112,979,-71,-127,-125
1800,-152,129,982,-104,-116,-94
1801,-152,119,965,-100,-69,-63
1802,-151,128,940,-69,-30,-24
1803,-165,114,960,-16,-2,13
1804,-166,101,978,42,85,31
1805,-158,101,999,-16,136,46
1806,-163,85,1015,-4,128,37
1807,-170,84,1046,109,74,-8
1808,-162,76,1072,171,13,-43
1809,-167,71,1082,115,-47,-90
1810,-165,66,1080,19,-104,-102
1811,-176,68,1059,-88,-167,-112
1812,-171,58,1049,-131,-174,-129
1813,-161,64,1044,-141,-178,-114
1814,-186,52,1035,-73,-157,-125
1815,-170,42,1007,-63,-86,-125
1816,-170,44,1019,-125,-20,-141
1817,-163,44,1039,-118,11,-157
1818,-166,50,1044,-47,13,-176
1819,-157,35,1076,21,5,-182
1820,-160,28,1113,-6,-63,-190
1821,-159,25,1105,-98,-139,-192
1822,-167,23,1103,-145,-192,-211
1823,-153,36,1084,-155,-225,-233
1824,-159,26,1080,-155,-235,-274
1825,-158,42,1077,-104,-231,-325
1826,-158,49,1058,-26,-208,-334
1827,-162,49,1048,-12,-198,-336
1828,-166,62,1054,-22,-192,-325
1829,-164,39,1048,-51,-170,-280
1830,-151,28,1048,-88,-163,-274
1831,-162,7,1046,-137,-165,-303
1832,-170,7,1042,-163,-180,-342
1833,-174,-8,1055,-151,-180,-366
1834,-171,-11,1037,-125,-188,-379
1835,-144,-1,1054,-102,-190,-454
1836,-177,-4,1065,-86,-204,-553
1837,-164,16,1042,-182,-225,-584
1838,-159,28,1032,-178,-239,-618
1839,-153,25,1037,-194,-270,-606
1840,-145,36,1027,-204,-292,-592
1841,-153,24,998,-219,-313,-583
1842,-163,10,978,-250,-284,-586
1843,-160,5,969,-252,-223,-614
1844,-160,1,989,-239,-170,-625
1845,-164,-17,989,-208,-127,-661
1846,-156,5,1002,-167,-104,-696
1847,-157,14,1027,-163,-116,-696
1848,-163,11,1023,-194,-149,-700
1849,-164,17,1026,-188,-174,-729
1850,-163,22,1015,-198,-178,-733
1851,-147,17,1015,-211,-176,-727
1852,-156,26,1023,-206,-190,-754
1853,-153,36,1022,-231,-178,-733
1854,-156,30,1016,-221,-122,-717
1855,-157,14,1007,-168,-100,-778
1856,-160,12,1034,-137,-94,-833
1857,-154,23,1033,-167,-83,-862
1858,-158,16,1026,-245,-106,-866
1859,-154,12,1022,-241,-131,-870
1860,-167,18,1007,-200,-155,-877
1861,-168,19,1006,-135,-159,-864
1862,-140,12,1036,-83,-153,-819
1863,-154,14,1042,-36,-184,-844
1864,-158,9,1053,-4,-241,-870
1865,-140,27,1050,-34,-249,-870
1866,-150,28,1032,-149,-233,-887
1867,-143,29,1044,-241,-206,-899
1868,-148,50,1049,-319,-176,-903
1869,-141,49,1047,-356,-170,-840
1870,-163,44,1058,-235,-149,-807
1871,-155,15,1074,-174,-110,-719
1872,-151,10,1071,-94,-77,-709
1873,-144,17,1081,15,-84,-731
1874,-147,2,1068,-26,-151,-711
1875,-151,15,1096,-83,-172,-723
1876,-128,15,1053,-204,-157,-717
1877,-133,35,1033,-284,-172,-758
1878,-145,26,989,-288,-163,-788
1879,-127,34,964,-258,-135,-838
1880,-138,46,966,-180,-61,-813
1881,-142,30,960,-151,48,-764
1882,-132,38,976,-108,148,-731
1883,-148,35,982,-125,244,-696
1884,-151,29,1028,-151,263,-653
1885,-129,13,1049,-241,234,-672
1886,-133,2,1069,-284,97,-776
1887,-145,20,1064,-215,-6,-846
1888,-145,-4,1039,-247,-102,-887
1889,-146,12,1013,-233,-141,-891
1890,-140,4,997,-94,-174,-924
1891,-138,15,983,-4,-196,-961
1892,-119,6,980,-2,-170,-1006
1893,-140,33,1007,-49,-143,-1038
1894,-134,24,997,-131,-94,-1036
1895,-163,27,980,-137,-26,-1004
1896,-112,20,1005,-96,83,-928
1897,-121,23,1014,-118,44,-930
1898,-138,27,1016,-98,-20,-973
1899,-135,22,1046,-104,-6,-942
1900,-128,14,1046,-114,-20,-915
1901,-137,22,1045,-118,-114,-934
1902,-135,40,1051,-143,-180,-905
1903,-156,53,1035,-196,-206,-850
1904,-118,34,1013,-256,-163,-817
1905,-143,45,992,-301,-198,-766
1906,-131,6,988,-245,-178,-711
1907,-151,33,949,-190,-79,-709
1908,-143,1,937,-90,3,-731
1909,-148,-13,960,-34,41,-774
1910,-133,7,1004,23,177,-840
1911,-126,20,1024,-88,205,-840
1912,-140,13,1042,-168,138,-836
1913,-145,16,1042,-221,87,-840
1914,-150,15,1015,-292,66,-809
1915,-121,18,1021,-389,74,-731
1916,-127,25,1006,-436,70,-709
1917,-114,8,1001,-436,66,-684
1918,-134,16,990,-331,126,-747
1919,-136,17,997,-321,156,-766
1920,-125,37,1016,-278,205,-780
1921,-104,60,1034,-256,234,-788
1922,-106,70,1020,-200,201,-807
1923,-104,80,1050,-149,132,-735
1924,-115,67,1044,-75,80,-704
1925,-119,69,1057,-63,41,-651
1926,-116,69,1033,-124,33,-606
1927,-120,66,1032,-202,19,-577
1928,-119,70,1022,-245,0,-553
1929,-129,59,1012,-239,15,-553
1930,-127,67,990,-208,68,-553
1931,-131,76,1018,-198,150,-555
1932,-127,89,1035,-241,226,-495
1933,-115,89,1051,-292,238,-436
1934,-127,88,1055,-254,193,-389
1935,-125,70,1043,-153,148,-311
1936,-133,53,1039,-34,97,-237
1937,-128,22,1043,23,82,-202
1938,-145,25,1047,11,70,-202
1939,-139,15,1056,-43,105,-209
1940,-122,-1,1042,-102,138,-209
1941,-117,32,1057,-88,148,-250
1942,-122,28,1032,-79,140,-293
1943,-123,40,1029,-63,105,-264
1944,-140,48,1028,-79,37,-219
1945,-132,37,1014,-67,50,-133
1946,-128,37,1019,-36,87,-67
1947,-133,18,1036,31,85,-14
1948,-145,-4,1017,82,70,60
1949,-155,-37,1022,119,85,50
1950,-154,-45,1010,117,125,29
1951,-149,-48,1049,66,146,0
1952,-148,-52,1051,29,142,-43
1953,-145,-17,1064,27,107,-81
1954,-138,-12,1073,44,91,-86
1955,-129,-9,1084,37,60,-59
1956,-134,-1,1066,1,9,-32
1957,-140,-10,1043,-16,-10,-10
1958,-150,-20,1044,-10,1,21
1959,-163,-31,1012,31,37,50
1960,-174,-48,1021,85,93,21
1961,-163,-64,1039,134,156,5
1962,-175,-65,1071,156,185,7
1963,-168,-57,1134,158,167,9
1964,-153,-40,1184,140,121,-30
1965,-160,-19,1237,150,44,-34
1966,-163,-17,1275,138,9,11
1967,-147,-6,1310,97,-10,39
1968,-163,32,1366,46,-32,-6
1969,-143,63,1436,5,-28,1
1970,-150,100,1508,134,11,9
1971,-155,136,1617,482,60,58
1972,-177,169,1780,806,111,117
1973,-205,176,1978,980,103,296
1974,-213,157,2048,1058,3,490
1975,-285,119,2048,935,-213,642
1976,-337,54,2048,742,-475,722
1977,-394,-14,2048,617,-708,742
1978,-448,-100,2048,410,-1018,683
1979,-515,-117,2048,273,-1551,560
1980,-539,-126,2048,97,-2012,468
1981,-535,-114,2048,-143,-2678,392
1982,-525,-53,2048,-235,-3340,177
1983,-519,46,2024,-295,-3842,15
1984,-479,126,1830,-461,-4237,-4
1985,-473,193,1660,-547,-4500,72
1986,-445,212,1508,-426,-4672,250
1987,-428,200,1366,-239,-4735,435
1988,-421,155,1239,-206,-4739,623
1989,-404,109,1108,-215,-4680,781
1990,-372,63,1001,-292,-4637,869
1991,-318,42,863,-342,-4659,873
1992,-269,-12,734,-360,-4797,876
1993,-216,-22,611,-167,-4917,746
1994,-181,-17,466,-61,-4975,699
1995,-143,-17,324,23,-4965,667
1996,-85,-27,168,7,-4795,589
1997,-66,-25,10,101,-4602,556
1998,9,-64,-51,445,-4401,597
1999,92,-60,-68,837,-4059,597
2000,118,-92,-81,1054,-3719,609
2001,181,-109,-60,1087,-3459,621
2002,228,-96,-41,978,-3137,541
2003,275,-72,-1,660,-2792,480
2004,331,-41,-27,302,-2563,455
2005,385,-34,-82,91,-2440,421
2006,433,-3,-167,70,-2374,404
2007,420,12,-266,240,-2225,353
2008,434,-4,-336,566,-1997,343
2009,441,14,-416,695,-1608,271
2010,477,81,-430,636,-1094,175
2011,523,134,-468,316,-575,203
2012,546,180,-556,-77,-141,361
2013,600,181,-565,-262,302,533
2014,650,229,-550,-90,714,626
2015,690,267,-499,167,1046,658
2016,669,290,-478,554,1224,867
2017,577,283,-437,1044,1400,1099
2018,525,246,-370,1488,1666,1310
2019,434,210,-309,1851,1966,1390
2020,344,212,-224,2132,2236,1345
2021,332,215,-130,2224,2544,1228
2022,281,229,-24,2052,2791,1093
2023,350,219,20,1736,3187,1105
2024,282,267,99,1484,3386,1085
2025,159,314,195,1449,3472,1019
2026,70,301,289,1613,3634,1095
2027,-19,250,352,1730,3716,1162
2028,-36,228,460,1699,3816,1210
2029,-84,161,478,1474,3970,1220
2030,-143,117,527,1335,4179,1238
2031,-267,62,587,1328,4406,1201
2032,-370,-3,710,1480,4605,1109
2033,-385,-10,884,1578,4804,982
2034,-388,62,1105,1623,4798,585
2035,-416,160,1296,1658,4783,318
2036,-425,214,1444,1298,4710,404
2037,-384,158,1478,814,4500,710
2038,-415,93,1438,396,4226,781
2039,-471,52,1408,285,4001,761
2040,-512,87,1416,378,4056,734
2041,-551,85,1576,619,4279,677
2042,-551,42,1694,771,4447,886
2043,-553,-31,1783,746,4376,908
2044,-565,-77,1889,658,4089,685
2045,-513,-145,1903,421,3822,544
2046,-436,-129,1935,21,3365,244
2047,-458,-49,1914,-479,2960,-75
2048,-431,24,1885,-936,2701,-90
2049,-415,106,1839,-956,2449,-94
2050,-437,138,1777,-581,2132,-75
2051,-428,106,1728,-159,1890,56
2052,-439,22,1657,60,1757,68
2053,-430,-6,1602,-100,1650,13
2054,-392,-25,1559,-532,1611,-12
2055,-412,5,1553,-866,1589,-67
2056,-378,33,1554,-874,1537,-69
2057,-380,44,1568,-694,1384,-42
2058,-362,59,1584,-454,1103,-49
2059,-351,57,1521,-342,828,-84
2060,-340,78,1480,-418,587,-57
2061,-329,93,1418,-512,394,-59
2062,-353,114,1363,-514,291,-63
2063,-352,101,1314,-448,273,-77
2064,-353,118,1291,-342,333,-63
2065,-338,118,1288,-258,369,21
2066,-328,104,1284,-125,337,80
2067,-320,76,1280,3,236,66
2068,-323,78,1288,42,109,54
2069,-330,64,1259,-42,-34,29
2070,-330,65,1223,-206,-182,9
2071,-319,72,1194,-354,-293,7
2072,-328,95,1170,-368,-405,-4
2073,-320,75,1125,-280,-452,-16
2074,-307,91,1100,-211,-438,-28
2075,-311,99,1069,-188,-381,-30
2076,-284,89,1065,-225,-354,15
2077,-295,81,1044,-159,-290,5
2078,-280,60,1044,-106,-276,27
2079,-280,64,1029,-86,-270,5
2080,-266,57,1044,-137,-307,-10
2081,-296,48,1017,-208,-399,-30
2082,-285,28,1007,-161,-415,3
2083,-271,25,968,-98,-417,15
2084,-266,30,974,-114,-465,-16
2085,-274,48,969,-106,-420,-18
2086,-259,48,946,-122,-362,21
2087,-245,66,923,-124,-317,15
2088,-252,63,931,-129,-202,-24
2089,-252,61,933,-137,-137,-4
2090,-243,71,949,-81,-118,-10
2091,-232,39,971,-94,-108,-36
2092,-244,50,966,-145,-145,-61
2093,-242,42,935,-202,-190,-65
2094,-243,45,923,-239,-159,-53
2095,-243,44,941,-219,-125,-51
2096,-250,45,954,-143,-88,-69
2097,-241,50,969,-61,-28,-83
2098,-240,74,978,17,0,-61
2099,-229,74,1009,29,-24,-81
2100,-229,72,997,-26,-16,-98
2101,-227,84,996,-124,-75,-63
2102,-235,87,982,-170,-110,-71
2103,-242,87,982,-159,-100,-96
2104,-227,71,979,-125,-79,-83
2105,-255,64,982,-77,-92,-81
2106,-263,48,988,-20,-47,-86
2107,-244,39,995,-53,9,-94
2108,-248,35,996,-51,33,-125
2109,-235,59,1033,-22,54,-143
2110,-234,53,1035,-36,44,-137
2111,-235,57,1042,-75,-2,-153
2112,-245,65,1043,-108,-43,-141
2113,-232,62,1041,-118,-75,-122
2114,-251,59,1040,-75,-90,-96
2115,-233,38,1038,-43,-73,-98
2116,-229,37,1044,-69,-86,-116
2117,-238,35,1054,-96,-79,-151
2118,-234,33,1016,-131,-61,-204
2119,-245,33,1022,-137,-61,-245
2120,-239,42,1022,-73,-53,-278
2121,-237,48,1044,-59,-51,-243
2122,-239,30,1035,-36,-59,-221
2123,-246,17,1041,-24,-69,-192
2124,-237,3,1048,-40,-98,-170
2125,-251,-20,1050,-65,-122,-190
2126,-258,-37,1033,-116,-161,-198
2127,-265,-33,1033,-178,-184,-227
2128,-268,-40,1035,-213,-186,-288
2129,-269,-16,1008,-217,-194,-366
2130,-271,-1,997,-219,-176,-411
2131,-257,15,986,-174,-170,-420
2132,-262,2,977,-108,-127,-442
2133,-267,9,985,-84,-75,-418
2134,-253,-2,1004,-71,-43,-374
2135,-245,-7,1027,-55,-40,-327
2136,-267,-31,1028,-65,-67,-325
2137,-272,-47,1035,-75,-84,-379
2138,-271,-48,1024,-143,-131,-418
2139,-269,-44,1030,-221,-159,-463
2140,-270,-27,1017,-317,-167,-506
2141,-269,-28,1005,-411,-141,-538
2142,-251,-10,1005,-426,-131,-540
2143,-266,-15,991,-375,-129,-549
2144,-269,-15,985,-356,-104,-497
2145,-261,-25,991,-399,-69,-459
2146,-284,-44,982,-420,-16,-420
2147,-248,-47,992,-467,44,-444
2148,-268,-66,1000,-479,70,-532
2149,-257,-62,1007,-491,42,-549
2150,-253,-63,1011,-444,48,-584
2151,-263,-57,1018,-442,0,-647
2152,-258,-50,1022,-467,-67,-680
2153,-263,-46,995,-506,-86,-668
2154,-257,-42,979,-536,-90,-690
2155,-273,-28,986,-557,-42,-696
2156,-232,-27,948,-536,15,-637
2157,-239,-26,973,-508,-12,-618
2158,-255,-14,944,-540,1,-577
2159,-239,-26,972,-508,85,-540
2160,-255,-34,961,-469,136,-588
2161,-256,-53,967,-454,132,-627
2162,-265,-67,971,-411,128,-680
2163,-252,-74,985,-389,80,-698
2164,-280,-72,994,-389,15,-715
2165,-269,-82,977,-405,9,-737
2166,-269,-94,971,-397,19,-735
2167,-283,-110,981,-313,33,-762
2168,-275,-96,990,-209,93,-829
2169,-276,-83,1011,-235,115,-874
2170,-279,-77,1041,-297,134,-858
2171,-258,-68,1048,-387,158,-850
2172,-241,-55,1044,-434,134,-920
2173,-241,-33,1022,-368,115,-993
2174,-256,-28,1010,-340,-6,-995
2175,-252,-24,997,-192,-47,-991
2176,-260,-31,996,-145,-10,-983
2177,-247,-40,978,-192,19,-946
2178,-242,-47,968,-217,70,-954
2179,-250,-35,969,-178,123,-961
2180,-238,-26,1000,-129,156,-924
2181,-235,-9,1028,-86,154,-854
2182,-249,-16,1031,-32,111,-774
2183,-258,-46,1025,21,85,-706
2184,-267,-51,1040,17,72,-704
2185,-258,-47,1024,-59,41,-696
2186,-261,-71,1008,-108,41,-719
2187,-260,-59,1015,-59,95,-741
2188,-263,-69,1019,-32,130,-768
2189,-272,-49,1040,48,160,-780
2190,-258,-66,1037,13,156,-766
2191,-254,-55,1050,-90,130,-811
2192,-255,-46,1053,-229,113,-833
2193,-248,-44,1031,-334,87,-819
2194,-248,-29,1029,-374,72,-842
2195,-234,-21,1013,-360,52,-823
2196,-238,-21,1018,-313,23,-760
2197,-234,-15,1028,-243,3,-725
2198,-238,-28,1012,-159,11,-749
2199,-231,-26,1004,-159,46,-792
2200,-220,-1,1011,-231,83,-780
2201,-211,6,1031,-272,105,-723
2202,-205,12,1025,-241,97,-694
2203,-215,29,1018,-145,42,-674
2204,-221,29,1020,-55,-22,-610
2205,-220,10,1021,9,-42,-545
2206,-223,8,1019,-4,-65,-491
2207,-226,-2,1028,-32,-69,-430
2208,-222,-8,1003,-45,-49,-411
2209,-236,-11,1000,-51,-18,-424
2210,-222,13,990,-55,25,-420
2211,-224,16,993,-83,70,-399
2212,-221,4,999,-104,128,-372
2213,-226,18,1002,-94,109,-327
2214,-229,11,1022,-47,85,-266
2215,-237,-7,997,-6,74,-211
2216,-236,-30,1014,21,72,-172
2217,-239,-35,1005,39,85,-165
2218,-239,-34,1027,60,87,-153
2219,-236,-26,1042,72,91,-108
2220,-227,-47,1037,76,76,-114
2221,-230,-33,1044,74,48,-114
2222,-230,-23,1019,37,13,-124
2223,-229,-23,1008,13,33,-116
2224,-241,-24,1004,-10,41,-106
2225,-236,-31,1014,11,64,-57
2226,-250,-51,1001,17,85,-4
2227,-256,-59,1032,-6,105,21
2228,-258,-86,1033,-47,148,44
2229,-267,-94,1056,-79,160,66
2230,-238,-105,1050,-69,123,78
2231,-259,-79,1057,-18,62,23
2232,-257,-90,1087,7,23,31
2233,-251,-74,1116,80,21,46
2234,-265,-63,1164,97,-43,33
2235,-261,-67,1195,83,-77,64
2236,-262,-28,1262,50,-67,46
2237,-262,-3,1349,-2,-34,11
2238,-253,50,1445,-24,-26,44
2239,-255,111,1546,37,-71,111
2240,-252,136,1703,105,-135,246
2241,-257,138,1814,119,-327,375
2242,-267,162,1883,140,-625,443
2243,-274,169,1947,308,-926,541
2244,-291,167,2028,570,-1184,638
2245,-340,160,2048,953,-1348,742
2246,-406,127,2048,1480,-1391,732
2247,-468,111,2048,1798,-1434,800
2248,-528,75,2048,1792,-1616,947
2249,-596,14,2048,1486,-1961,1005
2250,-666,-18,2048,820,-2739,1107
2251,-747,-98,2048,255,-3542,1134
2252,-768,-113,2048,-77,-4200,1070
2253,-811,-158,2048,-321,-4885,888
2254,-844,-147,2018,-383,-5354,730
2255,-808,-144,1822,-485,-5540,626
2256,-756,-90,1612,-579,-5573,455
2257,-715,-33,1408,-840,-5766,300
2258,-652,18,1204,-1055,-5834,222
2259,-557,78,996,-1239,-5852,261
2260,-459,133,808,-1262,-5864,335
2261,-372,144,608,-1055,-5821,480
2262,-293,139,428,-520,-5618,648
2263,-230,90,304,101,-5381,720
2264,-169,38,181,654,-5163,853
2265,-128,-28,93,1095,-5010,955
2266,-95,-108,17,1333,-4858,1037
2267,-39,-142,-26,1414,-4573,1003
2268,38,-133,-56,1212,-4299,1009
2269,63,-159,-113,851,-4065,980
2270,109,-177,-122,667,-3850,919
2271,154,-165,-141,666,-3627,847
2272,166,-158,-210,736,-3458,748
2273,178,-166,-274,808,-3225,748
2274,242,-199,-314,824,-2915,798
2275,282,-203,-384,796,-2579,744
2276,339,-166,-365,697,-2206,566
2277,417,-109,-404,564,-1768,507
2278,467,-62,-404,480,-1512,480
2279,504,-43,-381,625,-1264,365
2280,500,-27,-363,605,-991,310
2281,508,-11,-325,521,-694,300
2282,498,26,-342,412,-354,300
2283,488,17,-281,476,-47,361
2284,486,74,-301,822,285,365
2285,461,123,-308,1167,607,357
2286,496,204,-290,1449,939,464
2287,505,224,-250,1667,1251,640
2288,494,234,-212,1917,1494,804
2289,464,201,-166,2277,1718,929
2290,422,177,-85,2496,1933,1078
2291,350,143,-52,2732,2115,1167
2292,289,112,31,2884,2271,1121
2293,245,122,148,2863,2558,994
2294,228,93,235,2527,2833,812
2295,225,120,277,2076,3072,677
2296,203,188,291,1652,3142,533
2297,187,275,363,1519,3203,425
2298,131,347,389,1671,3294,460
2299,45,350,391,1994,3417,695
2300,-44,300,437,2251,3595,957
2301,-159,215,517,2406,3886,1101
2302,-213,135,629,2373,4156,1082
2303,-285,49,744,1958,4396,964
2304,-298,25,829,1257,4621,816
2305,-321,100,939,511,4849,593
2306,-325,159,1050,-30,5031,511
2307,-320,185,1156,-129,5035,529
2308,-359,190,1254,58,4839,550
2309,-383,176,1371,138,4669,603
2310,-437,110,1403,0,4625,675
2311,-454,44,1493,-334,4675,853
2312,-502,-35,1588,-499,4730,832
2313,-504,-79,1754,-458,4750,875
2314,-506,-160,1830,-524,4716,906
2315,-502,-196,1982,-639,4513,722
2316,-444,-159,2048,-1102,4248,460
2317,-400,-111,2048,-1721,3843,328
2318,-400,-93,2048,-1938,3291,181
2319,-358,-70,2031,-1815,2878,146
2320,-344,-21,1982,-1481,2425,93
2321,-357,-16,1888,-1057,1984,125
2322,-374,-11,1821,-538,1787,125
2323,-387,-14,1810,-215,1697,132
2324,-364,-27,1800,-221,1562,181
2325,-348,-34,1779,-303,1388,138
2326,-341,-1,1752,-475,1236,113
2327,-328,9,1741,-569,1033,154
2328,-311,20,1721,-504,699,167
2329,-332,40,1690,-348,363,152
2330,-354,15,1629,-186,105,85
2331,-371,-4,1528,-112,-96,29
2332,-350,-6,1464,-124,-235,-24
2333,-362,-6,1380,-245,-293,-53
2334,-332,-17,1287,-413,-303,-92
2335,-313,-3,1226,-547,-325,-145
2336,-296,13,1169,-633,-336,-149
2337,-265,29,1113,-569,-354,-122
2338,-255,46,1099,-409,-413,-110
2339,-266,49,1071,-280,-456,-92
2340,-255,15,1075,-223,-442,-53
2341,-239,11,1046,-288,-456,-69
2342,-245,11,1005,-454,-438,-94
2343,-243,-9,998,-581,-397,-84
2344,-257,-26,961,-606,-336,-63
2345,-267,-45,942,-614,-264,-77
2346,-274,-50,966,-588,-88,-127
2347,-239,-16,979,-665,27,-108
2348,-232,-3,994,-635,-12,-141
2349,-242,2,985,-499,-86,-86
2350,-211,-21,968,-456,-124,1
2351,-222,2,930,-495,-172,0
2352,-226,-22,948,-598,-270,21
2353,-235,-6,933,-424,-227,9
2354,-222,-27,919,-299,-225,54
2355,-230,-30,912,-260,-256,42
2356,-214,-24,917,-108,-147,29
2357,-218,-32,910,1,-34,-20
2358,-224,-36,947,-84,-24,-30
2359,-229,-72,965,-34,41,-59
2360,-217,-86,981,-61,58,-163
2361,-227,-84,1002,-120,-2,-241
2362,-243,-104,1000,-180,-92,-280
2363,-235,-102,1009,-24,-125,-334
2364,-231,-100,992,83,-168,-375
2365,-227,-100,992,105,-239,-377
2366,-231,-76,1004,134,-231,-403
2367,-210,-78,1017,111,-211,-407
2368,-220,-65,1010,76,-217,-389
2369,-209,-63,999,72,-249,-354
2370,-221,-82,990,93,-229,-391
2371,-221,-89,1001,74,-129,-444
2372,-224,-104,992,5,-40,-495
2373,-201,-101,1029,-59,68,-581
2374,-188,-79,1053,-170,105,-667
2375,-188,-56,1075,-270,58,-692
2376,-190,-45,1092,-295,5,-708
2377,-181,-44,1093,-235,-83,-682
2378,-188,-42,1058,-149,-233,-657
2379,-201,-47,1042,-53,-331,-606
2380,-213,-58,1013,23,-329,-583
2381,-222,-74,1006,83,-282,-594
2382,-228,-69,991,144,-127,-661
2383,-226,-69,1008,140,72,-678
2384,-208,-74,1061,107,173,-702
2385,-195,-70,1083,64,156,-741
2386,-212,-70,1104,-14,46,-819
2387,-213,-65,1099,-124,-73,-856
2388,-204,-67,1071,-237,-172,-870
2389,-207,-39,1051,-333,-235,-901
2390,-198,-48,1022,-340,-266,-909
2391,-204,-34,980,-297,-237,-936
2392,-211,-37,961,-206,-129,-948
2393,-210,-26,980,-36,-2,-956
2394,-204,-25,1002,29,72,-956
2395,-200,-38,1016,0,64,-909
2396,-209,-33,1022,-22,25,-881
2397,-214,-49,1043,-45,-12,-852
2398,-205,-41,1060,-65,-22,-833
2399,-192,-46,1064,-63,-36,-874
2400,-205,-61,1045,-47,-100,-915
2401,-218,-47,1043,-65,-170,-942
2402,-227,-37,1015,-94,-163,-995
2403,-220,-13,1005,-90,-116,-1002
2404,-226,-21,998,-133,-71,-989
2405,-217,-26,1015,-137,1,-985
2406,-223,-22,1006,-147,35,-965
2407,-223,-35,1006,-147,58,-952
2408,-222,-28,1004,-167,107,-963
2409,-216,-27,1033,-165,109,-952
2410,-222,-21,1028,-102,64,-930
2411,-229,-7,1057,-16,-12,-963
2412,-225,-19,1048,5,-30,-993
2413,-236,-13,1030,-32,-67,-969
2414,-235,-12,1015,-12,-104,-961
2415,-220,-4,1045,37,-127,-928
2416,-211,7,1024,72,-145,-891
2417,-212,-12,1026,95,-153,-877
2418,-215,-23,1022,109,-170,-874
2419,-228,-32,1010,132,-157,-879
2420,-217,-10,1004,93,-94,-879
2421,-211,-20,1013,5,-20,-895
2422,-210,-2,1024,-59,29,-907
2423,-197,3,1032,-92,41,-895
2424,-187,16,1045,-90,11,-842
2425,-181,3,1042,-104,-42,-815
2426,-182,2,1025,-94,-122,-778
2427,-193,-6,1022,-75,-153,-747
2428,-178,-14,1020,-71,-141,-731
2429,-187,-18,977,-98,-104,-750
2430,-201,-16,968,-94,-69,-762
2431,-189,-9,974,-55,3,-756
2432,-194,-13,984,-18,83,-754
2433,-188,-8,998,46,95,-733
2434,-173,-11,1016,48,89,-709
2435,-172,-10,1039,39,46,-700
2436,-162,-9,1053,9,9,-719
2437,-186,-10,1020,-94,-12,-717
2438,-173,-6,1041,-172,-18,-698
2439,-166,-10,1016,-231,-40,-700
2440,-175,21,1005,-235,-38,-731
2441,-164,21,993,-182,3,-694
2442,-166,25,997,-77,33,-639
2443,-158,26,1031,39,39,-614
2444,-162,34,1026,60,46,-567
2445,-150,25,1028,74,29,-506
2446,-166,16,1013,113,1,-471
2447,-177,-3,1013,169,-18,-426
2448,-179,-16,1019,248,-18,-430
2449,-180,-17,1047,277,-6,-432
2450,-200,-32,1053,283,13,-454
2451,-203,-34,1065,279,39,-459
2452,-181,-14,1075,185,56,-444
2453,-185,0,1052,70,17,-442
2454,-190,-6,1036,66,-45,-395
2455,-198,-11,1029,117,-69,-358
2456,-188,-14,1045,175,-90,-323
2457,-199,-28,1040,226,-125,-317
2458,-193,-30,1036,251,-122,-319
2459,-203,-32,1035,197,-83,-321
2460,-197,-22,1010,148,-75,-329
2461,-218,-35,1001,144,-36,-338
2462,-200,-40,1016,193,17,-323
2463,-191,-41,1024,214,21,-325
2464,-196,-39,1044,207,0,-333
2465,-183,-45,1056,148,-4,-336
2466,-182,-34,1064,109,-57,-344
2467,-180,-26,1043,87,-122,-348
2468,-178,-18,1028,37,-176,-333
2469,-180,-13,1009,-8,-208,-342
2470,-182,-13,991,-40,-184,-352
2471,-183,-4,971,-16,-122,-317
2472,-173,4,992,52,-34,-288
2473,-165,-2,995,85,21,-282
2474,-173,12,999,107,21,-276
2475,-164,1,1031,138,7,-239
2476,-152,7,1006,113,-12,-209
2477,-173,0,1028,42,-34,-178
2478,-163,6,1033,-12,-43,-147
2479,-170,-12,1024,-67,-77,-143
2480,-169,-17,1024,-124,-112,-145
2481,-182,-11,990,-170,-100,-161
2482,-185,-19,986,-151,-84,-161
2483,-179,-16,986,-63,-43,-155
2484,-173,-18,995,-10,7,-170
2485,-165,3,1003,9,7,-184
2486,-145,10,1004,-12,1,-167
2487,-156,14,998,-65,-2,-143
2488,-153,17,990,-79,-6,-104
2489,-146,16,990,-57,0,-67
2490,-157,2,997,-24,27,-40
2491,-156,-5,1011,13,31,17
2492,-160,-19,1012,48,13,29
2493,-159,-26,1017,44,29,21
2494,-168,-37,1020,29,48,39
2495,-168,-33,1042,5,46,35
2496,-158,-32,1036,-12,35,35
2497,-170,-39,1050,-30,27,29
2498,-176,-37,1024,-28,-24,33
2499,-174,-32,1023,-16,-30,29
2500,-168,-31,1022,-16,-2,46
2501,-170,-38,1041,-22,3,39
2502,-176,-48,1028,-22,35,33
2503,-181,-49,1032,-34,37,21
2504,-171,-52,1021,-6,54,5
2505,-168,-60,1035,-2,56,5
2506,-173,-48,1018,27,39,11
2507,-176,-39,1043,48,17,29
2508,-168,-44,1042,48,7,64
2509,-173,-49,1046,37,-18,68
2510,-178,-43,1034,25,-36,64
2511,-178,-37,1052,5,-40,64
2512,-176,-51,1040,1,-22,64
2513,-184,-52,1023,-2,-4,68
2514,-187,-52,1032,25,-4,64
2515,-183,-64,1051,48,-6,60
2516,-183,-72,1049,17,1,39
2517,-177,-68,1064,-59,-28,25
2518,-185,-51,1041,-125,-32,5
2519,-190,-52,1066,-118,-57,31
2520,-181,-60,1055,-61,-71,33
2521,-187,-53,1042,-24,-84,21
2522,-188,-72,1043,-34,-75,25