sequence,AccelerometerX,AccelerometerY,AccelerometerZ,GyroscopeX,GyroscopeY,GyroscopeZ
0,-416,15,920,-88,-75,-28
1,-425,33,930,-129,-45,-28
2,-404,23,926,-125,-28,-8
3,-413,15,935,-86,-36,-16
4,-405,12,921,-77,-67,-16
5,-414,6,924,-122,-98,-34
6,-418,23,913,-170,-100,-43
7,-411,13,903,-178,-90,-34
8,-412,10,901,-149,-98,-24
9,-416,20,886,-96,-102,-32
10,-409,16,906,-77,-73,-45
11,-406,5,913,-108,-42,-47
12,-410,9,896,-127,5,-51
13,-406,16,915,-102,35,-49
14,-410,34,924,-61,27,-42
15,-408,22,960,-32,0,-40
16,-408,19,936,-53,-34,-40
17,-412,23,945,-90,-63,-34
18,-410,25,923,-108,-71,-34
19,-406,31,923,-94,-55,-32
20,-402,21,910,-65,-24,-14
21,-396,29,919,-51,-6,-14
22,-414,22,933,-57,15,-4
23,-407,15,926,-67,29,7
24,-405,21,922,-71,9,1
25,-417,13,918,-69,-16,0
26,-412,22,924,-65,-38,-8
27,-411,16,924,-61,-38,-16
28,-414,23,908,-67,-24,-8
29,-418,22,913,-53,0,-6
30,-423,22,912,-47,31,0
31,-408,21,925,-57,54,-6
32,-409,18,924,-67,46,-16
33,-410,20,934,-83,41,-22
34,-416,23,919,-88,31,-10
35,-415,26,947,-65,19,-4
36,-417,23,942,-40,7,-4
37,-403,25,918,-34,7,9
38,-411,16,941,-38,13,1
39,-417,17,934,-55,35,-4
40,-399,21,956,-88,29,-14
41,-406,22,953,-114,19,-14
42,-407,33,943,-108,3,-18
43,-420,20,937,-79,-8,-8
44,-410,28,945,-47,-16,-4
45,-416,22,935,-65,-14,5
46,-408,12,922,-98,-22,0
47,-418,25,923,-102,-14,3
48,-411,29,936,-75,3,27
49,-420,16,926,-45,9,35
50,-429,9,945,-28,-2,25
51,-422,5,932,-40,-2,17
52,-420,13,928,-59,1,0
53,-415,15,920,-69,-2,-12
54,-410,14,933,-77,-22,-16
55,-404,18,921,-55,-38,-18
56,-403,25,935,-53,-45,-6
57,-401,27,911,-49,-36,-4
58,-402,22,914,-49,-18,9
59,-410,17,908,-69,19,7
60,-395,9,923,-77,31,-4
61,-403,29,934,-86,21,0
62,-417,17,947,-84,-2,-4
63,-410,13,949,-71,-22,7
64,-421,5,927,-73,-34,5
65,-410,12,926,-92,-34,11
66,-418,-7,927,-102,-38,1
67,-425,-6,928,-84,-24,-6
68,-418,-6,919,-57,-16,-14
69,-423,-9,922,-26,-28,-24
70,-421,3,926,-12,-30,-53
71,-408,6,932,-28,-30,-53
72,-421,8,919,-57,-40,-61
73,-420,5,938,-73,-45,-57
74,-430,22,931,-61,-47,-51
75,-419,26,938,-51,-45,-40
76,-424,21,925,-55,-40,-40
77,-427,11,897,-49,-30,-43
78,-419,20,916,-51,-6,-53
79,-404,22,929,-55,11,-55
80,-408,20,928,-71,9,-59
81,-406,20,938,-71,1,-45
82,-412,23,930,-71,-16,-43
83,-406,25,946,-63,-30,-20
84,-412,13,936,-43,-38,-26
85,-399,21,943,-43,-42,-42
86,-413,25,925,-73,-28,-49
87,-410,13,929,-114,-24,-47
88,-406,29,918,-116,-36,-55
89,-413,17,924,-92,-43,-49
90,-398,27,913,-47,-34,-28
91,-408,25,911,-2,-32,-6
92,-408,26,919,29,-34,5
93,-411,22,893,7,-8,0
94,-408,20,934,-34,33,-14
95,-408,26,920,-79,66,-10
96,-411,30,950,-96,64,-8
97,-409,25,955,-84,29,-4
98,-419,21,954,-79,-14,5
99,-416,10,944,-71,-51,1
100,-414,4,920,-88,-47,-8
101,-420,5,902,-116,-14,-24
102,-415,8,915,-108,11,-36
103,-408,13,916,-79,9,-28
104,-402,10,944,-40,-2,-36
105,-411,16,930,-51,-20,-34
106,-410,8,938,-92,-30,-34
107,-404,20,920,-145,-26,-38
108,-415,24,929,-176,-12,-42
109,-400,19,918,-182,-8,-38
110,-410,21,904,-167,1,-32
111,-402,20,908,-120,23,-32
112,-407,14,929,-90,31,-12
113,-412,7,934,-88,19,-4
114,-411,4,943,-81,0,-6
115,-414,0,937,-86,-6,-8
116,-422,-5,942,-100,-14,-6
117,-428,4,943,-100,-24,-12
118,-409,-5,941,-94,-28,-16
119,-423,5,931,-81,-42,-42
120,-416,2,934,-71,-36,-53
121,-416,0,924,-69,-30,-45
122,-418,10,940,-55,-32,-65
123,-416,12,940,-75,-28,-75
124,-412,5,952,-114,-36,-79
125,-416,20,940,-141,-42,-75
126,-409,16,958,-141,-30,-73
127,-402,13,946,-120,-34,-45
128,-409,15,953,-90,-63,-38
129,-408,13,942,-86,-84,-40
130,-414,14,922,-96,-83,-32
131,-406,10,935,-94,-77,-18
132,-403,7,944,-100,-83,-20
133,-411,6,935,-102,-94,-32
134,-410,13,954,-110,-102,-42
135,-395,-3,958,-131,-102,-45
136,-406,11,949,-165,-116,-61
137,-391,2,935,-165,-114,-55
138,-414,11,940,-131,-104,-43
139,-403,8,942,-71,-98,-34
140,-402,-3,932,-36,-116,-34
141,-407,0,941,-47,-131,-34
142,-405,3,953,-92,-120,-59
143,-416,6,952,-133,-116,-79
144,-399,-8,948,-184,-108,-75
145,-402,-9,944,-200,-133,-86
146,-393,0,942,-194,-168,-92
147,-406,-6,931,-192,-194,-83
148,-402,-12,913,-163,-190,-83
149,-403,-7,909,-135,-163,-79
150,-401,3,929,-135,-122,-67
151,-393,0,923,-124,-100,-63
152,-397,3,930,-102,-112,-63
153,-397,6,929,-84,-127,-49
154,-394,-3,948,-67,-131,-36
155,-406,-11,954,-43,-139,-53
156,-402,-11,948,-65,-135,-71
157,-405,2,961,-125,-133,-84
158,-390,-3,939,-159,-124,-96
159,-404,0,955,-143,-135,-100
160,-395,-6,946,-114,-145,-92
161,-382,-11,963,-59,-161,-86
162,-390,-8,953,-57,-176,-100
163,-397,8,948,-88,-174,-98
164,-387,-6,978,-127,-170,-90
165,-395,0,967,-161,-204,-116
166,-390,-6,971,-206,-235,-129
167,-404,3,953,-211,-264,-122
168,-389,-8,940,-211,-252,-110
169,-395,-18,933,-206,-217,-102
170,-383,-12,939,-202,-190,-112
171,-385,-25,936,-213,-168,-112
172,-377,-28,936,-200,-178,-114
173,-377,-25,938,-165,-168,-118
174,-376,-26,938,-143,-167,-127
175,-374,-15,951,-131,-182,-153
176,-380,-19,963,-114,-206,-167
177,-372,5,967,-108,-235,-186
178,-386,-8,957,-112,-250,-153
179,-384,7,942,-112,-231,-127
180,-376,-10,935,-139,-188,-116
181,-365,-8,928,-188,-153,-96
182,-379,-13,918,-194,-114,-71
183,-378,-26,916,-168,-86,-79
184,-352,-34,902,-153,-67,-90
185,-367,-25,950,-178,-59,-92
186,-355,-32,946,-165,-47,-90
187,-361,-19,962,-163,-71,-86
188,-369,-23,955,-141,-96,-67
189,-359,-31,927,-79,-108,-45
190,-368,-23,943,-61,-112,-83
191,-359,-26,927,-47,-98,-57
192,-373,-35,911,-45,-69,-47
193,-365,-37,930,-43,-12,-49
194,-360,-47,938,-38,-8,-57
195,-356,-40,937,-69,-20,-83
196,-353,-48,959,-110,-43,-90
197,-361,-42,949,-157,-81,-94
198,-356,-46,941,-180,-116,-106
199,-368,-33,937,-155,-112,-108
200,-357,-41,921,-116,-77,-106
201,-368,-29,924,-88,-38,-83
202,-356,-40,928,-43,19,-73
203,-364,-39,940,-10,44,-71
204,-368,-31,955,15,46,-75
205,-363,-20,960,37,42,-73
206,-369,-34,967,52,3,-57
207,-368,-24,971,87,-28,-43
208,-360,-35,980,76,-51,-34
209,-355,-34,969,37,-49,-43
210,-366,-38,981,-16,-57,-53
211,-356,-42,961,-67,-79,-61
212,-372,-45,932,-106,-118,-98
213,-361,-42,920,-131,-114,-124
214,-370,-31,929,-108,-86,-135
215,-360,-21,916,-67,-71,-133
216,-372,-19,928,-2,-34,-124
217,-367,-17,925,56,1,-122
218,-361,-13,955,54,0,-114
219,-361,-10,958,25,-24,-98
220,-352,3,967,35,-24,-63
221,-361,13,984,76,-22,1
222,-363,6,966,121,1,72
223,-351,-7,992,134,21,103
224,-375,-17,992,97,3,87
225,-365,-20,970,35,13,85
226,-371,-32,966,-8,3,85
227,-364,-25,972,-16,1,72
228,-368,-37,973,-22,5,72
229,-386,-40,992,-16,-38,44
230,-383,-52,962,-43,-81,23
231,-387,-73,973,-77,-118,7
232,-382,-64,952,-102,-135,-34
233,-388,-71,945,-155,-147,-81
234,-381,-50,938,-143,-131,-108
235,-372,-55,950,-88,-120,-125
236,-359,-44,950,-42,-135,-143
237,-361,-42,943,-40,-149,-176
238,-366,-29,935,-67,-153,-190
239,-358,-8,944,-86,-127,-161
240,-349,-19,950,-81,-102,-129
241,-341,-6,951,-55,-102,-120
242,-352,-17,954,-28,-86,-114
243,-342,-4,967,-20,-73,-116
244,-339,-6,964,-34,-77,-96
245,-339,-9,974,-47,-104,-75
246,-342,-4,963,-55,-127,-79
247,-339,-3,953,-88,-149,-77
248,-342,-16,941,-122,-149,-67
249,-340,3,941,-137,-141,-83
250,-340,-1,924,-141,-120,-83
251,-339,0,924,-124,-83,-71
252,-340,4,936,-61,-86,-69
253,-346,5,936,-38,-94,-47
254,-350,-2,932,-28,-94,-14
255,-347,2,951,5,-73,0
256,-332,-6,941,23,-47,0
257,-343,-8,946,0,-22,21
258,-329,-11,949,-30,5,9
259,-329,-12,949,-57,29,-4
260,-329,4,966,-69,21,5
261,-333,-22,952,-83,-10,5
262,-331,-15,944,-102,-47,-12
263,-350,-15,942,-124,-57,-8
264,-337,-20,929,-108,-18,11
265,-343,-14,915,-61,21,31
266,-341,-27,922,-10,50,42
267,-343,-35,932,31,68,42
268,-343,-27,958,52,70,33
269,-345,-21,953,52,72,33
270,-364,-39,971,25,31,23
271,-349,-39,963,0,21,3
272,-343,-32,974,-59,-6,-22
273,-351,-28,958,-106,-36,-30
274,-340,-38,939,-151,-16,-53
275,-344,-32,940,-139,-12,-53
276,-350,-27,942,-73,-18,-36
277,-365,-35,942,1,29,-49
278,-349,-36,917,39,85,-49
279,-366,-21,946,48,85,-28
280,-345,-24,953,0,128,-42
281,-363,-30,960,-49,107,-49
282,-350,-25,968,-88,83,-59
283,-349,-12,967,-116,62,-59
284,-360,-13,975,-120,46,-45
285,-365,-17,948,-125,62,-49
286,-360,-4,943,-149,72,-30
287,-353,-7,934,-137,87,0
288,-355,-10,939,-79,105,-6
289,-342,-11,961,-40,80,0
290,-350,-16,953,-59,31,11
291,-349,-2,943,-83,15,0
292,-342,-5,947,-108,42,1
293,-337,-15,937,-125,62,46
294,-356,-18,965,-86,66,60
295,-359,-10,961,-55,74,70
296,-365,-16,962,-12,72,111
297,-351,-29,985,5,56,113
298,-367,-36,970,-6,9,87
299,-360,-47,982,-57,-10,72
300,-365,-49,960,-96,-16,44
301,-356,-41,938,-125,-30,31
302,-361,-37,938,-124,-36,21
303,-364,-37,949,-79,-22,17
304,-355,-37,955,-63,-8,23
305,-358,-43,935,-75,-6,21
306,-363,-43,943,-84,-6,11
307,-365,-47,947,-112,0,0
308,-369,-43,942,-145,-16,-10
309,-359,-46,942,-167,-24,-28
310,-351,-51,932,-167,-32,-40
311,-355,-38,944,-137,-14,-61
312,-358,-28,932,-102,13,-67
313,-360,-33,946,-83,29,-57
314,-353,-26,958,-73,37,-28
315,-337,-37,977,-61,41,-6
316,-351,-34,976,-32,27,0
317,-351,-48,980,-57,-16,7
318,-363,-48,974,-96,-59,-16
319,-363,-44,941,-143,-71,-49
320,-370,-45,925,-165,-43,-61
321,-356,-38,918,-145,-2,-71
322,-342,-30,913,-92,25,-65
323,-368,-24,921,-18,41,-55
324,-367,-20,942,44,46,-57
325,-357,-1,960,64,50,-47
326,-364,-10,972,31,44,-34
327,-366,-12,974,-8,25,-30
328,-357,-5,974,-59,-2,-24
329,-359,-17,977,-104,-12,0
330,-367,-24,972,-122,-6,0
331,-360,-33,975,-137,3,-6
332,-359,-26,962,-151,1,-6
333,-368,-27,973,-159,-2,9
334,-368,-19,959,-118,-10,21
335,-358,-35,965,-67,-32,42
336,-364,-51,947,-55,-42,42
337,-350,-50,943,-92,-32,23
338,-357,-54,952,-143,-38,13
339,-362,-43,936,-159,-20,0
340,-371,-51,930,-133,-2,-8
341,-372,-34,932,-94,9,-10
342,-360,-33,935,-69,37,-6
343,-352,-41,938,-53,64,0
344,-346,-42,943,-57,113,-16
345,-340,-37,953,-120,144,-12
346,-333,-37,985,-141,128,-26
347,-338,-26,966,-116,68,-51
348,-348,-12,974,-77,-2,-42
349,-342,-18,956,-38,-30,1
350,-337,-35,955,-14,-49,9
351,-349,-39,936,-10,-42,13
352,-360,-40,926,-6,-14,0
353,-352,-31,916,-18,23,-14
354,-376,-21,941,-14,48,-12
355,-382,-11,967,11,78,7
356,-373,-11,984,27,80,46
357,-386,-15,969,33,58,85
358,-389,-44,987,27,35,103
359,-382,-42,974,5,9,87
360,-386,-48,975,-63,-16,70
361,-389,-59,965,-108,-10,44
362,-394,-54,967,-127,-10,15
363,-376,-57,956,-118,-2,0
364,-386,-52,950,-77,-30,-8
365,-373,-46,960,-36,-40,-34
366,-370,-41,951,-20,-53,-42
367,-372,-23,952,-22,-73,-40
368,-369,-29,955,-30,-83,-32
369,-368,-29,948,-26,-81,-38
370,-350,-21,935,-28,-77,-36
371,-360,-18,934,-36,-53,-30
372,-359,-22,930,-71,-30,-22
373,-349,-18,942,-90,-18,5
374,-356,-30,946,-51,-24,11
375,-358,-40,938,5,-38,21
376,-363,-38,953,35,-47,23
377,-366,-45,959,-2,-59,-6
378,-353,-53,950,-57,-57,-38
379,-344,-51,941,-90,-42,-49
380,-354,-38,943,-135,-32,-69
381,-350,-35,948,-112,-16,-88
382,-346,-25,945,-69,-2,-71
383,-350,-32,947,-24,3,-47
384,-336,-30,952,3,-22,-47
385,-352,-26,948,19,-26,-43
386,-347,-24,952,9,0,-30
387,-349,-26,963,-57,13,-36
388,-348,-21,943,-141,1,-43
389,-374,-9,946,-200,-24,-47
390,-348,-11,924,-170,-18,-28
391,-379,-8,931,-114,-47,29
392,-359,-21,925,7,-6,66
393,-367,-25,946,93,50,76
394,-366,-42,952,95,99,80
395,-358,-42,989,46,121,56
396,-364,-27,995,-6,97,39
397,-363,-24,996,-28,50,23
398,-358,-38,980,-40,-20,7
399,-360,-30,979,-40,-73,5
400,-357,-29,962,-36,-98,-6
401,-337,-34,956,-24,-106,3
402,-327,-30,935,-6,-81,0
403,-342,-21,937,21,-67,-14
404,-332,-20,947,27,-49,-20
405,-343,-20,923,-8,-61,-16
406,-337,-16,923,-14,-65,-10
407,-338,-25,923,-2,-59,-6
408,-326,-12,923,5,-47,-8
409,-325,-28,919,-26,-38,-14
410,-332,-14,920,-65,-43,-36
411,-336,-12,918,-98,-59,-43
412,-349,-3,901,-96,-53,-24
413,-349,-7,902,-67,-30,-12
414,-353,-13,911,-51,3,0
415,-350,-37,911,-83,21,5
416,-343,-33,903,-104,41,-28
417,-354,-21,906,-143,58,-42
418,-357,-26,934,-159,89,-32
419,-359,-13,945,-135,93,-24
420,-365,-13,945,-114,76,7
421,-370,-26,937,-86,83,37
422,-366,-34,931,-47,85,15
423,-374,-40,951,-42,93,3
424,-381,-45,966,-106,117,5
425,-371,-46,974,-161,144,0
426,-383,-53,982,-190,119,-12
427,-389,-52,989,-143,48,-63
428,-379,-40,988,-88,-42,-124
429,-394,-41,991,-59,-92,-143
430,-398,-38,982,-77,-73,-122
431,-392,-45,977,-168,-55,-100
432,-401,-29,969,-233,13,-122
433,-376,-25,968,-260,70,-114
434,-380,-9,970,-211,80,-63
435,-389,-32,969,-106,46,-20
436,-386,-58,972,-18,-18,-38
437,-391,-50,976,-43,-96,-69
438,-379,-54,958,-172,-112,-84
439,-383,-46,940,-268,-83,-131
440,-353,-49,929,-307,-36,-147
441,-366,-50,927,-297,-14,-141
442,-364,-26,901,-237,29,-124
443,-356,-39,915,-170,56,-100
444,-356,-43,928,-139,62,-98
445,-361,-34,936,-165,37,-120
446,-347,-31,956,-161,19,-116
447,-354,-27,938,-155,-8,-92
448,-362,-29,950,-163,-2,-73
449,-349,-41,931,-172,11,-49
450,-348,-45,944,-172,27,-65
451,-359,-49,949,-170,44,-67
452,-363,-51,969,-145,68,-38
453,-372,-55,993,-86,80,-36
454,-363,-64,983,-71,66,-22
455,-360,-65,998,-71,19,-28
456,-365,-52,1001,-86,-36,-36
457,-378,-66,975,-79,-65,-26
458,-374,-75,980,-84,-88,-38
459,-378,-63,969,-77,-100,-63
460,-384,-67,969,-90,-110,-88
461,-387,-57,982,-73,-104,-124
462,-385,-52,977,-55,-84,-114
463,-374,-55,977,-40,-73,-110
464,-370,-38,977,-22,-67,-100
465,-373,-33,990,9,-51,-69
466,-387,-35,1015,48,-55,-40
467,-383,-41,1000,58,-106,-22
468,-389,-32,1029,41,-149,-20
469,-387,-43,1043,-2,-161,-47
470,-382,-40,1032,-92,-151,-69
471,-372,-45,1018,-227,-172,-63
472,-366,-46,1025,-329,-208,-83
473,-375,-47,1007,-333,-278,-94
474,-374,-51,987,-235,-311,-94
475,-362,-50,959,-198,-325,-40
476,-353,-54,947,-153,-350,-36
477,-341,-48,950,-108,-301,-43
478,-349,-55,940,-92,-286,-24
479,-349,-63,930,-57,-278,-30
480,-337,-60,920,-30,-264,-45
481,-343,-47,923,-42,-260,-40
482,-334,-46,916,-63,-264,-40
483,-334,-44,906,-108,-286,-53
484,-336,-54,874,-137,-258,-51
485,-329,-42,851,-122,-188,-47
486,-320,-35,867,-112,-122,-42
487,-307,-34,884,-92,-65,-34
488,-303,-27,899,-75,-36,-34
489,-308,-34,906,-84,-34,-24
490,-306,-34,922,-98,-45,-10
491,-302,-46,930,-125,-63,0
492,-296,-54,943,-172,-65,3
493,-310,-63,944,-235,-98,-28
494,-321,-64,921,-288,-110,-63
495,-327,-76,930,-338,-98,-73
496,-332,-59,913,-358,-71,-92
497,-313,-65,900,-366,-18,-83
498,-324,-60,924,-303,-2,-83
499,-327,-54,939,-223,15,-79
500,-315,-72,938,-209,25,-43
501,-314,-52,945,-204,19,-69
502,-316,-49,950,-217,-12,-65
503,-314,-47,962,-219,-28,-47
504,-313,-46,946,-204,-67,-16
505,-317,-48,943,-143,-65,7
506,-335,-48,945,-45,-10,58
507,-326,-76,936,33,93,128
508,-332,-79,958,56,173,138
509,-334,-78,987,29,210,125
510,-341,-76,1014,-16,212,136
511,-353,-69,1032,-20,169,130
512,-355,-81,1025,-40,107,146
513,-347,-102,1012,-79,-2,158
514,-367,-111,999,-120,-84,128
515,-369,-113,971,-167,-116,80
516,-359,-119,943,-202,-94,29
517,-365,-114,957,-211,-40,-32
518,-363,-104,943,-186,5,-63
519,-344,-93,960,-129,41,-65
520,-351,-87,951,-63,52,-59
521,-329,-85,977,0,31,-67
522,-344,-84,976,15,0,-59
523,-331,-77,991,27,-34,-61
524,-328,-69,992,7,-88,-79
525,-332,-72,974,-63,-133,-55
526,-335,-61,967,-98,-147,-65
527,-327,-64,940,-104,-110,-69
528,-322,-56,925,-112,-57,-49
529,-328,-66,925,-96,-30,-22
530,-334,-75,928,-59,3,-18
531,-322,-64,927,-30,7,-16
532,-323,-57,936,-18,-6,-14
533,-321,-60,953,7,9,7
534,-315,-60,966,39,21,31
535,-331,-58,978,35,-16,52
536,-335,-63,981,41,-16,78
537,-331,-64,959,44,5,97
538,-338,-89,976,0,-10,97
539,-343,-89,975,-57,-18,54
540,-350,-89,944,-131,-18,31
541,-349,-94,959,-135,-10,21
542,-343,-94,947,-75,-8,3
543,-340,-94,947,-34,-6,-10
544,-326,-84,951,-57,-10,-34
545,-321,-82,958,-96,-18,-59
546,-331,-55,962,-100,-26,-79
547,-322,-66,961,-86,-16,-67
548,-323,-54,966,-88,-36,-67
549,-329,-50,960,-110,-71,-63
550,-329,-52,951,-104,-57,-40
551,-329,-48,945,-88,-51,-40
552,-323,-51,945,-83,-42,-28
553,-327,-50,945,-55,-12,0
554,-323,-34,946,-4,27,39
555,-335,-32,956,27,44,87
556,-330,-61,958,46,31,113
557,-331,-77,961,25,0,111
558,-351,-89,949,-30,-36,78
559,-348,-79,947,-86,-42,50
560,-350,-75,960,-122,-20,50
561,-339,-82,968,-112,7,35
562,-347,-89,972,-79,13,11
563,-339,-73,946,-67,23,0
564,-331,-76,954,-53,42,-8
565,-323,-70,984,-28,37,3
566,-326,-63,983,-18,-10,-4
567,-325,-69,981,-14,-51,0
568,-330,-73,972,-20,-55,27
569,-335,-60,964,-32,-51,23
570,-340,-73,959,-51,-36,29
571,-339,-81,969,-59,-14,27
572,-338,-65,950,-43,-8,1
573,-348,-66,955,-32,5,-8
574,-335,-64,953,-32,35,3
575,-335,-66,982,-42,58,9
576,-337,-73,977,-47,21,1
577,-337,-75,988,-75,-43,0
578,-326,-73,965,-96,-100,-14
579,-333,-72,970,-114,-90,-24
580,-331,-66,954,-122,-73,-24
581,-331,-68,961,-104,-43,-22
582,-327,-70,949,-79,-18,-14
583,-335,-63,950,-47,-2,-6
584,-330,-67,945,-30,13,5
585,-330,-85,942,-12,31,17
586,-325,-86,970,1,48,-4
587,-333,-82,1001,-20,7,-32
588,-349,-69,990,-47,-59,-63
589,-347,-65,971,-59,-94,-53
590,-335,-61,964,-38,-83,-42
591,-328,-72,964,-2,-69,-43
592,-334,-70,968,-4,-57,-40
593,-339,-63,956,-26,-61,-45
594,-350,-60,955,-32,-47,-26
595,-335,-70,978,-24,-61,-26
596,-341,-58,977,-55,-100,-55
597,-352,-67,947,-129,-102,-45
598,-333,-71,942,-151,-75,-42
599,-323,-73,950,-137,-59,-57
600,-325,-70,941,-108,-51,-38
601,-328,-73,964,-79,-30,-24
602,-327,-78,974,-63,-12,-10
603,-323,-86,983,-71,-26,-16
604,-341,-65,983,-90,-83,-40
605,-342,-70,976,-102,-122,-34
606,-322,-80,949,-114,-129,-28
607,-336,-76,947,-116,-118,-45
608,-327,-69,952,-116,-63,-51
609,-328,-82,961,-129,-24,-47
610,-329,-66,959,-131,-22,-57
611,-330,-64,966,-131,-30,-51
612,-319,-64,972,-135,-51,-73
613,-323,-81,973,-204,-104,-88
614,-319,-75,944,-274,-157,-110
615,-303,-74,934,-323,-143,-139
616,-302,-64,924,-313,-108,-139
617,-314,-58,935,-227,-51,-114
618,-309,-80,937,-125,-8,-77
619,-331,-74,956,-32,-2,-63
620,-323,-81,985,-12,3,-49
621,-321,-79,982,-67,-38,-63
622,-318,-79,984,-163,-84,-67
623,-325,-90,954,-243,-90,-77
624,-320,-86,925,-266,-59,-79
625,-321,-80,919,-229,-6,-71
626,-315,-84,926,-153,35,-55
627,-321,-92,960,-86,62,-38
628,-302,-99,974,-28,64,-36
629,-303,-82,982,-42,41,-61
630,-314,-77,992,-81,-8,-45
631,-320,-85,990,-69,-38,-24
632,-314,-93,980,-71,-63,-12
633,-316,-101,958,-129,-61,-47
634,-316,-106,973,-202,-28,-90
635,-323,-88,943,-237,-40,-86
636,-322,-90,944,-182,0,-67
637,-328,-92,962,-67,52,-43
638,-325,-94,983,-22,62,-43
639,-325,-92,993,-2,35,-42
640,-340,-91,997,-28,-2,-43
641,-335,-105,1000,-51,-36,-55
642,-339,-87,997,-73,-69,-71
643,-337,-95,963,-90,-77,-81
644,-339,-93,959,-75,-65,-90
645,-346,-81,978,-42,-40,-98
646,-340,-72,975,0,-10,-92
647,-346,-86,987,33,-20,-92
648,-340,-83,970,66,-16,-98
649,-315,-86,987,54,5,-135
650,-319,-76,987,-36,-67,-141
651,-326,-73,972,-112,-120,-141
652,-321,-83,949,-145,-110,-170
653,-318,-74,939,-145,-122,-180
654,-330,-71,923,-92,-129,-174
655,-301,-79,918,-16,-36,-159
656,-312,-79,926,70,39,-149
657,-307,-61,914,72,109,-161
658,-325,-79,947,87,113,-120
659,-298,-74,950,142,136,-116
660,-306,-79,947,103,134,-100
661,-300,-76,925,60,173,-77
662,-306,-77,926,33,128,-92
663,-315,-86,905,-34,97,-49
664,-310,-92,911,-36,119,-43
665,-315,-104,903,-20,158,-59
666,-325,-113,906,0,240,-81
667,-324,-103,924,1,361,-88
668,-326,-109,968,33,433,-77
669,-329,-105,987,52,425,-69
670,-323,-109,1009,42,347,-94
671,-321,-103,1017,-4,230,-112
672,-329,-99,1002,-83,123,-124
673,-336,-104,980,-112,54,-102
674,-346,-105,973,-143,41,-108
675,-343,-105,957,-170,62,-106
676,-339,-109,944,-165,93,-90
677,-343,-101,947,-92,105,-75
678,-341,-109,962,-36,105,-86
679,-341,-106,970,-20,74,-145
680,-352,-98,966,-116,42,-163
681,-350,-103,947,-190,9,-153
682,-346,-96,945,-182,11,-168
683,-339,-100,935,-151,27,-159
684,-330,-98,938,-75,41,-131
685,-344,-90,927,54,50,-120
686,-341,-91,932,150,87,-108
687,-340,-111,948,117,103,-106
688,-349,-101,936,42,125,-151
689,-352,-94,931,-69,128,-194
690,-337,-86,949,-159,123,-213
691,-336,-84,952,-186,68,-233
692,-329,-79,940,-194,19,-241
693,-319,-82,932,-233,-2,-217
694,-332,-68,920,-159,9,-204
695,-324,-62,929,-61,58,-163
696,-330,-67,921,37,87,-120
697,-338,-72,920,54,109,-108
698,-337,-69,923,-34,134,-106
699,-333,-73,944,-122,166,-88
700,-340,-54,946,-178,162,-57
701,-338,-62,959,-204,123,-22
702,-341,-62,945,-196,83,-8
703,-346,-71,949,-188,76,15
704,-349,-79,940,-168,113,37
705,-361,-94,943,-149,162,64
706,-353,-96,967,-116,205,54
707,-358,-94,992,-110,205,52
708,-360,-91,990,-112,187,39
709,-356,-98,995,-143,183,37
710,-356,-91,999,-143,126,21
711,-355,-96,986,-110,50,23
712,-352,-87,983,-26,11,56
713,-360,-101,964,27,31,64
714,-375,-102,970,25,64,64
715,-364,-108,978,-28,105,52
716,-366,-103,990,-100,119,42
717,-368,-105,989,-112,105,21
718,-364,-102,992,-104,66,21
719,-373,-96,991,-100,41,21
720,-367,-98,984,-129,7,42
721,-372,-100,985,-120,-30,48
722,-366,-103,965,-79,-28,29
723,-373,-115,960,-49,-26,33
724,-361,-97,973,-73,-43,33
725,-365,-98,966,-94,-84,39
726,-358,-108,964,-118,-116,50
727,-380,-118,944,-118,-153,54
728,-364,-114,926,-96,-137,-10
729,-369,-99,921,-131,-120,-26
730,-361,-111,919,-145,-61,-40
731,-349,-87,914,-90,0,-40
732,-358,-103,938,-4,35,-22
733,-359,-97,958,80,56,7
734,-348,-98,975,107,39,27
735,-360,-105,989,93,-43,21
736,-351,-103,962,19,-120,5
737,-359,-105,956,-69,-159,-26
738,-351,-99,937,-178,-129,-38
739,-358,-94,927,-198,-81,-40
740,-347,-83,933,-155,-47,-18
741,-358,-100,950,-67,-24,15
742,-365,-98,940,-4,-34,29
743,-351,-106,934,-20,-59,29
744,-357,-110,950,-63,-81,15
745,-364,-89,926,-65,-92,25
746,-355,-99,930,-22,-100,72
747,-361,-94,935,25,-94,115
748,-343,-109,931,0,-77,164
749,-341,-122,930,-26,-20,103
750,-346,-118,926,-61,46,11
751,-345,-114,934,-120,76,-38
752,-350,-93,927,-149,105,-65
753,-349,-92,951,-155,105,-67
754,-338,-95,950,-168,83,-71
755,-342,-89,954,-196,35,-77
756,-339,-81,945,-168,-20,-42
757,-347,-91,946,-79,-45,5
758,-350,-108,937,-10,-65,39
759,-353,-121,936,13,-32,33
760,-357,-124,942,11,39,0
761,-356,-117,954,-16,105,-16
762,-355,-114,958,-59,144,-47
763,-366,-104,963,-92,123,-90
764,-346,-94,979,-147,89,-96
765,-361,-81,967,-172,41,-86
766,-352,-87,962,-157,-12,-61
767,-348,-108,958,-96,-71,-42
768,-361,-96,930,-47,-100,-40
769,-352,-102,932,-4,-42,-45
770,-342,-98,943,21,23,-26
771,-347,-98,957,21,66,-18
772,-345,-86,941,9,87,-40
773,-345,-81,964,-6,70,-32
774,-347,-84,972,-20,62,-14
775,-357,-81,973,-28,13,0
776,-355,-91,956,-63,-22,25
777,-355,-103,952,-84,-32,13
778,-360,-101,941,-114,-63,0
779,-354,-107,926,-161,-59,-12
780,-365,-110,919,-168,-26,0
781,-363,-105,917,-98,41,3
782,-360,-110,942,-32,85,5
783,-360,-111,961,5,107,9
784,-366,-118,955,11,70,1
785,-348,-121,974,3,29,-12
786,-353,-115,969,-32,-32,-38
787,-360,-114,967,-59,-67,-40
788,-361,-101,954,-96,-110,-57
789,-362,-102,949,-122,-131,-57
790,-361,-102,941,-131,-90,-71
791,-355,-105,942,-133,-14,-61
792,-344,-101,935,-94,50,-77
793,-363,-112,963,-63,97,-67
794,-367,-112,991,-51,126,-47
795,-372,-113,1014,-22,148,-45
796,-375,-130,1065,-26,166,-83
797,-392,-114,1140,-116,175,-153
798,-404,-98,1206,-174,173,-178
799,-392,-92,1265,-116,148,-168
800,-388,-106,1327,17,93,-155
801,-424,-72,1412,244,37,-127
802,-430,-86,1527,474,-32,-34
803,-464,-76,1622,695,-120,56
804,-504,-44,1724,771,-235,128
805,-484,-53,1820,794,-364,197
806,-546,-22,1900,839,-622,228
807,-595,-11,1961,937,-917,310
808,-653,-12,2032,998,-1213,429
809,-703,-21,2048,1031,-1602,490
810,-734,-34,2038,919,-2098,556
811,-772,-41,1984,685,-2581,605
812,-771,-72,1901,494,-3024,652
813,-780,-66,1837,419,-3452,685
814,-793,-75,1742,406,-3821,771
815,-794,-101,1654,355,-4104,820
816,-763,-117,1551,238,-4370,824
817,-712,-149,1446,130,-4612,814
818,-691,-166,1357,52,-4844,718
819,-638,-157,1262,-49,-5036,628
820,-617,-127,1197,-106,-5272,550
821,-557,-158,1134,62,-5583,525
822,-538,-152,1033,259,-5864,468
823,-495,-164,924,208,-6102,425
824,-440,-171,758,-53,-6272,353
825,-380,-181,587,-305,-6286,193
826,-316,-156,429,-407,-6059,-32
827,-243,-120,300,-317,-5704,-241
828,-177,-80,200,-137,-5338,-442
829,-60,-2,32,-16,-5000,-579
830,52,72,-101,78,-4649,-553
831,170,141,-221,95,-4245,-538
832,255,243,-323,179,-3772,-510
833,354,285,-412,560,-3268,-375
834,403,326,-467,1019,-2762,-217
835,464,326,-487,1257,-2219,11
836,467,310,-469,1306,-1651,128
837,483,295,-412,1060,-1047,171
838,449,273,-348,662,-542,167
839,425,254,-305,132,-151,197
840,397,214,-288,-452,166,199
841,376,166,-301,-1065,416,142
842,352,181,-277,-1610,658,60
843,385,171,-297,-1688,878,37
844,408,190,-297,-1518,1125,29
845,399,220,-294,-1364,1400,95
846,391,216,-283,-1301,1736,265
847,356,208,-243,-1184,2156,460
848,299,169,-222,-979,2578,712
849,273,98,-136,-815,3052,882
850,219,52,-31,-725,3458,921
851,111,9,46,-653,3748,851
852,5,-20,173,-696,3998,806
853,-90,-42,249,-760,4191,806
854,-169,-101,334,-905,4267,791
855,-114,-161,374,-1325,4302,710
856,-106,-161,398,-1868,4359,642
857,-177,-156,408,-2114,4351,583
858,-238,-131,448,-1922,4542,576
859,-300,-128,489,-1331,4830,699
860,-324,-196,595,-741,5058,839
861,-318,-253,706,-807,5347,890
862,-360,-297,836,-1206,5511,751
863,-408,-275,1005,-1549,5615,628
864,-511,-276,1193,-1547,5701,611
865,-610,-246,1427,-1252,5687,726
866,-680,-264,1701,-762,5789,923
867,-668,-270,1997,-417,5796,1281
868,-755,-311,2048,-286,5458,1730
869,-785,-455,2048,-356,4886,1955
870,-824,-535,2048,-538,4025,1851
871,-934,-587,2048,-860,3037,1515
872,-934,-675,2048,-1231,2238,1273
873,-987,-663,2048,-1555,1664,1054
874,-948,-653,2048,-1749,1205,861
875,-913,-655,2048,-1612,738,685
876,-885,-603,2048,-1182,255,525
877,-879,-577,2048,-735,-184,478
878,-872,-543,2048,-307,-586,533
879,-903,-504,2048,33,-1069,621
880,-879,-494,2048,273,-1553,671
881,-880,-507,2048,351,-2102,638
882,-876,-504,2048,230,-2717,550
883,-852,-462,2048,136,-3288,439
884,-855,-437,2048,187,-3795,414
885,-832,-424,2048,427,-4217,349
886,-816,-369,1968,677,-4553,271
887,-815,-331,1875,894,-4862,250
888,-782,-320,1793,916,-5122,279
889,-736,-285,1624,767,-5473,347
890,-724,-275,1465,712,-5799,390
891,-715,-264,1350,810,-6002,386
892,-689,-229,1226,892,-6122,392
893,-637,-191,1080,746,-6245,482
894,-596,-154,923,603,-6278,500
895,-535,-144,760,595,-6225,511
896,-431,-149,573,626,-6092,582
897,-359,-124,428,644,-5915,599
898,-292,-100,326,679,-5682,542
899,-160,-84,242,722,-5379,537
900,-117,-53,209,886,-5096,529
901,-100,-49,152,1152,-4950,501
902,-8,-25,104,1212,-4760,537
903,58,3,70,1234,-4668,496
904,109,39,3,1195,-4667,386
905,174,66,-81,1125,-4629,378
906,223,70,-192,1121,-4469,429
907,278,63,-272,1250,-4182,498
908,354,56,-328,1384,-3750,554
909,392,61,-355,1472,-3340,533
910,447,54,-371,1416,-2973,480
911,463,97,-398,1300,-2633,408
912,494,142,-416,1158,-2188,392
913,490,157,-439,1082,-1786,439
914,519,172,-455,962,-1352,478
915,521,174,-463,861,-844,519
916,512,169,-466,818,-348,582
917,532,181,-455,722,171,625
918,508,146,-456,503,646,666
919,476,129,-427,193,1126,699
920,439,102,-387,-221,1656,697
921,400,50,-349,-668,2111,691
922,356,39,-337,-1043,2505,671
923,297,-7,-293,-1172,2882,615
924,274,-13,-234,-1168,3316,664
925,250,-19,-156,-856,3720,710
926,199,-68,-65,-352,4017,794
927,125,-109,3,33,4214,824
928,17,-99,142,134,4373,710
929,-75,-106,239,-6,4601,585
930,-106,-81,328,-338,4763,507
931,-143,-64,426,-602,4925,593
932,-194,-117,481,-575,5025,787
933,-247,-219,536,-366,5103,871
934,-352,-259,549,-297,5230,806
935,-393,-293,627,-514,5476,683
936,-432,-198,747,-653,5853,550
937,-527,-131,893,-391,6287,500
938,-547,-140,1082,11,6687,605
939,-506,-173,1268,371,6968,734
940,-529,-210,1457,386,7099,792
941,-511,-193,1693,177,6900,824
942,-580,-163,1866,439,6414,863
943,-679,-194,2024,1128,5767,871
944,-759,-191,2048,1460,5199,765
945,-798,-162,2048,1269,4773,544
946,-782,-159,2048,728,4343,455
947,-694,-173,2048,0,3763,550
948,-647,-175,2048,-672,3035,589
949,-685,-162,2048,-979,2203,503
950,-685,-152,2048,-874,1576,482
951,-687,-141,2000,-616,1076,515
952,-705,-154,1868,-350,738,544
953,-670,-206,1756,-225,599,519
954,-619,-241,1657,-352,562,429
955,-581,-240,1586,-622,441,271
956,-552,-204,1497,-682,205,136
957,-515,-187,1425,-547,-90,95
958,-471,-167,1353,-272,-319,130
959,-470,-180,1303,46,-499,142
960,-450,-196,1209,291,-612,138
961,-450,-198,1133,376,-565,52
962,-436,-178,1103,265,-370,-43
963,-386,-160,1106,-16,-196,-94
964,-349,-139,1093,-190,-170,-151
965,-335,-121,1059,-237,-256,-196
966,-315,-108,1078,-178,-368,-252
967,-300,-71,1050,-120,-534,-299
968,-290,-56,1019,-116,-678,-297
969,-293,-56,963,-167,-764,-266
970,-278,-69,922,-241,-754,-272
971,-261,-47,889,-327,-624,-307
972,-270,-24,904,-387,-459,-297
973,-266,-24,888,-387,-321,-239
974,-259,-24,888,-348,-229,-219
975,-269,-3,925,-356,-176,-209
976,-266,20,954,-329,-167,-151
977,-264,10,949,-196,-237,-22
978,-280,12,946,23,-313,125
979,-287,-31,927,218,-356,289
980,-308,-87,900,191,-329,375
981,-318,-111,871,37,-182,292
982,-308,-142,859,-239,37,134
983,-298,-111,901,-483,238,-18
984,-303,-85,927,-600,312,-112
985,-302,-49,940,-432,308,-122
986,-306,-48,989,-79,195,-26
987,-308,-67,999,201,46,95
988,-319,-92,987,248,-84,113
989,-300,-82,979,52,-110,85
990,-333,-87,955,-170,-114,56
991,-317,-99,928,-327,-14,82
992,-319,-90,913,-360,78,46
993,-321,-87,909,-342,197,-8
994,-312,-108,935,-350,283,-26
995,-316,-111,950,-348,277,-100
996,-306,-104,950,-397,216,-180
997,-324,-94,943,-481,126,-229
998,-283,-113,943,-500,83,-249
999,-326,-104,960,-475,9,-266
1000,-317,-123,955,-450,-26,-194
1001,-304,-159,940,-385,-22,-141
1002,-313,-196,922,-348,1,-145
1003,-330,-241,914,-342,83,-190
1004,-318,-291,924,-430,187,-223
1005,-335,-304,951,-477,212,-315
1006,-333,-289,988,-391,205,-456
1007,-322,-272,987,-229,216,-536
1008,-317,-272,1025,-73,123,-567
1009,-297,-268,1011,5,29,-573
1010,-303,-260,1008,78,-83,-588
1011,-303,-289,971,68,-131,-577
1012,-301,-302,924,42,-125,-616
1013,-319,-288,924,19,-42,-680
1014,-310,-287,924,23,87,-733
1015,-314,-263,946,76,189,-774
1016,-320,-228,985,177,220,-784
1017,-318,-224,1012,240,228,-741
1018,-302,-213,1031,283,158,-750
1019,-312,-214,1031,271,13,-768
1020,-316,-209,1010,216,-100,-772
1021,-330,-200,985,205,-157,-815
1022,-336,-197,972,148,-133,-883
1023,-336,-180,963,64,-59,-940
1024,-326,-150,958,48,25,-999
1025,-314,-129,968,121,99,-969
1026,-315,-130,988,232,80,-944
1027,-317,-107,982,318,50,-932
1028,-325,-86,1004,345,-32,-887
1029,-320,-77,997,373,-118,-844
1030,-322,-77,993,398,-219,-821
1031,-326,-91,945,341,-282,-795
1032,-341,-108,932,259,-280,-786
1033,-339,-105,921,156,-174,-809
1034,-337,-104,931,123,-47,-883
1035,-327,-95,945,64,42,-930
1036,-323,-60,969,-12,78,-985
1037,-309,-36,990,-84,41,-973
1038,-301,-24,985,-100,-16,-913
1039,-291,-23,990,-49,-92,-831
1040,-307,-18,998,0,-153,-776
1041,-313,-32,979,-16,-200,-717
1042,-314,-50,965,-65,-190,-676
1043,-318,-62,950,-104,-143,-678
1044,-324,-79,929,-75,-42,-684
1045,-313,-76,932,-2,56,-694
1046,-306,-62,948,37,128,-672
1047,-295,-59,983,54,138,-667
1048,-301,-46,1011,64,72,-672
1049,-299,-53,1017,-10,-45,-641
1050,-302,-76,1012,-90,-163,-620
1051,-310,-86,987,-157,-252,-625
1052,-292,-83,945,-167,-254,-616
1053,-300,-101,921,-161,-223,-588
1054,-302,-92,918,-79,-108,-590
1055,-291,-105,927,-24,-12,-551
1056,-282,-106,952,-20,7,-518
1057,-290,-89,969,-38,-10,-510
1058,-272,-98,984,7,1,-481
1059,-276,-106,986,37,-57,-446
1060,-271,-104,979,23,-124,-446
1061,-268,-88,963,-36,-182,-438
1062,-273,-106,952,-43,-200,-405
1063,-263,-101,948,-20,-155,-333
1064,-274,-131,931,42,-79,-303
1065,-299,-138,914,78,5,-323
1066,-301,-146,950,35,121,-360
1067,-301,-142,978,-83,183,-389
1068,-285,-131,984,-120,187,-422
1069,-275,-111,1023,-131,123,-420
1070,-275,-128,1006,-129,7,-391
1071,-288,-122,989,-112,-127,-372
1072,-293,-151,954,-110,-188,-372
1073,-285,-148,929,-116,-180,-354
1074,-302,-157,933,-108,-116,-370
1075,-299,-141,922,-10,-12,-395
1076,-300,-148,935,103,87,-389
1077,-284,-142,962,128,146,-383
1078,-279,-143,966,72,140,-389
1079,-294,-129,983,31,89,-368
1080,-271,-147,976,58,21,-323
1081,-275,-153,969,101,-59,-329
1082,-289,-140,957,138,-71,-350
1083,-287,-140,962,177,-45,-350
1084,-285,-134,957,273,-22,-364
1085,-287,-135,953,300,1,-379
1086,-276,-133,971,253,42,-399
1087,-272,-121,982,158,72,-413
1088,-275,-98,977,80,52,-375
1089,-264,-119,977,74,9,-327
1090,-286,-111,973,93,-47,-286
1091,-297,-131,993,138,-83,-247
1092,-291,-140,991,244,-100,-258
1093,-301,-144,995,312,-133,-288
1094,-284,-148,977,308,-114,-325
1095,-271,-157,969,238,-110,-393
1096,-274,-123,955,171,-104,-440
1097,-267,-103,959,154,-94,-430
1098,-263,-100,955,208,-108,-403
1099,-272,-95,957,259,-83,-375
1100,-273,-89,963,195,-4,-364
1101,-263,-90,981,1,50,-362
1102,-257,-95,982,-180,29,-356
1103,-267,-89,977,-247,-18,-321
1104,-263,-118,959,-200,-45,-286
1105,-262,-116,947,-153,-67,-282
1106,-276,-129,924,-137,-45,-282
1107,-284,-115,933,-106,33,-286
1108,-257,-129,942,-57,130,-268
1109,-273,-122,961,-67,152,-272
1110,-263,-110,985,-172,169,-260
1111,-247,-128,966,-313,148,-247
1112,-270,-132,970,-375,97,-247
1113,-266,-137,953,-379,76,-241
1114,-257,-139,970,-385,50,-258
1115,-282,-142,959,-407,0,-303
1116,-281,-130,953,-342,-12,-311
1117,-272,-161,945,-264,27,-272
1118,-265,-144,939,-124,83,-284
1119,-271,-160,953,-84,83,-284
1120,-275,-151,968,-79,74,-268
1121,-253,-162,966,-118,56,-274
1122,-273,-147,952,-125,-2,-292
1123,-270,-150,982,-145,-32,-270
1124,-276,-159,973,-167,-51,-266
1125,-274,-157,934,-165,-55,-274
1126,-270,-156,922,-124,35,-280
1127,-266,-172,929,-75,111,-295
1128,-280,-162,943,-18,160,-315
1129,-276,-170,959,1,193,-331
1130,-271,-159,960,3,210,-321
1131,-256,-157,997,1,177,-313
1132,-264,-148,997,-20,89,-321
1133,-270,-148,995,-67,7,-299
1134,-272,-157,973,-92,-20,-297
1135,-275,-152,973,-84,-6,-290
1136,-275,-178,954,-38,11,-278
1137,-284,-193,942,-4,23,-284
1138,-281,-196,924,44,78,-331
1139,-272,-180,943,66,160,-370
1140,-271,-175,979,15,207,-368
1141,-261,-156,978,-51,197,-372
1142,-251,-130,986,-34,138,-340
1143,-259,-160,971,17,74,-280
1144,-266,-178,963,78,44,-249
1145,-273,-193,961,107,54,-250
1146,-278,-194,982,70,82,-272
1147,-282,-204,985,64,99,-321
1148,-288,-204,984,76,111,-374
1149,-290,-205,977,25,117,-422
1150,-293,-211,971,-73,109,-448
1151,-274,-205,967,-133,107,-487
1152,-279,-182,966,-77,97,-471
1153,-285,-195,961,128,78,-434
1154,-283,-198,975,304,74,-397
1155,-292,-198,961,318,85,-377
1156,-300,-198,977,242,93,-415
1157,-290,-197,983,140,117,-452
1158,-295,-184,993,31,142,-500
1159,-301,-187,988,-83,152,-502
1160,-282,-204,998,-145,158,-512
1161,-295,-200,1013,-135,111,-526
1162,-291,-189,1004,-26,46,-528
1163,-285,-200,985,126,-4,-528
1164,-316,-209,985,248,-34,-532
1165,-285,-211,967,228,35,-522
1166,-298,-200,972,154,70,-577
1167,-293,-185,958,35,89,-608
1168,-302,-186,966,-36,93,-643
1169,-284,-170,959,-88,97,-606
1170,-283,-193,957,-32,62,-557
1171,-315,-194,940,78,-18,-561
1172,-313,-191,948,218,-53,-594
1173,-295,-175,924,277,-12,-631
1174,-291,-141,933,250,37,-668
1175,-298,-119,928,214,115,-672
1176,-275,-95,936,164,214,-649
1177,-268,-75,956,146,250,-594
1178,-276,-72,961,128,220,-506
1179,-266,-81,959,158,156,-418
1180,-263,-93,940,218,64,-358
1181,-274,-114,926,283,-6,-336
1182,-290,-111,928,345,-6,-297
1183,-298,-120,941,386,76,-280
1184,-300,-149,931,310,171,-290
1185,-307,-168,946,185,220,-344
1186,-315,-156,946,107,263,-393
1187,-310,-138,977,171,283,-389
1188,-316,-134,1001,322,250,-375
1189,-308,-150,999,382,158,-377
1190,-303,-154,998,353,42,-424
1191,-324,-141,975,273,-12,-479
1192,-322,-143,957,193,0,-500
1193,-310,-142,948,136,39,-532
1194,-302,-124,932,152,91,-540
1195,-293,-121,941,242,97,-530
1196,-290,-112,928,412,107,-504
1197,-282,-76,921,562,115,-465
1198,-285,-43,954,642,146,-430
1199,-262,-42,965,572,197,-377
1200,-258,-44,972,335,171,-329
1201,-262,-32,944,130,158,-336
1202,-258,-23,920,58,185,-286
1203,-263,-35,923,199,189,-219
1204,-284,-47,913,382,218,-190
1205,-290,-22,933,421,283,-165
1206,-274,-25,936,382,371,-125
1207,-305,-19,951,349,437,-129
1208,-292,-25,951,271,507,-108
1209,-290,-37,961,111,498,-67
1210,-287,-61,978,-36,451,-69
1211,-297,-67,963,-145,384,-106
1212,-308,-45,994,-209,324,-94
1213,-313,-46,999,-100,259,-38
1214,-337,-73,1010,125,185,13
1215,-347,-97,993,224,158,27
1216,-345,-118,981,189,193,-8
1217,-334,-128,975,60,220,-63
1218,-329,-100,999,-67,240,-135
1219,-304,-86,982,-118,259,-151
1220,-322,-77,1005,-147,191,-129
1221,-318,-81,1009,-129,119,-92
1222,-338,-67,1008,-69,41,-61
1223,-342,-66,1007,83,-30,13
1224,-331,-101,988,212,-86,82
1225,-334,-112,954,226,-106,85
1226,-344,-121,936,97,-55,48
1227,-323,-117,952,-106,21,-12
1228,-327,-91,941,-227,54,-73
1229,-312,-84,965,-219,76,-69
1230,-309,-82,978,-217,62,-38
1231,-314,-63,974,-200,37,-22
1232,-295,-73,956,-104,11,33
1233,-309,-98,958,-32,-49,74
1234,-312,-101,943,-20,-40,85
1235,-319,-105,946,-24,15,70
1236,-317,-104,956,-49,109,87
1237,-312,-110,968,-45,144,95
1238,-330,-109,972,-22,144,91
1239,-319,-104,1022,-32,140,93
1240,-325,-110,1023,-4,83,113
1241,-326,-111,1020,23,-10,125
1242,-335,-127,998,9,-79,91
1243,-331,-132,975,-104,-92,74
1244,-330,-130,966,-219,-49,27
1245,-327,-121,956,-256,-8,21
1246,-323,-121,964,-221,-2,21
1247,-333,-133,978,-211,0,15
1248,-342,-144,987,-303,-6,-4
1249,-316,-124,991,-381,-30,-40
1250,-324,-105,1005,-377,-83,-40
1251,-338,-114,1011,-350,-122,-22
1252,-334,-132,1002,-411,-120,-16
1253,-332,-154,1003,-506,-98,-18
1254,-333,-157,1000,-526,-53,-59
1255,-336,-158,1043,-473,-16,-94
1256,-323,-154,1085,-415,-26,-84
1257,-331,-146,1132,-254,-61,-96
1258,-358,-136,1178,-73,-88,-81
1259,-359,-154,1241,78,-153,0
1260,-363,-166,1285,226,-231,11
1261,-369,-167,1353,283,-243,-6
1262,-369,-142,1415,369,-213,-47
1263,-405,-110,1525,515,-198,-61
1264,-440,-62,1620,738,-170,-45
1265,-449,-42,1726,970,-249,64
1266,-461,-43,1819,1154,-508,214
1267,-497,-42,1895,1248,-870,361
1268,-532,-36,1934,1273,-1280,511
1269,-552,-67,1965,1167,-1670,660
1270,-570,-104,1950,990,-2090,710
1271,-614,-102,1918,828,-2458,658
1272,-621,-114,1876,701,-2770,675
1273,-640,-148,1846,632,-3079,703
1274,-629,-170,1757,548,-3409,763
1275,-642,-211,1683,560,-3747,753
1276,-637,-229,1603,582,-4067,748
1277,-629,-272,1515,509,-4393,750
1278,-620,-292,1422,423,-4698,707
1279,-592,-308,1312,351,-4922,636
1280,-560,-319,1206,351,-5084,585
1281,-553,-336,1097,523,-5163,503
1282,-502,-312,1044,783,-5125,425
1283,-449,-317,953,925,-5057,353
1284,-392,-279,862,927,-5034,257
1285,-344,-234,768,882,-5002,107
1286,-265,-182,689,810,-4930,11
1287,-178,-86,573,712,-4874,-55
1288,-121,-19,486,658,-4866,-96
1289,-40,42,364,689,-4739,-57
1290,37,83,235,773,-4518,33
1291,166,139,118,800,-4211,146
1292,186,181,5,761,-3819,257
1293,228,194,-57,757,-3284,375
1294,296,222,-72,779,-2711,447
1295,337,230,-104,798,-2254,478
1296,416,219,-115,835,-1956,457
1297,438,218,-138,869,-1817,361
1298,444,209,-160,822,-1665,289
1299,461,234,-180,664,-1413,232
1300,491,253,-163,642,-1096,164
1301,496,271,-162,710,-793,167
1302,483,293,-132,707,-506,193
1303,507,286,-117,607,-235,261
1304,501,292,-84,435,21,349
1305,489,294,-90,236,199,400
1306,451,249,-90,-14,345,408
1307,422,229,-98,-340,556,416
1308,431,212,-145,-665,796,378
1309,389,195,-142,-825,1093,378
1310,367,183,-142,-844,1507,439
1311,345,180,-134,-776,1951,539
1312,277,140,-128,-694,2341,615
1313,244,98,-106,-668,2714,656
1314,223,45,-77,-790,3062,654
1315,183,14,7,-924,3404,585
1316,94,9,89,-946,3722,517
1317,23,-15,183,-829,4021,490
1318,-47,-43,299,-743,4277,482
1319,-119,-99,421,-717,4376,439
1320,-140,-96,518,-858,4425,335
1321,-126,-98,599,-1168,4427,300
1322,-105,-132,632,-1409,4449,353
1323,-155,-128,674,-1329,4390,400
1324,-221,-112,735,-977,4492,421
1325,-332,-137,789,-676,4738,517
1326,-417,-188,908,-588,5052,615
1327,-439,-206,1037,-780,5400,615
1328,-442,-228,1198,-1192,5628,654
1329,-449,-249,1339,-1499,5667,699
1330,-534,-246,1457,-1374,5392,718
1331,-608,-257,1542,-948,5044,783
1332,-682,-265,1640,-706,4833,781
1333,-641,-289,1731,-862,4736,728
1334,-622,-282,1810,-1282,4550,650
1335,-621,-181,1891,-1495,4257,675
1336,-663,-165,1956,-1157,3931,845
1337,-705,-208,2034,-665,3599,1027
1338,-708,-241,2048,-499,3250,1037
1339,-738,-206,2048,-536,2851,939
1340,-759,-234,2048,-680,2396,826
1341,-775,-230,2048,-850,2005,736
1342,-782,-250,2048,-942,1646,619
1343,-780,-204,2048,-889,1230,533
1344,-764,-199,2048,-749,716,546
1345,-805,-203,2048,-331,41,609
1346,-826,-230,2048,78,-551,693
1347,-866,-270,2048,201,-1000,691
1348,-874,-279,2048,68,-1434,636
1349,-870,-286,2048,-69,-1883,550
1350,-869,-278,2048,-184,-2346,472
1351,-868,-258,2048,-293,-2743,412
1352,-840,-239,2048,-249,-3153,386
1353,-824,-187,2021,-106,-3559,365
1354,-793,-196,1908,91,-3971,408
1355,-755,-208,1757,248,-4334,417
1356,-710,-188,1620,248,-4622,412
1357,-665,-169,1461,191,-4825,378
1358,-627,-134,1343,216,-4901,382
1359,-572,-106,1253,259,-4948,400
1360,-512,-77,1140,273,-4958,429
1361,-495,-46,1064,312,-4967,486
1362,-458,-35,993,351,-4995,593
1363,-419,-55,950,451,-5006,632
1364,-370,-57,876,402,-5098,726
1365,-329,-91,792,445,-5268,726
1366,-266,-58,665,476,-5375,699
1367,-232,-61,571,537,-5417,707
1368,-170,-64,472,621,-5393,720
1369,-118,-50,383,703,-5249,660
1370,-57,-36,301,693,-5026,666
1371,-24,-29,250,664,-4729,623
1372,55,4,228,677,-4336,607
1373,141,21,208,687,-4034,697
1374,184,36,194,708,-3801,777
1375,215,39,153,757,-3625,810
1376,227,-4,113,775,-3424,820
1377,268,1,90,753,-3155,789
1378,282,-19,62,689,-2866,716
1379,347,-29,31,613,-2579,656
1380,352,-22,32,695,-2297,568
1381,358,-35,44,765,-1987,482
1382,392,-7,59,695,-1625,386
1383,389,-1,90,419,-1362,332
1384,412,-11,93,83,-1116,292
1385,467,33,69,-129,-959,220
1386,439,30,33,-264,-877,125
1387,447,32,-13,-495,-690,27
1388,448,39,-46,-772,-446,-81
1389,476,57,-97,-1112,-264,-174
1390,463,89,-159,-1397,-86,-198
1391,458,127,-215,-1336,238,-143
1392,469,154,-242,-838,613,-10
1393,417,176,-269,-186,1027,197
1394,411,184,-249,318,1501,468
1395,414,143,-213,576,2007,740
1396,378,93,-156,648,2457,802
1397,302,79,-110,396,2896,726
1398,260,50,-43,-94,3271,667
1399,216,51,7,-477,3611,648
1400,130,34,69,-481,3792,599
1401,89,26,134,-327,4041,656
1402,45,-24,209,-163,4304,748
1403,-7,-46,286,64,4445,800
1404,-62,-66,310,189,4544,779
1405,-117,-62,376,232,4675,720
1406,-207,-45,453,228,4990,710
1407,-333,-21,578,240,5341,705
1408,-381,-19,745,339,5802,783
1409,-386,-118,903,392,6156,896
1410,-382,-193,1100,408,6156,882
1411,-463,-221,1216,332,5921,789
1412,-511,-224,1346,142,5634,787
1413,-553,-159,1507,386,5384,755
1414,-607,-140,1711,1031,5185,687
1415,-609,-103,1877,1275,5050,572
1416,-585,-117,1977,767,4861,603
1417,-554,-164,2045,-129,4445,710
1418,-580,-172,2048,-555,3933,669
1419,-620,-149,2048,-508,3431,621
1420,-647,-162,2048,-407,2921,623
1421,-654,-186,2047,-374,2410,593
1422,-624,-235,1941,-524,1976,507
1423,-586,-226,1860,-756,1582,421
1424,-580,-192,1784,-715,1216,275
1425,-580,-193,1708,-563,953,228
1426,-589,-195,1624,-514,730,195
1427,-563,-210,1569,-532,601,103
1428,-514,-183,1521,-622,513,3
1429,-495,-152,1469,-674,345,-22
1430,-474,-118,1429,-524,85,-18
1431,-439,-113,1358,-342,-129,48
1432,-410,-102,1290,-247,-274,78
1433,-378,-100,1211,-208,-342,78
1434,-380,-104,1158,-94,-301,66
1435,-381,-92,1118,44,-172,7
1436,-388,-76,1098,95,5,-51
1437,-373,-72,1109,-55,101,-94
1438,-334,-56,1116,-223,76,-155
1439,-288,-42,1099,-290,-36,-270
1440,-291,9,1089,-366,-208,-336
1441,-296,35,1064,-510,-344,-301
1442,-310,38,1039,-643,-413,-204
1443,-309,28,976,-620,-442,-110
1444,-314,-3,903,-446,-383,-8
1445,-313,-23,880,-327,-262,68
1446,-312,-29,878,-327,-55,82
1447,-279,-41,874,-358,123,56
1448,-268,-29,910,-268,175,37
1449,-279,-29,925,-141,138,39
1450,-285,-25,943,-40,87,58
1451,-289,-14,975,-40,95,74
1452,-291,-17,987,-167,123,89
1453,-285,-19,977,-385,193,128
1454,-287,-50,996,-528,240,185
1455,-297,-77,985,-465,259,201
1456,-315,-89,975,-360,294,250
1457,-319,-113,967,-295,308,265
1458,-317,-114,1014,-249,277,207
1459,-317,-86,1022,-204,169,103
1460,-310,-79,1023,-153,58,74
1461,-303,-72,994,-198,52,82
1462,-306,-65,981,-336,83,95
1463,-307,-69,975,-409,126,117
1464,-326,-81,952,-401,132,150
1465,-330,-109,947,-305,107,195
1466,-336,-113,947,-153,74,197
1467,-333,-115,951,-81,66,189
1468,-327,-117,942,-108,46,171
1469,-324,-120,943,-98,27,125
1470,-325,-119,926,-61,31,74
1471,-329,-78,951,5,58,54
1472,-331,-87,968,21,134,68
1473,-340,-70,957,-34,166,95
1474,-340,-70,977,-114,162,130
1475,-333,-95,982,-167,148,167
1476,-329,-114,970,-159,113,179
1477,-322,-130,971,-127,54,160
1478,-321,-132,956,-116,-2,82
1479,-327,-122,950,-98,-32,5
1480,-332,-117,932,-79,-30,-36
1481,-332,-102,936,-32,7,-63
1482,-332,-90,957,-14,78,-81
1483,-316,-65,981,-100,166,-47
1484,-324,-75,969,-200,160,-24
1485,-319,-94,964,-243,113,23
1486,-335,-111,964,-221,58,31
1487,-332,-120,948,-170,25,21
1488,-339,-138,963,-112,-8,-20
1489,-342,-131,938,-79,-26,-47
1490,-350,-129,931,-34,9,-49
1491,-327,-129,918,39,64,-69
1492,-329,-106,926,89,99,-110
1493,-325,-110,945,97,128,-88
1494,-335,-106,965,87,140,-83
1495,-330,-111,989,46,146,-81
1496,-336,-134,984,-18,123,-81
1497,-338,-149,978,-55,89,-110
1498,-340,-158,972,-92,46,-161
1499,-341,-145,955,-125,19,-204
1500,-344,-151,944,-94,25,-221
1501,-344,-160,926,11,42,-229
1502,-337,-143,947,125,78,-249
1503,-349,-130,972,140,132,-252
1504,-337,-135,985,109,167,-217
1505,-329,-129,967,103,152,-241
1506,-321,-138,1006,37,111,-268
1507,-334,-137,993,-8,15,-301
1508,-342,-139,984,7,-59,-321
1509,-350,-145,976,62,-84,-327
1510,-349,-146,958,85,-79,-333
1511,-350,-148,933,105,-65,-354
1512,-339,-138,951,103,13,-383
1513,-338,-133,942,48,80,-393
1514,-318,-112,982,-8,83,-407
1515,-335,-113,983,9,29,-409
1516,-326,-123,979,3,-45,-383
1517,-332,-135,965,7,-81,-403
1518,-342,-137,951,-42,-92,-430
1519,-344,-126,937,-55,-79,-454
1520,-335,-122,944,-18,-16,-467
1521,-341,-123,967,-4,44,-491
1522,-330,-120,962,-42,64,-506
1523,-324,-108,966,-67,41,-502
1524,-336,-104,973,-2,-10,-473
1525,-322,-118,974,54,-67,-434
1526,-340,-123,957,91,-122,-452
1527,-326,-123,959,50,-120,-459
1528,-331,-115,955,13,-122,-471
1529,-339,-102,940,72,-104,-497
1530,-326,-110,956,105,-16,-502
1531,-329,-105,957,80,27,-528
1532,-322,-94,980,3,31,-547
1533,-320,-87,984,9,-4,-561
1534,-325,-77,988,87,-86,-524
1535,-319,-86,972,150,-135,-489
1536,-323,-81,959,242,-184,-465
1537,-331,-95,946,308,-196,-448
1538,-338,-94,941,347,-159,-438
1539,-341,-96,940,345,-79,-479
1540,-346,-87,971,226,-18,-502
1541,-318,-74,973,93,42,-534
1542,-325,-77,972,-14,33,-536
1543,-322,-71,977,-24,-26,-504
1544,-327,-67,967,111,-96,-459
1545,-341,-88,966,273,-155,-415
1546,-330,-94,940,308,-168,-395
1547,-335,-113,970,251,-151,-417
1548,-330,-102,958,144,-86,-432
1549,-326,-93,951,85,-18,-477
1550,-326,-89,981,56,25,-512
1551,-312,-83,983,3,39,-526
1552,-318,-81,981,-69,-38,-514
1553,-314,-76,972,-45,-116,-493
1554,-313,-83,948,83,-149,-465
1555,-308,-95,933,205,-155,-446
1556,-323,-90,942,216,-116,-465
1557,-313,-76,935,144,-36,-477
1558,-331,-80,954,80,21,-485
1559,-325,-79,962,85,39,-481
1560,-311,-99,970,117,23,-479
1561,-322,-84,965,76,-6,-497
1562,-319,-80,962,-16,-38,-483
1563,-310,-81,976,-67,-88,-467
1564,-329,-85,957,11,-135,-456
1565,-308,-96,957,70,-155,-411
1566,-319,-103,906,126,-143,-415
1567,-317,-84,932,130,-77,-452
1568,-312,-80,928,125,64,-483
1569,-306,-79,963,58,134,-471
1570,-301,-77,981,31,117,-471
1571,-310,-72,984,56,46,-459
1572,-319,-82,995,97,-12,-436
1573,-321,-101,979,113,-67,-424
1574,-323,-96,979,113,-120,-438
1575,-317,-93,964,64,-118,-446
1576,-318,-98,950,0,-86,-459
1577,-325,-102,958,-47,-67,-475
1578,-327,-95,976,-67,-14,-493
1579,-322,-87,968,-92,25,-483
1580,-318,-91,978,-77,23,-471
1581,-308,-106,962,-43,-8,-446
1582,-312,-109,948,-6,-26,-450
1583,-316,-114,951,33,-12,-448
1584,-310,-113,962,62,-4,-446
1585,-312,-109,971,85,-4,-461
1586,-314,-115,967,89,-30,-471
1587,-312,-101,965,70,-40,-481
1588,-302,-110,967,27,-28,-500
1589,-306,-99,957,-14,-20,-524
1590,-309,-94,966,-43,0,-534
1591,-305,-103,967,-26,19,-524
1592,-307,-104,958,11,-26,-528
1593,-322,-110,949,19,-57,-512
1594,-307,-113,936,48,-28,-508
1595,-323,-105,970,54,-20,-524
1596,-303,-111,966,29,0,-545
1597,-297,-96,974,-24,11,-555
1598,-280,-104,965,-92,11,-542
1599,-300,-109,959,-129,-2,-547
1600,-305,-109,951,-125,11,-542
1601,-292,-115,942,-57,29,-495
1602,-314,-137,962,27,3,-483
1603,-293,-156,950,58,21,-512
1604,-302,-147,936,7,46,-549
1605,-316,-145,951,-20,56,-586
1606,-301,-138,960,-67,105,-633
1607,-295,-144,965,-176,89,-657
1608,-296,-117,975,-215,41,-665
1609,-304,-118,959,-124,23,-643
1610,-296,-129,969,-28,27,-606
1611,-316,-152,959,-16,3,-625
1612,-316,-138,954,-47,11,-651
1613,-302,-135,952,-84,50,-653
1614,-290,-126,951,-69,70,-680
1615,-307,-120,965,-67,62,-692
1616,-289,-113,953,-83,58,-704
1617,-307,-111,960,-75,25,-680
1618,-309,-121,963,-10,5,-647
1619,-302,-127,950,37,25,-624
1620,-301,-120,943,87,13,-610
1621,-301,-111,941,134,21,-606
1622,-306,-105,952,154,76,-614
1623,-322,-109,968,121,109,-620
1624,-315,-114,973,29,111,-637
1625,-317,-117,965,-2,95,-641
1626,-322,-104,950,0,78,-647
1627,-305,-103,974,3,107,-631
1628,-298,-104,972,31,107,-600
1629,-306,-99,978,113,76,-569
1630,-307,-100,962,164,42,-543
1631,-305,-115,956,195,21,-545
1632,-312,-105,959,103,39,-555
1633,-305,-99,957,-6,109,-565
1634,-319,-117,952,-88,123,-579
1635,-299,-108,948,-112,126,-596
1636,-304,-102,946,-55,109,-596
1637,-297,-113,952,107,99,-557
1638,-304,-108,958,253,97,-528
1639,-313,-98,959,314,91,-530
1640,-304,-96,976,265,107,-522
1641,-301,-94,981,220,72,-512
1642,-302,-102,968,173,29,-510
1643,-306,-110,962,99,39,-518
1644,-308,-113,954,46,72,-545
1645,-304,-99,974,31,85,-555
1646,-307,-102,973,103,48,-543
1647,-308,-89,970,199,21,-532
1648,-298,-82,975,179,29,-493
1649,-300,-84,956,111,17,-502
1650,-299,-63,963,29,21,-508
1651,-286,-86,941,-14,7,-481
1652,-293,-86,929,31,-18,-473
1653,-298,-52,930,117,13,-477
1654,-304,-73,926,146,80,-430
1655,-291,-75,930,146,150,-399
1656,-296,-76,953,152,218,-391
1657,-307,-74,960,125,228,-352
1658,-306,-85,953,156,201,-319
1659,-308,-96,949,189,193,-311
1660,-297,-118,970,146,177,-295
1661,-302,-130,958,99,150,-331
1662,-323,-124,976,93,134,-381
1663,-323,-111,977,89,130,-393
1664,-319,-92,982,136,119,-374
1665,-321,-102,983,125,111,-342
1666,-322,-103,973,85,91,-338
1667,-315,-99,993,80,93,-331
1668,-324,-84,982,109,64,-342
1669,-317,-82,974,115,42,-288
1670,-316,-78,971,119,15,-280
1671,-328,-78,955,70,21,-266
1672,-332,-62,946,97,52,-301
1673,-307,-60,951,117,103,-272
1674,-310,-75,947,136,107,-249
1675,-318,-62,958,150,103,-245
1676,-321,-44,978,140,142,-247
1677,-306,-40,995,107,146,-206
1678,-305,-26,1006,117,95,-168
1679,-304,-44,995,125,39,-122
1680,-330,-72,977,111,3,-96
1681,-331,-65,977,66,3,-110
1682,-318,-79,950,11,29,-114
1683,-331,-79,952,11,60,-110
1684,-326,-85,965,31,93,-120
1685,-314,-84,966,74,97,-100
1686,-312,-83,976,167,39,-65
1687,-323,-82,953,214,13,-45
1688,-327,-92,959,185,11,-32
1689,-330,-89,983,107,25,-43
1690,-323,-82,990,3,44,-51
1691,-316,-92,988,-55,3,-42
1692,-316,-82,974,-18,-30,-57
1693,-316,-85,970,-12,5,-51
1694,-331,-111,969,-10,19,-45
1695,-322,-109,952,33,5,-51
1696,-308,-109,955,42,-14,-73
1697,-314,-104,944,13,-14,-88
1698,-309,-90,970,-65,-14,-94
1699,-314,-79,943,-112,1,-83
1700,-306,-84,954,-116,7,-59
1701,-327,-90,958,-79,0,-40
1702,-310,-101,937,-30,15,-36
1703,-307,-103,937,27,15,-20
1704,-314,-103,932,68,9,-32
1705,-316,-96,947,64,37,-53
1706,-312,-93,948,27,66,-59
1707,-312,-94,961,-30,62,-71
1708,-314,-82,961,-90,42,-67
1709,-312,-99,958,-122,21,-42
1710,-317,-95,952,-108,15,-34
1711,-322,-91,947,-71,25,-24
1712,-327,-100,942,-6,37,0
1713,-321,-112,942,64,58,11
1714,-316,-118,948,99,72,3
1715,-313,-118,944,64,89,-38
1716,-315,-105,967,1,107,-67
1717,-310,-82,994,-30,105,-88
1718,-312,-76,986,-67,83,-67
1719,-304,-67,981,-102,33,-34
1720,-312,-105,962,-104,-10,0
1721,-318,-120,935,-73,-18,-4
1722,-332,-124,949,-32,13,-24
1723,-338,-101,955,-18,70,-47
1724,-328,-111,963,9,93,-57
1725,-310,-94,963,29,78,-67
1726,-312,-88,952,31,60,-75
1727,-308,-84,972,-43,62,-63
1728,-300,-76,990,-127,54,-40
1729,-321,-72,969,-137,11,-12
1730,-321,-91,950,-79,-2,15
1731,-325,-110,968,-38,-6,9
1732,-326,-115,947,-63,15,-14
1733,-319,-96,943,-114,52,-28
1734,-329,-95,944,-92,83,-38
1735,-315,-107,959,-47,101,-22
1736,-325,-99,966,-16,113,-26
1737,-315,-98,953,-18,87,-20
1738,-335,-96,972,-14,66,0
1739,-322,-93,974,5,50,15
1740,-320,-102,982,31,29,21
1741,-331,-106,965,15,25,13
1742,-323,-101,956,-30,41,-16
1743,-331,-93,974,-90,42,-28
1744,-345,-77,951,-67,27,-28
1745,-334,-83,964,13,13,13
1746,-333,-91,961,70,17,21
1747,-326,-96,963,42,21,7
1748,-329,-95,960,-38,31,9
1749,-331,-91,981,-49,29,-8
1750,-338,-82,988,-26,25,3
1751,-336,-99,957,-26,31,17
1752,-332,-107,975,-79,31,0
1753,-339,-101,955,-135,35,-24
1754,-326,-92,951,-120,23,-24
1755,-335,-84,959,-20,5,0
1756,-332,-94,974,62,-8,11
1757,-343,-86,969,80,-28,11
1758,-328,-94,970,19,-28,-4
1759,-332,-96,964,-114,-20,-34
1760,-333,-87,966,-229,-14,-55
1761,-318,-103,930,-268,-2,-71
1762,-323,-101,933,-217,13,-83
1763,-335,-83,918,-186,41,-69
1764,-329,-72,924,-84,74,-34
1765,-327,-75,944,23,64,-8
1766,-321,-81,950,56,58,7
1767,-316,-84,943,-4,56,9
1768,-323,-85,944,-81,72,0
1769,-318,-86,949,-129,117,5
1770,-331,-85,964,-143,123,7
1771,-335,-79,987,-153,138,5
1772,-345,-83,995,-249,173,31
1773,-334,-69,1023,-284,160,66
1774,-335,-85,1025,-188,119,95
1775,-341,-95,1023,-28,62,117
1776,-360,-96,1044,42,44,128
1777,-360,-94,1057,50,60,115
1778,-366,-85,1099,52,91,76
1779,-378,-75,1144,3,103,44
1780,-351,-66,1191,-79,76,42
1781,-373,-63,1217,-157,-10,54
1782,-369,-62,1231,-235,-118,85
1783,-358,-80,1259,-209,-266,115
1784,-377,-79,1258,-81,-473,113
1785,-376,-67,1259,27,-612,140
1786,-385,-64,1271,162,-684,150
1787,-370,-58,1282,251,-721,162
1788,-356,-54,1307,261,-743,167
1789,-365,-32,1358,298,-792,146
1790,-353,-37,1382,248,-866,179
1791,-360,-29,1429,140,-969,257
1792,-352,-41,1480,136,-1137,332
1793,-388,-40,1500,208,-1348,396
1794,-401,-60,1492,269,-1598,478
1795,-421,-99,1476,316,-1790,529
1796,-446,-132,1473,291,-1938,554
1797,-455,-179,1442,216,-2104,542
1798,-463,-208,1416,156,-2305,494
1799,-459,-229,1384,132,-2479,404
1800,-425,-244,1367,126,-2637,314
1801,-424,-220,1340,119,-2846,253
1802,-421,-201,1302,152,-3036,228
1803,-399,-210,1274,177,-3196,195
1804,-378,-210,1205,123,-3319,154
1805,-357,-190,1134,46,-3444,85
1806,-347,-175,1056,3,-3561,54
1807,-326,-169,950,-127,-3647,42
1808,-298,-148,805,-309,-3708,-4
1809,-254,-135,670,-459,-3665,-22
1810,-200,-74,530,-551,-3424,-75
1811,-109,-48,416,-469,-3133,-221
1812,-54,46,342,-481,-2905,-252
1813,16,111,214,-401,-2608,-206
1814,79,178,154,-61,-2374,-114
1815,115,253,82,380,-2229,5
1816,120,286,-14,585,-2110,167
1817,123,287,-111,509,-1922,378
1818,143,253,-208,359,-1586,623
1819,152,180,-263,277,-1190,798
1820,163,112,-283,302,-747,859
1821,182,93,-266,304,-200,796
1822,184,60,-236,181,361,712
1823,194,65,-182,44,849,589
1824,195,106,-99,-88,1330,501
1825,158,103,-21,-118,1689,468
1826,147,130,69,-100,1998,490
1827,99,118,170,-79,2294,611
1828,71,57,249,-20,2550,724
1829,47,-28,357,-14,2796,781
1830,-16,-112,487,-141,2986,699
1831,-68,-123,585,-333,3109,564
1832,-103,-140,675,-610,3273,478
1833,-146,-163,747,-713,3417,455
1834,-183,-172,847,-645,3568,439
1835,-220,-152,954,-563,3841,464
1836,-301,-152,1059,-446,4029,519
1837,-328,-206,1191,-461,4191,675
1838,-305,-249,1365,-625,4277,697
1839,-347,-200,1538,-739,4078,593
1840,-424,-167,1684,-606,3843,621
1841,-460,-193,1784,-317,3601,769
1842,-497,-209,1900,-288,3355,802
1843,-519,-194,2036,-415,3144,781
1844,-513,-178,2048,-583,2740,841
1845,-543,-208,2048,-528,2128,847
1846,-559,-215,2048,-315,1394,779
1847,-594,-160,2048,-301,679,703
1848,-603,-141,2048,-442,62,669
1849,-604,-141,2048,-581,-477,660
1850,-610,-153,2048,-752,-985,685
1851,-593,-161,2048,-813,-1481,699
1852,-592,-163,2048,-676,-1887,699
1853,-608,-180,1993,-506,-2258,714
1854,-576,-200,1905,-458,-2551,701
1855,-554,-212,1818,-483,-2817,636
1856,-542,-225,1746,-504,-3086,572
1857,-527,-201,1671,-450,-3315,496
1858,-471,-182,1610,-340,-3571,460
1859,-446,-183,1528,-252,-3915,429
1860,-427,-143,1434,-182,-4180,392
1861,-393,-157,1287,-161,-4372,417
1862,-359,-160,1149,-127,-4489,425
1863,-347,-175,1041,-55,-4497,357
1864,-312,-173,893,-43,-4454,300
1865,-257,-165,758,-24,-4362,232
1866,-242,-141,658,37,-4260,146
1867,-174,-112,561,162,-4079,74
1868,-111,-62,459,158,-3920,48
1869,-55,-14,356,126,-3760,42
1870,-2,36,255,191,-3528,103
1871,78,54,173,281,-3313,189
1872,115,62,78,445,-3084,267
1873,134,64,-10,531,-2803,361
1874,159,43,-58,710,-2426,421
1875,168,33,-108,867,-1965,482
1876,146,42,-138,974,-1526,503
1877,151,33,-105,937,-1047,511
1878,159,23,-55,667,-643,472
1879,174,63,-26,384,-252,439
1880,232,50,-9,218,42,474
1881,239,60,21,138,195,458
1882,265,55,23,87,343,478
1883,271,46,28,85,517,511
1884,238,31,47,136,783,558
1885,228,30,73,300,1167,626
1886,201,48,127,564,1625,646
1887,144,64,229,742,2078,714
1888,126,30,297,740,2437,810
1889,79,12,374,656,2710,777
1890,87,-13,446,332,2957,769
1891,47,-26,491,-38,3099,748
1892,-5,-14,558,-319,3201,740
1893,-94,-25,587,-264,3341,753
1894,-156,-51,640,-84,3607,802
1895,-155,-92,746,-59,3937,761
1896,-160,-46,859,-96,4189,830
1897,-200,-60,982,82,4253,966
1898,-253,-120,1059,386,4222,1066
1899,-289,-151,1182,480,4076,1035
1900,-319,-140,1249,326,3923,929
1901,-343,-130,1321,54,3798,871
1902,-350,-177,1422,-102,3681,880
1903,-373,-195,1514,-133,3478,810
1904,-389,-185,1546,-42,3226,708
1905,-438,-153,1590,130,2923,718
1906,-460,-128,1656,314,2695,761
1907,-454,-135,1697,275,2460,824
1908,-424,-150,1706,-61,2138,833
1909,-425,-172,1622,-356,1744,763
1910,-445,-193,1580,-403,1376,689
1911,-457,-221,1500,-448,1144,615
1912,-498,-245,1443,-571,972,443
1913,-504,-231,1400,-725,929,236
1914,-465,-208,1359,-764,941,115
1915,-457,-187,1366,-692,917,64
1916,-416,-166,1354,-598,822,25
1917,-406,-140,1341,-493,619,21
1918,-416,-101,1295,-313,388,42
1919,-391,-135,1254,-96,166,97
1920,-391,-162,1214,-22,-24,89
1921,-390,-143,1158,-125,-118,21
1922,-367,-147,1115,-237,-92,-34
1923,-371,-135,1080,-250,-28,-71
1924,-362,-110,1050,-204,78,-106
1925,-366,-89,1083,-243,169,-84
1926,-350,-109,1068,-293,166,-51
1927,-339,-86,1083,-249,115,-59
1928,-336,-87,1073,-165,7,-45
1929,-340,-66,1086,-90,-110,-47
1930,-347,-71,1054,-20,-194,-55
1931,-335,-75,1041,-57,-247,-83
1932,-346,-83,995,-208,-280,-139
1933,-321,-63,958,-413,-198,-186
1934,-306,-51,948,-555,-79,-194
1935,-303,-32,946,-471,11,-153
1936,-302,-29,948,-245,41,-79
1937,-308,-37,940,-40,29,-24
1938,-312,-35,977,85,46,27
1939,-301,-48,1003,115,3,58
1940,-310,-30,1001,62,-84,50
1941,-309,-63,975,33,-186,78
1942,-321,-86,952,-6,-219,76
1943,-330,-85,942,-100,-155,42
1944,-319,-92,917,-215,-47,13
1945,-314,-62,927,-225,78,-34
1946,-315,-44,939,-174,158,-30
1947,-306,-48,962,-125,177,21
1948,-306,-54,998,-90,152,33
1949,-308,-46,1007,-59,85,64
1950,-323,-69,1016,-42,-22,72
1951,-323,-57,1000,-114,-104,60
1952,-323,-82,977,-206,-139,74
1953,-330,-90,937,-235,-153,68
1954,-315,-99,936,-260,-100,48
1955,-314,-98,943,-243,-12,0
1956,-316,-94,941,-192,64,-24
1957,-301,-73,960,-98,117,-16
1958,-305,-59,973,-28,97,-4
1959,-302,-56,974,-18,66,33
1960,-310,-66,988,-137,37,39
1961,-306,-77,987,-262,-42,42
1962,-318,-81,982,-293,-90,35
1963,-302,-79,959,-221,-116,56
1964,-321,-98,949,-133,-108,87
1965,-325,-114,938,-67,-75,89
1966,-314,-106,950,13,11,58
1967,-322,-110,955,29,58,44
1968,-315,-82,981,44,70,17
1969,-311,-74,980,23,48,13
1970,-305,-78,1001,-43,1,21
1971,-313,-84,993,-139,-79,5
1972,-315,-100,982,-209,-133,-4
1973,-316,-94,956,-225,-129,0
1974,-317,-95,943,-198,-94,23
1975,-332,-104,946,-94,-47,42
1976,-329,-105,936,3,5,27
1977,-322,-105,958,33,42,9
1978,-318,-97,985,-2,23,-20
1979,-314,-95,974,-73,-32,-42
1980,-310,-95,974,-143,-73,-77
1981,-308,-55,975,-176,-67,-83
1982,-313,-50,998,-153,-53,-36
1983,-316,-70,985,-75,-124,9
1984,-318,-101,952,-59,-172,17
1985,-302,-100,932,-135,-145,21
1986,-302,-111,951,-200,-98,21
1987,-322,-77,951,-57,-51,-36
1988,-327,-75,961,160,-16,-36
1989,-327,-87,953,208,-22,0
1990,-319,-98,966,140,-30,-20
1991,-310,-89,974,62,-6,-49
1992,-314,-54,995,-18,1,-59
1993,-309,-58,1016,-116,-26,-45
1994,-304,-56,1011,-206,-86,-28
1995,-308,-66,977,-249,-153,-18
1996,-298,-72,965,-206,-168,-16
1997,-301,-89,961,-153,-155,-30
1998,-304,-83,938,-141,-122,-38
1999,-304,-87,953,-124,-90,-42
2000,-307,-69,937,-47,-59,-53
2001,-296,-72,954,-24,-47,-30
2002,-298,-50,961,-34,-55,-30
2003,-294,-49,946,-81,-57,-28
2004,-288,-47,948,-131,-65,0
2005,-292,-55,958,-131,-81,25
2006,-293,-64,941,-104,-94,42
2007,-292,-74,931,-79,-88,54
2008,-294,-76,928,-45,-77,52
2009,-298,-78,948,-24,-30,56
2010,-314,-88,954,-51,21,52
2011,-307,-81,970,-92,64,42
2012,-306,-87,972,-110,52,44
2013,-307,-77,976,-96,33,50
2014,-302,-96,982,-57,-14,50
2015,-302,-93,974,-43,-53,25
2016,-300,-83,969,-55,-69,21
2017,-295,-96,951,-51,-55,27
2018,-300,-92,963,-10,-55,29
2019,-319,-94,951,11,-40,33
2020,-302,-111,951,5,5,42
2021,-310,-123,942,5,31,21
2022,-312,-110,954,-10,42,5
2023,-309,-114,947,3,56,0
2024,-293,-134,955,66,37,-10
2025,-317,-119,971,128,21,-28
2026,-313,-126,991,107,21,-57
2027,-310,-131,978,15,27,-84
2028,-320,-110,978,-49,5,-129
2029,-305,-129,964,-84,0,-129
2030,-313,-135,949,-45,-10,-137
2031,-322,-140,939,33,-20,-159
2032,-301,-142,959,58,15,-149
2033,-314,-151,959,78,39,-159
2034,-311,-147,954,87,52,-174
2035,-312,-157,962,72,56,-219
2036,-314,-147,973,33,27,-233
2037,-304,-137,974,66,9,-274
2038,-302,-123,983,56,25,-284
2039,-299,-117,999,-22,29,-282
2040,-312,-114,987,-69,7,-293
2041,-299,-112,963,-75,-6,-292
2042,-301,-127,946,-40,-24,-274
2043,-306,-134,949,-8,-32,-299
2044,-317,-118,958,-8,-2,-338
2045,-308,-113,967,-55,46,-368
2046,-301,-96,965,-81,52,-401
2047,-298,-94,965,-98,41,-389
2048,-306,-92,955,-92,31,-372
2049,-290,-110,958,-63,23,-354
2050,-299,-98,970,-24,19,-374
2051,-313,-82,976,-16,25,-374
2052,-305,-91,975,-2,7,-356
2053,-310,-87,984,-2,-24,-354
2054,-308,-89,960,-2,-30,-348
2055,-307,-83,965,-2,9,-348
2056,-308,-88,967,-6,64,-360
2057,-299,-69,980,-57,85,-358
2058,-301,-71,979,-65,44,-342
2059,-304,-67,976,5,-4,-329
2060,-304,-81,971,52,-26,-309
2061,-295,-80,949,50,-51,-319
2062,-306,-82,959,19,-40,-348
2063,-302,-64,972,-4,0,-346
2064,-310,-57,975,11,37,-309
2065,-318,-77,966,52,33,-276
2066,-307,-100,980,56,15,-272
2067,-319,-96,967,44,5,-293
2068,-312,-109,964,31,9,-288
2069,-304,-111,973,70,5,-305
2070,-309,-98,982,105,-20,-333
2071,-307,-90,981,105,-34,-329
2072,-308,-100,973,117,-47,-319
2073,-313,-105,973,117,-65,-323
2074,-308,-111,950,62,-45,-336
2075,-315,-121,974,-10,-6,-362
2076,-299,-114,966,-55,29,-372
2077,-314,-99,972,9,42,-370
2078,-293,-111,979,68,13,-360
2079,-301,-119,956,58,-14,-360
2080,-300,-122,966,-2,-26,-379
2081,-293,-106,955,-32,-30,-413
2082,-293,-99,961,-65,-28,-417
2083,-301,-97,970,-63,-42,-424
2084,-302,-98,982,-59,-47,-422
2085,-300,-106,946,-67,-53,-430
2086,-309,-116,936,-65,-36,-446
2087,-305,-122,948,-98,5,-467
2088,-296,-106,941,-104,19,-471
2089,-300,-88,955,-34,5,-473
2090,-296,-95,953,17,1,-456
2091,-300,-85,955,27,23,-426
2092,-298,-91,973,48,21,-424
2093,-304,-79,985,78,29,-417
2094,-304,-86,995,78,54,-405
2095,-308,-98,982,56,46,-409
2096,-313,-81,973,23,15,-438
2097,-295,-93,984,-16,9,-424
2098,-308,-89,993,-16,-22,-424
2099,-312,-77,974,19,-45,-424
2100,-307,-76,973,58,-57,-409
2101,-304,-74,965,95,-63,-377
2102,-301,-90,969,83,-47,-354
2103,-300,-91,947,31,-30,-350
2104,-306,-90,955,-18,33,-381
2105,-313,-94,970,-81,74,-393
2106,-309,-101,960,-86,70,-401
2107,-307,-88,975,-26,41,-428
2108,-307,-103,944,-43,13,-409
2109,-319,-121,943,-67,11,-409
2110,-308,-131,952,-81,11,-420
2111,-307,-108,940,-69,11,-420
2112,-294,-103,933,-26,11,-422
2113,-300,-89,946,-20,29,-444
2114,-301,-108,962,-125,58,-420
2115,-293,-116,986,-243,78,-426
2116,-287,-125,967,-297,72,-446
2117,-292,-133,969,-272,62,-442
2118,-278,-121,957,-182,54,-420
2119,-288,-118,971,-75,62,-422
2120,-293,-130,959,-53,68,-418
2121,-301,-144,988,-104,105,-454
2122,-293,-153,983,-184,105,-448
2123,-292,-154,984,-262,128,-473
2124,-309,-147,990,-299,97,-491
2125,-301,-148,992,-208,89,-446
2126,-306,-164,979,-100,56,-436
2127,-306,-163,976,-36,19,-438
2128,-310,-183,982,-51,41,-471
2129,-319,-163,995,-59,52,-497
2130,-321,-153,1012,-24,50,-526
2131,-301,-133,991,15,25,-534
2132,-318,-127,999,13,-18,-536
2133,-315,-131,992,37,-45,-526
2134,-298,-125,1007,83,-75,-528
2135,-295,-122,988,111,-110,-526
2136,-294,-130,971,128,-124,-516
2137,-306,-129,978,148,-120,-526
2138,-311,-120,967,150,-79,-543
2139,-293,-112,978,123,-28,-553
2140,-292,-98,986,72,-4,-540
2141,-289,-94,999,54,-22,-532
2142,-305,-102,988,62,-51,-512
2143,-294,-131,985,68,-65,-485
2144,-290,-133,964,97,-86,-487
2145,-312,-143,977,113,-108,-485
2146,-295,-134,975,201,-124,-493
2147,-287,-120,972,269,-114,-502
2148,-298,-130,990,240,-106,-506
2149,-296,-114,973,205,-90,-512
2150,-292,-118,976,173,-63,-506
2151,-293,-113,990,152,-84,-508
2152,-277,-109,979,134,-106,-512
2153,-282,-122,969,107,-145,-510
2154,-274,-105,964,91,-174,-510
2155,-293,-113,980,195,-194,-526
2156,-293,-122,959,123,-182,-520
2157,-291,-108,943,91,-168,-545
2158,-276,-107,917,31,-114,-565
2159,-272,-83,924,19,-61,-536
2160,-273,-68,921,54,-42,-524
2161,-268,-70,944,27,-4,-502
2162,-267,-67,930,-98,-2,-475
2163,-264,-77,935,-178,-28,-469
2164,-259,-92,912,-233,-22,-440
2165,-271,-111,901,-245,-16,-418
2166,-284,-105,902,-186,-8,-418
2167,-280,-110,914,-96,52,-401
2168,-278,-120,912,-20,85,-391
2169,-275,-107,939,7,70,-417
2170,-273,-97,929,-26,101,-444
2171,-265,-97,919,-63,138,-424
2172,-255,-93,928,-84,156,-415
2173,-266,-89,936,-55,169,-401
2174,-274,-94,942,-12,171,-366
2175,-284,-102,964,87,160,-340
2176,-285,-116,948,171,150,-311
2177,-298,-104,961,189,171,-325
2178,-282,-104,975,121,193,-331
2179,-278,-89,982,64,203,-331
2180,-290,-91,986,74,185,-321
2181,-282,-90,978,111,162,-311
2182,-285,-98,969,140,146,-297
2183,-282,-85,953,167,121,-286
2184,-281,-65,989,179,136,-292
2185,-267,-73,995,64,171,-272
2186,-281,-91,981,-12,144,-278
2187,-292,-95,953,-49,113,-276
2188,-287,-92,969,-6,113,-254
2189,-290,-87,958,87,146,-215
2190,-299,-102,974,150,171,-180
2191,-297,-86,1009,167,185,-180
2192,-292,-80,1006,167,181,-172
2193,-293,-105,1002,156,146,-153
2194,-301,-110,1018,152,85,-176
2195,-303,-79,1004,72,60,-194
2196,-299,-88,1004,11,33,-186
2197,-299,-83,989,29,3,-202
2198,-301,-82,978,60,3,-194
2199,-289,-86,971,64,54,-159
2200,-297,-89,965,97,82,-145
2201,-297,-81,991,160,93,-129
2202,-306,-84,988,232,64,-110
2203,-307,-74,1007,285,21,-96
2204,-292,-83,1006,253,0,-106
2205,-283,-80,994,117,1,-96
2206,-284,-77,1009,5,-45,-120
2207,-299,-71,963,-14,-75,-125
2208,-293,-75,959,-2,-67,-100
2209,-304,-94,940,13,-24,-84
2210,-297,-102,965,39,9,-69
2211,-298,-97,959,74,11,-75
2212,-306,-81,972,125,9,-79
2213,-285,-75,984,156,37,-47
2214,-287,-94,981,128,21,-36
2215,-292,-85,959,58,1,-51
2216,-294,-91,963,-28,-2,-55
2217,-292,-96,970,-75,-16,-63
2218,-281,-91,953,-36,-49,-57
2219,-298,-89,964,85,-69,-49
2220,-277,-88,958,175,-57,-34
2221,-278,-93,961,162,-24,-8
2222,-280,-58,969,169,-12,21
2223,-272,-66,972,169,-22,48
2224,-275,-74,943,136,-43,72
2225,-276,-94,954,105,-53,89
2226,-281,-110,944,113,-49,93
2227,-316,-110,935,148,-4,80
2228,-299,-102,952,171,93,54
2229,-299,-105,990,103,113,39
2230,-303,-93,986,23,85,3
2231,-306,-90,986,-12,42,-4
2232,-296,-101,993,-53,15,23
2233,-304,-109,970,-53,-30,21
2234,-302,-106,953,-43,-55,1
2235,-313,-108,947,-24,-42,-12
2236,-291,-106,946,27,-8,-24
2237,-298,-101,959,78,21,-34
2238,-291,-89,973,87,44,-45
2239,-280,-92,965,21,72,-51
2240,-288,-72,985,-67,72,-42
2241,-286,-76,992,-96,54,-28
2242,-275,-83,967,-81,19,0
2243,-291,-81,977,-26,-12,0
2244,-301,-90,978,-10,-6,15
2245,-293,-94,987,11,5,7
2246,-300,-94,993,35,-14,-10
2247,-300,-82,973,13,-28,-4
2248,-303,-91,962,-40,-22,-26
2249,-299,-94,957,-108,-2,-32
2250,-299,-82,963,-141,11,-51
2251,-297,-83,970,-141,13,-45
2252,-301,-79,984,-100,11,-20
2253,-302,-83,966,-55,19,1
2254,-291,-94,984,-40,35,0
2255,-300,-80,989,-40,19,5
2256,-301,-82,992,0,-8,15
2257,-308,-94,992,42,-14,27
2258,-298,-102,996,21,-30,11
2259,-306,-100,997,-63,-32,-22
2260,-306,-98,977,-137,-40,-28
2261,-296,-100,967,-114,-59,-28
2262,-304,-99,959,-92,-71,-26
2263,-300,-101,946,-86,-77,-24
2264,-304,-101,935,-83,-61,-40
2265,-290,-100,953,-73,-40,-47
2266,-283,-106,953,-24,-24,-40
2267,-285,-105,967,41,-30,-61
2268,-294,-93,965,33,-38,-51
2269,-286,-94,963,19,-38,-57
2270,-296,-88,953,-6,-34,-81
2271,-283,-87,963,-83,-2,-92
2272,-281,-73,957,-159,13,-96
2273,-279,-76,964,-165,-2,-77
2274,-292,-78,949,-108,-28,-55
2275,-284,-92,930,-67,-2,-38
2276,-281,-83,934,-43,41,-38
2277,-276,-79,934,-18,64,-32
2278,-285,-78,958,39,50,-28
2279,-287,-76,970,46,33,-24
2280,-278,-82,956,3,44,-28
2281,-289,-76,944,-88,56,-26
2282,-290,-71,945,-159,74,-30
2283,-290,-73,934,-157,91,-16
2284,-283,-83,924,-122,119,-10
2285,-294,-77,945,-75,150,1
2286,-289,-95,934,-71,193,11
2287,-296,-96,951,-88,208,-10
2288,-296,-91,951,-120,212,-20
2289,-302,-81,961,-125,208,-14
2290,-300,-63,972,-36,205,17
2291,-286,-87,981,-18,169,56
2292,-301,-102,953,-8,48,42
2293,-312,-96,928,-22,15,21
2294,-317,-94,922,-30,107,11
2295,-314,-95,933,-51,197,5
2296,-298,-83,968,-83,251,7
2297,-300,-82,964,-137,234,0
2298,-305,-104,959,-170,205,-18
2299,-295,-101,942,-186,212,-16
2300,-295,-104,933,-145,230,-6
2301,-309,-91,980,-83,222,11
2302,-319,-87,981,29,214,29
2303,-312,-96,992,54,185,52
2304,-324,-116,987,-34,193,23
2305,-318,-120,983,-208,248,-14
2306,-326,-99,979,-331,287,-55
2307,-325,-80,1005,-362,304,-49
2308,-331,-99,1004,-282,259,-14
2309,-330,-109,1006,-147,183,-6
2310,-335,-114,981,-124,148,-6
2311,-344,-99,978,-153,154,-16
2312,-340,-115,959,-161,156,-28
2313,-340,-101,982,-155,166,-61
2314,-338,-95,973,-184,148,-77
2315,-342,-75,994,-227,169,-77
2316,-327,-80,998,-249,183,-38
2317,-331,-76,1000,-219,150,-10
2318,-349,-89,1007,-172,144,1
2319,-347,-80,1034,-88,197,-10
2320,-332,-96,1114,-40,316,-14
2321,-310,-94,1210,3,474,-32
2322,-351,-33,1370,207,634,-102
2323,-374,-6,1588,421,857,-90
2324,-428,31,1824,619,894,-38
2325,-513,18,2048,814,607,93
2326,-586,-45,2048,722,132,240
2327,-654,-123,2048,554,-397,339
2328,-741,-171,2048,212,-905,486
2329,-768,-214,2048,80,-1278,537
2330,-809,-218,2048,345,-1776,472
2331,-839,-204,2048,837,-2252,498
2332,-895,-163,2048,1396,-2842,507
2333,-939,-135,2048,1964,-3415,621
2334,-943,-151,2048,2244,-4016,849
2335,-993,-145,2048,2308,-4762,945
2336,-993,-175,2048,2093,-5389,1033
2337,-996,-182,2048,1650,-5913,1027
2338,-1002,-187,1924,1173,-6270,996
2339,-1002,-185,1763,871,-6565,994
2340,-989,-180,1548,808,-6879,1052
2341,-1001,-221,1368,1050,-7241,990
2342,-997,-225,1154,1062,-7483,984
2343,-925,-234,919,771,-7526,927
2344,-835,-231,661,205,-7520,769
2345,-704,-220,441,-323,-7459,654
2346,-541,-167,248,-340,-7284,447
2347,-460,-54,53,-26,-7127,210
2348,-324,46,-101,369,-6823,46
2349,-233,133,-323,419,-6413,1
2350,-54,217,-507,19,-5928,109
2351,119,284,-671,-399,-5420,220
2352,266,306,-836,-584,-4950,400
2353,424,315,-909,-417,-4479,554
2354,496,381,-953,291,-4004,593
2355,497,407,-954,996,-3448,794
2356,470,352,-903,1304,-2799,1070
2357,466,267,-867,1193,-2043,1179
2358,478,183,-813,777,-1313,1103
2359,472,140,-762,222,-756,906
2360,509,152,-702,-245,-379,792
2361,541,143,-704,-272,-172,701
2362,565,162,-710,-143,-71,580
2363,596,223,-766,-172,113,464
2364,612,229,-811,-315,402,400
2365,595,244,-866,-461,853,357
2366,557,266,-890,-637,1402,304
2367,539,306,-909,-786,2025,300
2368,418,318,-945,-917,2677,365
2369,317,308,-903,-688,3359,519
2370,179,286,-843,-424,3957,660
2371,79,245,-770,-243,4433,804
2372,21,163,-721,-129,4855,978
2373,-74,39,-715,-96,5199,1132
2374,-177,-76,-675,-34,5490,1097
2375,-279,-163,-706,-63,5851,1017
2376,-383,-249,-691,-131,6205,875
2377,-518,-254,-623,-276,6521,568
2378,-547,-217,-580,-577,6912,322
2379,-602,-200,-472,-760,7255,207
2380,-562,-28,-292,-567,7703,-16
2381,-750,206,-17,-161,8527,117
2382,-823,316,499,490,9470,660
2383,-1013,311,1231,1287,10619,1408
2384,-1286,198,2048,1876,11201,2021
2385,-1445,-87,2048,1345,10876,2078
2386,-1625,-169,2048,-407,9769,1789
2387,-1696,-324,2048,-2436,8191,1589
2388,-1728,-483,2048,-3348,6730,1462
2389,-1666,-502,2048,-3100,5757,1357
2390,-1639,-566,2048,-2026,4863,1232
2391,-1627,-609,2048,-934,4179,1037
2392,-1632,-580,2048,-641,3503,722
2393,-1584,-507,2048,-1125,2574,414
2394,-1525,-414,2048,-1495,1316,236
2395,-1448,-361,2048,-1366,-145,146
2396,-1436,-339,2048,-1090,-1747,58
2397,-1424,-302,2048,-901,-3143,-43
2398,-1364,-246,2048,-610,-4059,-122
2399,-1308,-201,2048,-360,-4760,-184
2400,-1225,-137,2048,-184,-5262,-104
2401,-1119,-115,2048,-6,-5717,13
2402,-1051,-71,2048,287,-6049,103
2403,-971,-5,1994,560,-6225,175
2404,-946,23,1817,638,-6372,318
2405,-890,60,1674,669,-6454,503
2406,-836,69,1550,669,-6592,734
2407,-782,56,1404,720,-6829,988
2408,-780,63,1291,1074,-7129,1255
2409,-787,29,1175,1445,-7393,1554
2410,-797,-85,1121,1587,-7497,1644
2411,-762,-140,1049,1167,-7577,1519
2412,-721,-130,948,220,-7752,1294
2413,-682,-74,794,-497,-7899,1179
2414,-574,-93,634,-766,-8006,1212
2415,-540,-86,446,-491,-8034,1238
2416,-506,-127,264,179,-7911,1193
2417,-444,-159,112,554,-7440,1111
2418,-379,-152,16,462,-6756,988
2419,-287,-195,-68,144,-6071,875
2420,-174,-209,-145,-118,-5573,660
2421,-41,-153,-213,-118,-5264,357
2422,45,-109,-307,46,-4993,171
2423,160,-85,-375,316,-4704,99
2424,267,-52,-436,388,-4422,37
2425,328,2,-502,355,-4245,-36
2426,395,45,-608,255,-4028,1
2427,460,48,-690,123,-3668,76
2428,536,41,-757,56,-3086,29
2429,555,60,-755,-75,-2381,-81
2430,592,85,-737,-151,-1680,-186
2431,596,121,-718,-200,-1047,-241
2432,637,158,-683,-188,-536,-260
2433,677,189,-667,-167,-112,-241
2434,683,223,-636,-159,201,-83
2435,724,221,-625,-110,480,142
2436,763,200,-618,-53,728,361
2437,733,176,-628,72,953,464
2438,663,145,-629,115,1261,482
2439,604,142,-625,-38,1757,464
2440,537,143,-617,-344,2281,451
2441,490,141,-589,-596,2806,416
2442,423,186,-559,-700,3304,392
2443,353,206,-517,-684,3730,468
2444,262,186,-479,-532,4072,632
2445,205,106,-424,-325,4343,765
2446,164,30,-389,-338,4496,796
2447,56,-26,-396,-545,4552,724
2448,-19,-73,-429,-573,4757,621
2449,-137,-75,-446,-426,5113,597
2450,-165,26,-401,-4,5669,589
2451,-238,97,-378,656,6226,597
2452,-289,122,-252,1175,6814,667
2453,-331,160,-111,1238,7464,808
2454,-348,115,66,1023,7880,958
2455,-502,170,246,832,8189,1029
2456,-633,237,499,726,8417,1279
2457,-762,243,772,1273,8578,1796
2458,-841,79,1129,2365,8626,2076
2459,-928,-22,1589,2996,8757,1787
2460,-980,-10,1983,2410,8876,1140
2461,-1107,82,2048,878,8755,914
2462,-1158,6,2048,-618,8193,1271
2463,-1192,-121,2048,-1235,7207,1492
2464,-1227,-240,2048,-1366,5873,1462
2465,-1217,-341,2048,-1254,4607,1378
2466,-1166,-440,2048,-1290,3544,1214
2467,-1115,-485,2048,-1596,2755,892
2468,-1022,-445,2048,-1864,2238,490
2469,-924,-353,2048,-2008,1716,181
2470,-879,-270,2048,-1856,1105,46
2471,-837,-213,2048,-1508,570,33
2472,-774,-219,1969,-1110,212,140
2473,-692,-217,1895,-772,-30,193
2474,-637,-193,1830,-491,-266,257
2475,-607,-215,1753,-256,-528,310
2476,-616,-226,1667,-213,-752,210
2477,-601,-204,1546,-459,-874,121
2478,-544,-211,1443,-784,-963,23
2479,-492,-198,1339,-874,-1022,-43
2480,-429,-213,1236,-700,-993,-86
2481,-389,-201,1160,-430,-893,-198
2482,-363,-199,1135,-227,-696,-338
2483,-355,-176,1159,-125,-475,-428
2484,-308,-138,1185,-172,-377,-413
2485,-305,-113,1178,-6,-583,-422
2486,-299,-74,1147,263,-879,-409
2487,-295,-81,1062,458,-1213,-360
2488,-272,-49,992,451,-1458,-258
2489,-259,-69,913,390,-1510,-209
2490,-260,-35,856,355,-1338,-249
2491,-227,-19,826,304,-1006,-338
2492,-234,16,859,294,-698,-362
2493,-239,66,920,255,-407,-247
2494,-193,32,975,105,-254,-90
2495,-204,33,987,-53,-356,-63
2496,-209,31,960,-178,-495,-26
2497,-210,20,957,-157,-649,-4
2498,-258,4,896,-73,-725,-26
2499,-266,-6,855,-81,-586,-73
2500,-264,3,842,-276,-215,-98
2501,-252,4,872,-620,179,-57
2502,-205,-13,885,-819,398,48
2503,-207,-8,872,-684,457,121
2504,-227,-28,888,-504,480,222
2505,-227,-44,914,-358,517,326
2506,-230,-46,980,-42,441,314
2507,-265,-34,1011,242,292,253
2508,-290,-58,1019,332,154,236
2509,-293,-105,1019,179,60,173
2510,-307,-110,1003,-71,15,56
2511,-290,-86,975,-264,11,27
2512,-287,-59,974,-252,33,52
2513,-268,-81,975,-157,25,76
2514,-248,-82,967,-151,-2,74
2515,-241,-73,964,-168,-42,80
2516,-239,-65,966,-67,-59,74
2517,-247,-51,957,50,-24,82
2518,-230,-54,951,56,29,97
2519,-230,-81,956,11,44,64
2520,-253,-66,966,-61,54,37
2521,-256,-61,983,-79,107,52
2522,-261,-61,1006,-49,148,95
2523,-263,-89,988,42,103,128
2524,-281,-111,988,121,27,119
2525,-287,-112,980,113,13,72
2526,-282,-107,988,39,64,11
2527,-276,-94,996,-12,80,1
2528,-281,-106,1008,-71,70,-10
2529,-266,-111,999,-143,62,-38
2530,-251,-121,972,-184,19,-57
2531,-256,-120,975,-108,-24,-75
2532,-262,-106,984,89,-38,-79
2533,-270,-90,986,261,-26,-77
2534,-277,-119,985,240,54,-83
2535,-278,-124,1016,103,128,-102
2536,-279,-99,1014,-22,166,-125
2537,-280,-112,1009,-122,144,-92
2538,-279,-123,1019,-155,101,-98
2539,-272,-126,1029,-161,31,-165
2540,-261,-113,1029,-170,-79,-219
2541,-270,-105,990,-75,-188,-241
2542,-274,-123,954,41,-247,-258
2543,-271,-121,924,101,-190,-313
2544,-285,-96,940,126,-59,-360
2545,-270,-67,961,27,74,-317
2546,-251,-65,1013,-45,123,-268
2547,-253,-56,1016,-77,78,-233
2548,-255,-83,1003,-81,-18,-188
2549,-276,-110,978,-67,-84,-176
2550,-266,-119,960,-57,-118,-221
2551,-276,-127,957,-36,-125,-311
2552,-280,-114,945,-4,-73,-381
2553,-273,-108,931,0,13,-409
2554,-266,-100,986,-16,83,-417
2555,-276,-82,1003,3,103,-415
2556,-255,-61,1039,44,78,-338
2557,-255,-84,1038,132,-42,-280
2558,-266,-93,1022,134,-180,-258
2559,-265,-109,1019,56,-241,-282
2560,-267,-114,1009,-83,-280,-327
2561,-264,-121,961,-122,-284,-403
2562,-275,-107,952,-42,-235,-475
2563,-284,-93,955,19,-127,-499
2564,-278,-86,986,-4,-8,-512
2565,-266,-61,993,-125,89,-512
2566,-256,-36,1034,-233,83,-456
2567,-234,-50,1022,-223,-8,-387
2568,-239,-82,979,-155,-131,-329
2569,-242,-112,942,-67,-235,-346
2570,-251,-112,931,3,-243,-413
2571,-253,-96,919,78,-186,-497
2572,-244,-92,924,128,-57,-549
2573,-254,-84,941,97,68,-569
2574,-242,-65,955,85,125,-561
2575,-249,-40,999,156,125,-514
2576,-235,-40,1008,207,54,-405
2577,-239,-46,1023,248,-38,-366
2578,-245,-56,1006,212,-127,-374
2579,-239,-69,984,136,-170,-375
2580,-243,-56,981,109,-182,-401
2581,-259,-62,948,117,-151,-426
2582,-244,-81,943,85,-79,-440
2583,-264,-64,952,42,-16,-467
2584,-248,-51,967,35,42,-446
2585,-225,-43,981,70,60,-399
2586,-238,-52,1001,95,33,-358
2587,-241,-50,1001,78,21,-340
2588,-242,-51,1016,-12,21,-344
2589,-240,-66,996,-125,-26,-338
2590,-247,-82,978,-135,-75,-362
2591,-251,-81,961,-122,-51,-381
2592,-253,-89,974,-92,-18,-364
2593,-251,-108,963,-28,3,-370
2594,-253,-96,965,62,-4,-391
2595,-249,-83,960,119,9,-389
2596,-249,-82,967,128,29,-377
2597,-232,-76,976,33,42,-374
2598,-245,-85,987,-75,44,-387
2599,-253,-89,996,-135,35,-418
2600,-242,-95,989,-172,19,-426
2601,-250,-100,973,-127,-8,-422
2602,-254,-87,972,-42,0,-428
2603,-255,-91,978,44,39,-440
2604,-238,-73,985,87,89,-440
2605,-249,-60,995,68,93,-422
2606,-255,-54,1012,9,72,-370
2607,-240,-67,983,-47,33,-309
2608,-234,-110,983,-81,5,-284
2609,-247,-119,963,-110,-18,-331
2610,-248,-118,965,-84,-43,-409
2611,-259,-108,933,-2,-8,-477
2612,-254,-86,945,78,58,-522
2613,-253,-80,967,103,146,-512
2614,-237,-64,991,78,201,-485
2615,-244,-59,1023,42,167,-446
2616,-248,-66,1018,-18,91,-385
2617,-249,-77,1019,-83,33,-377
2618,-274,-99,958,-209,-6,-383
2619,-256,-104,962,-241,3,-391
2620,-274,-118,955,-170,3,-442
2621,-270,-129,942,-42,1,-510
2622,-279,-117,956,76,56,-542
2623,-258,-115,972,70,128,-543
2624,-254,-103,981,7,150,-567
2625,-251,-74,1016,1,119,-575
2626,-245,-67,1012,25,52,-534
2627,-239,-89,974,42,-12,-500
2628,-238,-84,991,5,-45,-504
2629,-246,-94,976,-83,-45,-497
2630,-240,-111,970,-124,-22,-522
2631,-254,-101,948,-112,13,-551
2632,-250,-111,954,-127,80,-551
2633,-248,-108,966,-104,128,-538
2634,-251,-85,982,-22,144,-540
2635,-244,-94,982,48,80,-504
2636,-235,-93,976,95,29,-491
2637,-235,-87,958,82,9,-532
2638,-242,-93,954,-59,41,-524
2639,-238,-98,954,-174,85,-534
2640,-241,-100,931,-167,148,-542
2641,-240,-103,922,-94,208,-540
2642,-268,-110,932,-59,259,-526
2643,-244,-119,961,3,322,-502
2644,-250,-103,989,107,322,-497
2645,-261,-92,996,193,283,-487
2646,-260,-106,1015,173,210,-485
2647,-262,-99,1019,89,142,-516
2648,-274,-90,1008,-43,93,-543
2649,-283,-101,974,-108,68,-563
2650,-290,-104,978,-131,62,-590
2651,-288,-107,954,-172,113,-614
2652,-288,-98,948,-190,156,-618
2653,-271,-85,957,-88,171,-592
2654,-272,-95,964,64,142,-549
2655,-274,-93,966,142,109,-538
2656,-276,-95,954,107,99,-534
2657,-274,-92,956,50,103,-538
2658,-272,-95,977,0,136,-559
2659,-265,-104,980,-49,162,-573
2660,-268,-103,969,-16,166,-600
2661,-267,-94,982,37,171,-584
2662,-271,-96,985,171,177,-569
2663,-288,-106,993,228,185,-555
2664,-280,-85,995,240,175,-536
2665,-272,-76,1001,279,136,-512
2666,-285,-74,998,289,107,-465
2667,-271,-81,1005,214,52,-473
2668,-278,-87,975,64,9,-497
2669,-281,-91,961,-57,11,-536
2670,-274,-90,959,-45,25,-588
2671,-278,-81,955,33,80,-624
2672,-280,-61,971,103,97,-602
2673,-265,-69,978,181,115,-563
2674,-269,-62,995,218,93,-536
2675,-273,-66,993,214,85,-502
2676,-270,-65,978,210,97,-477
2677,-272,-70,1002,228,82,-459
2678,-285,-60,1002,232,89,-477
2679,-279,-80,1027,138,125,-467
2680,-271,-92,1019,27,107,-481
2681,-281,-82,1017,13,66,-506
2682,-289,-93,1019,60,39,-512
2683,-298,-77,1005,166,-22,-516
2684,-293,-76,993,263,-51,-469
2685,-275,-108,983,294,-45,-434
2686,-275,-115,978,238,-22,-463
2687,-281,-83,986,181,1,-516
2688,-268,-68,973,138,37,-514
2689,-263,-77,994,87,50,-512
2690,-273,-60,992,39,48,-510
2691,-257,-63,977,7,54,-499
2692,-258,-71,986,78,9,-481
2693,-278,-80,975,208,-24,-465
2694,-272,-77,983,261,-24,-446
2695,-287,-84,984,201,-36,-452
2696,-296,-72,977,132,-42,-479
2697,-293,-67,969,41,-36,-500
2698,-309,-55,965,-18,-51,-522
2699,-297,-35,974,-67,-8,-555
2700,-296,-44,980,-182,31,-557
2701,-271,-63,973,-229,-16,-526
2702,-273,-74,948,-131,-69,-524
2703,-256,-61,934,-24,-102,-477
2704,-241,-73,928,148,-92,-438
2705,-236,-91,937,298,-75,-401
2706,-242,-85,956,330,-28,-409
2707,-245,-79,977,314,39,-383
2708,-254,-76,1016,300,80,-358
2709,-269,-79,1032,318,125,-354
2710,-267,-85,1035,285,121,-323
2711,-267,-92,1051,261,107,-321
2712,-271,-110,1032,152,64,-344
2713,-282,-89,1011,89,-6,-391
2714,-268,-94,1028,50,-65,-391
2715,-275,-86,1012,72,-127,-391
2716,-269,-93,1006,95,-145,-397
2717,-281,-103,980,89,-124,-401
2718,-274,-102,985,64,-77,-420
2719,-289,-93,1000,11,-6,-454
2720,-278,-69,1017,25,-20,-446
2721,-285,-81,1013,126,-96,-450
2722,-295,-83,1003,87,-153,-444
2723,-284,-53,993,35,-163,-444
2724,-272,-34,985,-2,-139,-403
2725,-265,-41,985,-16,-172,-366
2726,-269,-30,973,-43,-223,-331
2727,-247,-34,953,-45,-188,-313
2728,-245,-34,938,-24,-139,-315
2729,-246,-39,930,33,-114,-348
2730,-241,-41,939,117,-75,-362
2731,-238,-29,947,191,-49,-346
2732,-244,-24,973,212,-43,-354
2733,-232,7,973,148,-12,-319
2734,-241,25,988,107,-8,-284
2735,-221,27,1002,25,-42,-192
2736,-222,3,976,-47,-100,-172
2737,-234,5,919,-135,-118,-147
2738,-225,-34,909,-153,-55,-114
2739,-231,-43,919,-90,-2,-100
2740,-248,-40,935,70,42,-120
2741,-250,-61,946,193,72,-122
2742,-247,-66,953,236,87,-133
2743,-244,-43,988,173,93,-168
2744,-238,-29,1001,31,78,-153
2745,-227,-14,999,-69,0,-98
2746,-230,-40,993,9,-116,-71
2747,-250,-41,953,91,-139,-40
2748,-249,-67,929,93,-79,-12
2749,-252,-99,926,72,-22,-28
2750,-262,-76,930,74,58,-98
2751,-272,-74,947,64,138,-137
2752,-264,-74,960,82,185,-135
2753,-256,-51,984,121,167,-127
2754,-252,-31,996,179,117,-88
2755,-242,-46,1010,189,42,-20
2756,-249,-64,976,191,-16,-8
2757,-249,-65,954,152,-36,-24
2758,-251,-62,966,66,11,-42
2759,-248,-66,962,1,60,-51
2760,-261,-68,962,1,107,-57
2761,-258,-76,951,39,132,-73
2762,-259,-68,961,107,160,-77
2763,-267,-63,984,103,218,-94
2764,-246,-41,1017,35,240,-67
2765,-245,-53,1034,3,189,-47
2766,-257,-64,1010,-10,91,-30
2767,-260,-67,1007,-36,37,-18
2768,-259,-76,1008,-53,7,-32
2769,-262,-76,994,-77,0,-42
2770,-256,-86,967,-100,11,-61
2771,-254,-87,974,-83,19,-98
2772,-272,-79,975,-43,46,-133
2773,-275,-42,983,-2,91,-129
2774,-255,-51,998,42,130,-43
2775,-271,-68,999,107,95,-32
2776,-285,-60,1019,64,78,-43
2777,-272,-76,1002,-36,70,-34
2778,-276,-71,1015,-49,42,-45
2779,-279,-79,1018,-34,41,-49
2780,-276,-84,1003,-49,52,-79
2781,-288,-77,1000,-96,58,-118
2782,-281,-64,1002,-86,46,-147
2783,-288,-63,1002,-55,23,-141
2784,-255,-70,982,-42,31,-143
2785,-247,-57,984,-61,25,-151
2786,-256,-37,1007,-61,13,-149
2787,-249,-22,994,-43,-2,-104
2788,-246,-41,1012,-10,-45,-73
2789,-246,-35,983,-12,-77,-61
2790,-250,-39,962,-67,-71,-63
2791,-258,-55,950,-108,-61,-53
2792,-264,-54,956,-118,-36,-61
2793,-264,-50,953,-104,27,-42
2794,-264,-53,976,0,72,-34
2795,-273,-55,984,60,68,-28
2796,-265,-56,991,29,46,-45
2797,-282,-37,978,-10,19,-59
2798,-272,-34,979,-40,-6,-40
2799,-272,-40,963,-63,-26,-40
2800,-278,-32,971,-108,-12,-22
2801,-274,-41,949,-120,0,0
2802,-265,-55,953,-120,0,-10
2803,-273,-64,941,-141,0,-24
2804,-269,-26,959,-79,41,-20
2805,-262,-29,952,-49,64,46
2806,-252,-46,965,-10,31,89
2807,-247,-66,980,9,17,85
2808,-257,-58,969,35,35,42
2809,-259,-41,973,5,48,3
2810,-251,-36,994,-18,54,9
2811,-270,-46,1001,-32,41,-6
2812,-272,-43,985,-73,31,-24
2813,-261,-60,986,-157,33,-22
2814,-260,-57,975,-182,21,-16
2815,-263,-36,975,-137,3,23
2816,-261,-62,978,-32,-8,66
2817,-263,-55,969,95,-12,80
2818,-267,-65,972,136,0,76
2819,-256,-69,981,80,13,85
2820,-267,-64,1008,9,11,64
2821,-258,-55,994,-47,0,42
2822,-260,-70,978,-129,-8,29
2823,-261,-69,988,-184,7,7
2824,-261,-67,981,-163,35,7
2825,-283,-59,980,-57,58,25
2826,-273,-75,993,85,80,70
2827,-275,-67,1016,167,56,80
2828,-279,-57,1013,164,3,70
2829,-273,-62,1008,113,-28,58
2830,-288,-63,996,23,-63,37
2831,-282,-75,990,-92,-94,5
2832,-285,-92,967,-161,-104,-42
2833,-277,-77,958,-194,-75,-86
2834,-275,-72,950,-219,-16,-102
2835,-272,-57,974,-145,35,-90
2836,-268,-49,968,-20,41,-67
2837,-267,-51,978,70,31,-49
2838,-272,-52,1003,42,-22,-6
2839,-251,-67,992,9,-57,-12
2840,-265,-70,973,-57,-83,-63
2841,-257,-69,985,-206,-63,-98
2842,-261,-60,977,-327,-36,-120
2843,-272,-47,975,-354,-30,-127
2844,-257,-46,953,-284,-34,-96
2845,-255,-55,948,-167,-45,-36
2846,-268,-69,950,-42,-40,-6
2847,-265,-68,959,46,17,17
2848,-264,-65,991,52,64,31
2849,-264,-74,998,17,72,27
2850,-262,-76,1007,-81,33,-12
2851,-257,-72,998,-192,-24,-43
2852,-257,-60,978,-225,-53,-63
2853,-257,-71,980,-180,-30,-57
2854,-265,-68,965,-155,-24,-51
2855,-271,-70,965,-65,0,-63
2856,-276,-57,974,-14,31,-47
2857,-274,-46,996,0,74,-20
2858,-277,-54,994,0,70,25
2859,-281,-63,1015,3,7,44
2860,-271,-80,990,-18,-47,33
2861,-268,-85,990,-55,-81,1
2862,-275,-76,981,-92,-65,-14
2863,-267,-66,985,-147,-47,-38
2864,-273,-60,996,-161,-16,-53
2865,-271,-44,985,-184,-8,-61
2866,-259,-55,1002,-213,23,-42
2867,-259,-62,986,-225,7,-6
2868,-258,-75,963,-190,-45,9
2869,-259,-88,959,-131,-86,9
2870,-258,-52,971,-63,-108,25
2871,-288,-86,973,-51,-100,0
2872,-279,-83,981,-73,-84,5
2873,-287,-80,959,-55,-77,-32
2874,-264,-66,989,7,-12,-51
2875,-230,-69,993,9,46,-43
2876,-242,-59,1012,-38,-20,-61
2877,-242,-51,1000,-61,-94,-61
2878,-246,-54,977,-71,-170,-51
2879,-268,-51,971,-67,-200,-47
2880,-244,-67,954,-94,-182,-22
2881,-260,-85,921,-86,-165,-55
2882,-267,-76,918,-98,-81,-86
2883,-268,-73,930,-127,35,-106
2884,-275,-49,966,-139,128,-88
2885,-263,-53,1008,-120,140,-57
2886,-256,-66,996,-90,85,-57
2887,-255,-60,987,-45,21,-43
2888,-248,-52,1004,0,-12,-6
2889,-234,-64,977,62,-40,3
2890,-245,-64,978,83,-53,11
2891,-247,-76,1001,41,-30,7
2892,-263,-87,991,-45,7,-16
2893,-277,-95,987,-151,52,-67
2894,-277,-75,1002,-217,85,-88
2895,-270,-75,1013,-190,78,-88
2896,-267,-48,1022,-98,31,-55
2897,-263,-57,1020,5,-49,5
2898,-264,-69,1016,95,-139,17
2899,-278,-60,993,83,-186,21
2900,-278,-71,1000,-8,-163,17
2901,-285,-74,986,-112,-116,0
2902,-279,-68,984,-178,-47,-38
2903,-273,-63,977,-250,7,-49
2904,-267,-51,989,-241,23,-43
2905,-262,-54,991,-127,7,-14
2906,-270,-66,1001,-26,-43,21
2907,-262,-76,1000,13,-79,31
2908,-262,-59,993,-10,-100,25
2909,-276,-70,984,-65,-118,27
2910,-281,-67,990,-83,-100,31
2911,-273,-62,989,-104,-81,42
2912,-272,-85,983,-131,-77,-14
2913,-282,-71,985,-168,-28,-22
2914,-253,-71,1003,-229,-28,-32
2915,-309,-78,966,-159,-112,-45
2916,-270,-57,979,-112,-129,5
2917,-255,-75,919,-43,-81,-26
2918,-271,-71,955,7,-157,7
2919,-255,-64,939,19,-94,-12
2920,-255,-48,944,-2,-20,9
2921,-247,-54,969,-47,7,44
2922,-241,-49,960,-83,31,25
2923,-246,-37,975,-100,42,29
2924,-240,-47,992,-86,46,48
2925,-244,-48,994,-81,29,50
2926,-252,-53,998,-61,0,50
2927,-251,-63,986,-55,-30,85
2928,-254,-74,979,-8,-34,85
2929,-251,-60,973,11,-10,82
2930,-254,-60,986,-10,23,89
2931,-265,-53,991,-24,72,113
2932,-262,-65,992,-16,91,177
2933,-249,-86,978,23,74,132
2934,-248,-72,996,27,0,132
2935,-241,-81,986,15,-34,91
2936,-271,-73,963,-81,-22,42
2937,-268,-75,966,-178,-28,21
2938,-249,-68,980,-225,52,27
2939,-261,-74,974,-178,66,39
2940,-249,-78,967,-151,62,33
2941,-250,-66,979,-125,72,46
2942,-268,-75,977,-84,101,87
2943,-265,-58,997,-28,128,128
2944,-261,-78,991,-14,113,177
2945,-264,-94,1014,-12,54,146
2946,-276,-91,989,-61,-6,93