sequence,AccelerometerX,AccelerometerY,AccelerometerZ,GyroscopeX,GyroscopeY,GyroscopeZ
0,-206,-26,970,67,30,17
1,-200,-36,991,46,52,21
2,-198,-24,1002,20,32,9
3,-205,-20,994,-11,-22,11
4,-164,33,1026,-15,-67,21
5,-213,-16,1015,3,-122,35
6,-213,-21,992,10,-122,46
7,-213,-29,970,3,-79,60
8,-203,-45,979,-11,-40,50
9,-207,-43,981,-21,-24,42
10,-210,-43,969,-1,3,37
11,-203,-42,996,18,17,35
12,-199,-33,991,40,-1,27
13,-207,-35,1004,49,-24,39
14,-210,-24,988,57,-32,64
15,-207,-38,990,53,-32,68
16,-213,-46,991,14,-36,54
17,-200,-58,1000,-50,-34,33
18,-197,-36,989,-122,-30,-24
19,-199,-42,968,-154,-22,-49
20,-205,-35,981,-132,9,-26
21,-204,-34,974,-40,34,1
22,-191,-46,983,44,48,23
23,-197,-50,995,69,36,23
24,-209,-51,1009,34,25,-1
25,-212,-35,999,-44,36,-22
26,-210,-33,1003,-79,48,-28
27,-200,-42,999,-52,15,-32
28,-198,-44,984,-17,-32,-32
29,-208,-37,997,-17,-46,-34
30,-200,-51,984,-44,-16,-42
31,-195,-38,965,-85,19,-38
32,-206,-29,983,-85,58,-32
33,-207,-33,1011,-19,64,-10
34,-207,-42,1012,61,36,7
35,-208,-40,1001,81,7,-14
36,-200,-55,1005,36,5,-38
37,-214,-51,991,-31,34,-53
38,-209,-33,993,-91,71,-69
39,-197,-23,1007,-111,89,-42
40,-198,-27,987,-72,54,-28
41,-206,-32,994,-52,-9,-14
42,-202,-41,991,-40,-26,-10
43,-205,-40,981,-38,-9,3
44,-199,-54,988,-64,17,-1
45,-206,-48,972,-62,54,-30
46,-207,-49,985,-31,89,-36
47,-202,-53,986,-11,95,-22
48,-214,-46,1001,-3,101,-28
49,-209,-67,1013,-15,120,-18
50,-216,-66,1005,-56,112,-42
51,-210,-64,1024,-58,85,-61
52,-210,-66,1005,-76,52,-73
53,-220,-61,1012,-66,26,-83
54,-217,-55,1005,-66,46,-94
55,-209,-58,988,-72,67,-98
56,-211,-45,998,-70,50,-126
57,-204,-46,992,-115,32,-139
58,-205,-42,983,-159,40,-129
59,-202,-47,986,-173,42,-116
60,-206,-44,984,-150,25,-116
61,-199,-40,987,-122,-5,-106
62,-204,-43,990,-77,-11,-67
63,-217,-34,985,-13,-3,-26
64,-213,-36,999,67,26,7
65,-215,-45,998,118,52,21
66,-218,-62,978,85,52,9
67,-217,-48,989,16,64,-10
68,-215,-56,995,-38,77,-28
69,-215,-57,998,-44,71,-45
70,-216,-40,1024,-33,52,-34
71,-211,-46,1003,18,40,-4
72,-218,-44,1015,49,15,-8
73,-216,-47,1002,44,9,-14
74,-216,-43,989,34,32,-14
75,-230,-51,992,38,34,-18
76,-215,-50,1003,49,26,-8
77,-211,-45,1003,61,-5,-14
78,-217,-55,1001,42,-32,-1
79,-224,-62,998,1,-38,-14
80,-225,-55,991,-48,-32,-30
81,-220,-57,978,-91,-16,-36
82,-224,-61,979,-70,13,-47
83,-212,-54,954,-11,60,-63
84,-212,-46,988,42,97,-57
85,-216,-40,984,73,130,-32
86,-220,-36,996,116,142,-20
87,-210,-39,1010,137,103,-10
88,-199,-50,1023,106,15,-18
89,-210,-41,1011,10,-73,-8
90,-226,-55,992,-58,-100,-45
91,-230,-52,991,-126,-59,-40
92,-220,-61,952,-134,34,-38
93,-210,-63,980,-89,103,-47
94,-215,-64,986,-31,132,-42
95,-216,-55,989,-1,142,-42
96,-210,-45,1008,32,144,-34
97,-204,-50,1025,40,81,-24
98,-211,-59,1021,5,-38,-34
99,-213,-63,1014,-58,-138,-47
100,-227,-60,995,-136,-179,-63
101,-230,-64,972,-193,-157,-71
102,-230,-79,963,-191,-69,-73
103,-229,-68,943,-142,28,-69
104,-228,-61,967,-74,116,-55
105,-221,-61,987,-25,175,-44
106,-220,-58,1008,16,179,-20
107,-220,-73,1031,53,134,-16
108,-222,-65,1027,40,79,-1
109,-215,-84,1030,-1,11,11
110,-211,-71,1012,-50,-63,-28
111,-224,-71,974,-77,-87,-69
112,-220,-67,985,-91,-32,-98
113,-216,-72,970,-95,36,-141
114,-223,-51,963,-89,101,-170
115,-218,-41,971,-42,150,-143
116,-222,-25,993,32,177,-100
117,-206,-42,1015,81,155,-79
118,-212,-56,999,71,73,-88
119,-219,-47,1005,-17,-13,-94
120,-217,-47,975,-115,-54,-112
121,-215,-48,968,-199,-73,-131
122,-224,-53,948,-263,-61,-149
123,-213,-58,923,-286,-20,-167
124,-220,-57,925,-318,56,-186
125,-215,-59,921,-306,159,-192
126,-204,-45,926,-271,232,-196
127,-201,-48,955,-222,267,-176
128,-202,-34,965,-173,286,-159
129,-202,-41,987,-175,292,-151
130,-216,-36,1009,-255,278,-128
131,-232,-61,1007,-357,267,-122
132,-224,-84,1021,-445,269,-165
133,-236,-99,1032,-519,249,-182
134,-237,-93,1064,-554,224,-215
135,-247,-93,1067,-585,228,-235
136,-264,-68,1098,-536,282,-258
137,-273,-71,1187,-421,317,-266
138,-254,-87,1255,-353,300,-266
139,-255,-79,1300,-368,155,-272
140,-300,-28,1380,-347,40,-221
141,-315,-10,1476,-144,-36,-38
142,-321,-2,1545,337,-179,164
143,-357,-16,1620,768,-390,331
144,-377,-23,1676,999,-593,433
145,-414,-49,1726,1040,-831,478
146,-424,-80,1756,821,-1140,478
147,-446,-73,1764,487,-1491,400
148,-463,-71,1761,194,-1817,349
149,-477,-62,1750,-33,-2079,347
150,-480,-62,1715,-152,-2337,425
151,-465,-79,1683,-154,-2649,525
152,-454,-62,1650,38,-3005,599
153,-439,-76,1620,522,-3345,767
154,-465,-63,1566,1190,-3632,1017
155,-436,-158,1534,1643,-3856,1115
156,-440,-181,1462,1507,-3919,1070
157,-416,-198,1443,1083,-3958,892
158,-386,-165,1391,608,-3975,712
159,-370,-119,1342,376,-4083,638
160,-349,-93,1324,415,-4222,628
161,-324,-71,1273,633,-4354,593
162,-290,-92,1236,940,-4579,652
163,-258,-105,1175,1147,-4903,703
164,-220,-98,1129,1079,-5218,705
165,-205,-84,1028,856,-5489,673
166,-142,-92,930,628,-5632,679
167,-103,-79,840,475,-5686,622
168,-44,-75,741,534,-5702,568
169,-11,-50,647,639,-5638,533
170,56,-37,564,792,-5483,554
171,95,-11,476,940,-5202,554
172,125,-8,435,1180,-4876,556
173,195,5,394,1298,-4495,556
174,241,55,391,1278,-4157,564
175,296,64,371,1167,-3933,679
176,323,64,339,1063,-3794,800
177,375,59,299,1085,-3683,839
178,396,44,257,1114,-3540,790
179,399,22,203,1091,-3321,706
180,461,35,174,956,-2940,558
181,453,65,160,821,-2495,408
182,498,73,138,604,-2036,339
183,524,73,120,323,-1638,224
184,553,108,143,92,-1323,115
185,555,130,134,-77,-1085,150
186,580,137,138,-128,-946,228
187,601,139,110,89,-874,236
188,626,138,79,284,-860,261
189,619,160,33,444,-821,296
190,606,168,6,620,-700,283
191,614,164,-29,731,-399,275
192,611,147,-51,712,-7,220
193,611,156,-51,528,370,152
194,588,175,-44,348,753,93
195,582,177,-29,282,1089,124
196,591,188,10,258,1362,173
197,585,214,64,245,1607,326
198,567,186,114,339,1792,554
199,534,172,149,450,1923,630
200,496,185,184,596,2050,648
201,425,174,210,538,2187,701
202,381,140,199,274,2294,738
203,329,111,201,-34,2437,660
204,408,111,227,-300,2819,533
205,441,136,262,-574,3310,494
206,378,172,347,-659,3624,556
207,338,216,394,-421,3835,669
208,286,226,441,-126,3866,828
209,204,212,508,-72,3734,982
210,156,274,546,-101,3651,1185
211,163,202,574,231,3716,1447
212,195,90,633,602,3894,1683
213,138,3,664,657,4112,1660
214,38,-75,666,307,4388,1480
215,-17,-106,702,-345,4626,1220
216,-126,-66,754,-806,4773,869
217,-220,9,887,-876,4817,581
218,-184,91,1047,-486,4995,546
219,-50,72,1160,-15,5118,882
220,-82,1,1258,342,4819,1175
221,-163,-75,1319,493,4458,1331
222,-235,-141,1410,346,4249,1216
223,-233,-171,1522,163,4021,947
224,-265,-167,1610,53,3753,679
225,-314,-161,1676,-124,3546,458
226,-310,-168,1747,-406,3460,382
227,-298,-163,1817,-554,3243,371
228,-300,-179,1851,-611,2796,472
229,-302,-175,1833,-587,2302,529
230,-346,-169,1823,-327,1860,529
231,-324,-246,1756,-138,1624,601
232,-315,-282,1698,-208,1480,529
233,-352,-287,1676,-511,1362,296
234,-338,-250,1594,-915,1319,124
235,-234,-249,1556,-1263,1194,58
236,-215,-129,1507,-1279,1085,29
237,-245,-94,1469,-714,900,197
238,-239,-137,1463,135,769,400
239,-240,-161,1403,639,626,468
240,-237,-214,1320,528,521,455
241,-241,-223,1301,75,521,283
242,-214,-221,1260,-538,550,97
243,-152,-181,1229,-1003,521,-145
244,-161,-77,1213,-1072,396,-294
245,-173,-43,1199,-804,329,-145
246,-166,-44,1192,-222,275,7
247,-166,-60,1195,356,134,97
248,-169,-75,1163,651,11,121
249,-173,-97,1124,491,-36,76
250,-160,-92,1095,8,-48,-53
251,-136,-72,1057,-472,-50,-170
252,-134,-54,1048,-689,-73,-223
253,-149,-25,1028,-587,-65,-227
254,-130,-49,1023,-275,-36,-170
255,-153,-18,1015,104,-9,-94
256,-145,-21,1057,354,-1,-14
257,-138,-10,1070,376,-13,29
258,-135,-43,1052,126,-48,13
259,-136,-50,1033,-228,-126,-83
260,-139,-35,1000,-562,-183,-143
261,-139,-33,988,-732,-184,-137
262,-142,-7,958,-587,-128,-88
263,-115,-6,956,-232,-77,15
264,-150,-15,981,192,-22,103
265,-143,-46,981,450,48,156
266,-131,-54,1008,374,112,210
267,-134,-64,1028,188,122,179
268,-134,-56,1024,26,83,124
269,-129,-48,1036,-111,32,85
270,-144,-35,1041,-181,-26,35
271,-137,-31,1036,-124,-50,58
272,-138,-45,1016,-5,-83,74
273,-141,-43,1006,128,-128,107
274,-142,-51,986,217,-118,124
275,-134,-46,1003,329,-73,140
276,-134,-44,1000,448,-46,130
277,-128,-23,993,444,-11,85
278,-128,-22,996,352,9,89
279,-131,-32,988,301,-11,72
280,-134,-22,992,264,-36,60
281,-120,-27,1002,216,-52,23
282,-120,-13,1006,114,-42,7
283,-118,12,1003,7,9,87
284,-118,3,1030,-27,32,179
285,-118,-5,1028,75,13,201
286,-126,-9,1030,217,-46,210
287,-127,-38,1025,301,-81,175
288,-129,-30,1018,282,-77,107
289,-120,-31,1015,217,-52,56
290,-113,-37,998,110,-30,5
291,-138,-33,999,16,3,-69
292,-128,-11,1007,-40,60,-124
293,-124,1,1036,-95,79,-139
294,-122,10,1031,-72,30,-120
295,-119,15,1033,48,-34,-34
296,-115,-12,989,190,-114,39
297,-140,-21,1011,268,-165,56
298,-132,-23,991,229,-147,42
299,-135,-13,989,100,-108,21
300,-144,-8,983,-23,-52,-36
301,-121,-8,982,-99,3,-110
302,-110,7,986,-187,11,-120
303,-110,17,981,-247,15,-137
304,-114,24,986,-204,28,-116
305,-130,18,994,-60,17,-55
306,-128,5,998,49,26,15
307,-129,-36,994,44,34,48
308,-137,-42,992,-52,30,-26
309,-146,-29,993,-163,75,-28
310,-115,-27,1003,-163,118,1
311,-122,-44,986,-60,69,-1
312,-128,-41,964,57,28,5
313,-117,-44,973,161,23,-6
314,-121,-50,949,206,21,-32
315,-112,-44,965,192,50,-98
316,-110,-33,976,102,99,-145
317,-131,-26,996,-83,171,-184
318,-106,-36,1005,-353,214,-167
319,-105,-57,1000,-451,159,-149
320,-140,-55,988,-382,75,-139
321,-132,-65,974,-201,67,-114
322,-144,-56,966,38,103,-110
323,-131,-49,979,257,191,-75
324,-131,-67,998,329,237,-88
325,-134,-53,1014,249,241,-110
326,-127,-67,1021,120,228,-120
327,-142,-60,1020,-1,210,-167
328,-147,-72,1042,-107,183,-176
329,-143,-70,1040,-169,150,-200
330,-154,-59,1041,-146,114,-239
331,-154,-61,1036,-70,97,-237
332,-159,-56,1040,55,75,-219
333,-156,-57,1033,180,38,-208
334,-143,-59,1019,198,28,-204
335,-162,-58,994,161,58,-233
336,-141,-60,1030,106,91,-266
337,-151,-38,1045,26,89,-321
338,-139,-29,1044,-81,67,-307
339,-152,-28,1032,-109,38,-294
340,-154,-26,1009,-46,-18,-280
341,-151,-22,1030,79,-30,-278
342,-151,-19,1035,155,-1,-270
343,-149,-21,1020,188,7,-253
344,-146,-34,1028,174,9,-247
345,-156,-42,1036,135,-3,-262
346,-162,-57,1015,85,21,-301
347,-160,-51,1017,-40,67,-340
348,-155,-34,1032,-195,89,-370
349,-146,2,1060,-228,75,-378
350,-139,0,1043,-126,-9,-325
351,-139,-8,1019,92,-130,-274
352,-156,-48,991,241,-190,-253
353,-144,-64,978,186,-159,-276
354,-154,-42,984,53,-52,-336
355,-154,-41,994,-72,48,-352
356,-145,-18,1003,-72,75,-378
357,-145,-18,1008,-33,56,-368
358,-151,-26,1008,-25,28,-340
359,-142,-30,1015,-40,-3,-315
360,-126,-17,1009,1,-42,-317
361,-145,-18,1006,63,-81,-286
362,-139,-28,1002,147,-99,-253
363,-130,-52,990,214,-81,-237
364,-132,-57,978,208,-58,-268
365,-135,-63,1007,110,-7,-336
366,-134,-47,1000,-85,32,-395
367,-151,-33,1006,-292,34,-465
368,-137,-7,1012,-427,83,-534
369,-108,2,1045,-449,89,-510
370,-142,-3,1021,-292,-28,-454
371,-137,-12,986,-11,-132,-368
372,-136,-14,975,272,-169,-315
373,-137,-34,964,376,-153,-251
374,-141,-39,965,358,-108,-229
375,-145,-32,970,272,-40,-284
376,-144,-37,986,153,34,-350
377,-143,-28,1007,-11,79,-376
378,-138,-13,1008,-136,101,-399
379,-134,-19,1022,-152,69,-385
380,-136,-14,1003,-34,-11,-364
381,-147,-13,1015,130,-52,-327
382,-135,-24,1010,276,-59,-282
383,-143,-31,1010,346,-54,-288
384,-152,-27,1010,258,-9,-327
385,-147,-25,1007,73,71,-358
386,-128,-28,1009,-74,91,-391
387,-136,-21,1005,-132,83,-403
388,-144,-24,1005,-64,81,-362
389,-148,-31,1004,92,62,-305
390,-145,-46,1021,235,26,-280
391,-154,-64,1028,200,34,-321
392,-161,-50,1052,8,85,-360
393,-129,-44,1027,-242,132,-444
394,-129,-22,1040,-452,93,-469
395,-121,2,1021,-406,-1,-444
396,-127,0,1013,-191,-59,-378
397,-122,-11,993,18,-112,-311
398,-136,-14,1008,169,-143,-294
399,-145,-24,983,260,-153,-254
400,-152,-36,993,294,-124,-225
401,-160,-52,982,290,-87,-235
402,-156,-46,992,241,-3,-282
403,-162,-55,1008,110,91,-288
404,-145,-54,1022,8,128,-297
405,-139,-41,1022,-13,101,-313
406,-148,-28,1026,24,28,-364
407,-141,-27,1044,85,-46,-372
408,-159,-9,1037,112,-104,-344
409,-150,2,1028,174,-112,-272
410,-153,-10,1030,225,-118,-247
411,-152,-33,1018,192,-99,-254
412,-149,-36,1026,59,-54,-286
413,-146,-45,1009,-79,-15,-338
414,-140,-29,1008,-167,34,-385
415,-133,-19,1018,-195,42,-385
416,-146,-9,1020,-101,11,-381
417,-145,-8,1036,77,-44,-346
418,-136,-13,1025,258,-116,-309
419,-155,-7,1005,350,-149,-290
420,-142,-29,1002,333,-151,-274
421,-148,-58,984,247,-151,-284
422,-143,-64,966,147,-138,-301
423,-151,-69,953,112,-126,-366
424,-144,-54,964,133,-73,-415
425,-152,-40,966,233,-16,-444
426,-146,-7,1005,382,28,-454
427,-140,-1,1039,485,23,-454
428,-132,1,1044,458,-58,-426
429,-122,8,1031,298,-165,-401
430,-129,-8,985,36,-224,-389
431,-126,-5,960,-187,-212,-417
432,-120,-2,958,-324,-132,-458
433,-125,-7,955,-388,-22,-456
434,-118,9,955,-349,67,-450
435,-127,17,977,-165,122,-432
436,-131,11,1000,63,155,-368
437,-125,1,1027,217,155,-317
438,-123,-1,1039,257,112,-303
439,-128,0,1033,173,66,-294
440,-135,11,1032,32,26,-303
441,-128,-2,1022,-89,3,-292
442,-137,-17,1024,-122,-5,-295
443,-139,-8,1016,-77,-9,-294
444,-145,-23,1016,73,13,-294
445,-137,-16,1025,178,36,-292
446,-133,-8,1029,188,58,-299
447,-131,17,1019,157,38,-301
448,-129,10,1031,102,9,-282
449,-129,1,1019,20,-26,-274
450,-123,0,1010,-103,-32,-266
451,-131,-11,994,-167,-32,-235
452,-134,-21,981,-89,-42,-202
453,-139,-19,991,16,-15,-210
454,-144,-36,987,73,48,-196
455,-136,-36,1004,106,95,-223
456,-141,-31,1026,69,109,-282
457,-131,-26,1041,-40,89,-292
458,-124,-24,1019,-111,19,-294
459,-134,-31,1013,-103,-38,-288
460,-145,-35,1005,-62,-50,-286
461,-132,-29,992,8,-36,-278
462,-121,-24,997,112,-30,-254
463,-144,-8,993,255,-28,-223
464,-138,-13,1018,370,9,-210
465,-130,-28,1023,364,48,-217
466,-120,-35,1013,137,48,-229
467,-125,-24,1011,-130,30,-274
468,-126,-32,996,-273,21,-294
469,-131,-9,995,-197,48,-295
470,-135,-21,992,-48,58,-256
471,-136,-23,1016,145,58,-251
472,-152,-31,1033,260,71,-247
473,-140,-37,1035,200,85,-239
474,-135,-30,1040,87,62,-251
475,-133,-28,1037,-11,-1,-272
476,-131,-30,1029,-48,-40,-309
477,-126,-22,1015,-81,-59,-325
478,-139,-1,1000,-77,-59,-327
479,-132,-7,990,-23,-40,-303
480,-135,-10,987,73,-26,-286
481,-136,-15,980,133,-16,-284
482,-131,-3,992,122,19,-278
483,-132,-23,1008,49,38,-270
484,-136,-17,1012,7,28,-294
485,-145,-12,1002,-48,30,-327
486,-151,-15,1016,-148,69,-346
487,-143,-12,1018,-220,95,-379
488,-134,-5,1025,-261,81,-395
489,-137,18,1023,-224,71,-354
490,-126,10,1013,-142,40,-297
491,-133,-19,991,-21,-9,-239
492,-131,-28,995,98,-40,-241
493,-135,-41,995,128,-46,-264
494,-135,-33,993,42,-13,-290
495,-137,-18,998,-66,40,-311
496,-137,-15,998,-99,71,-309
497,-136,0,1014,-58,62,-294
498,-136,-3,1019,-1,56,-247
499,-128,-23,1016,44,25,-192
500,-143,-32,1001,51,-56,-172
501,-134,-46,984,83,-89,-200
502,-142,-58,971,71,-13,-227
503,-136,-45,974,42,79,-245
504,-140,-41,996,5,142,-268
505,-137,-33,1009,-40,153,-303
506,-145,-23,1016,-74,165,-288
507,-135,-18,1027,-66,132,-251
508,-131,-10,1030,38,85,-178
509,-132,-24,1006,210,17,-145
510,-142,-44,989,319,-15,-135
511,-139,-62,988,264,-1,-163
512,-145,-51,991,120,52,-210
513,-152,-33,1011,-56,107,-280
514,-151,-30,1016,-179,150,-327
515,-143,-23,1020,-212,132,-336
516,-149,-33,1025,-122,50,-329
517,-152,-3,1005,42,13,-305
518,-135,-12,1014,167,13,-251
519,-138,-15,1019,229,-30,-231
520,-147,-24,999,229,-50,-233
521,-144,-24,994,137,-13,-262
522,-152,-18,1001,3,32,-286
523,-141,-22,994,-165,69,-295
524,-145,-38,1011,-228,83,-307
525,-161,-42,999,-181,83,-309
526,-150,-46,1002,-60,81,-309
527,-155,-31,1019,118,71,-301
528,-147,-21,1044,249,71,-274
529,-138,-32,1036,288,48,-258
530,-140,-19,1049,219,13,-245
531,-132,-27,1015,69,-28,-243
532,-146,-37,998,-50,-48,-272
533,-135,-24,996,-132,-5,-288
534,-139,-32,996,-163,54,-288
535,-149,-29,1010,-136,93,-294
536,-134,-24,1028,-74,85,-266
537,-136,-24,1032,40,28,-251
538,-166,-28,1017,73,-24,-245
539,-154,-34,1009,3,7,-245
540,-145,-38,996,-107,52,-253
541,-151,-26,1014,-148,69,-254
542,-156,-40,1014,-97,79,-249
543,-156,-31,1025,12,40,-251
544,-160,-29,1039,114,11,-233
545,-136,-42,1012,155,1,-223
546,-155,-21,1023,143,-26,-243
547,-145,-24,1013,104,-30,-245
548,-137,-26,1016,40,-16,-264
549,-160,-27,1013,-64,-7,-292
550,-149,-18,1010,-181,25,-286
551,-151,-32,1004,-220,36,-290
552,-170,-31,991,-208,3,-305
553,-166,-21,1008,-113,-11,-290
554,-153,-24,1008,36,-16,-260
555,-155,-25,1010,157,-50,-258
556,-138,-32,1000,153,-89,-254
557,-144,-25,984,38,-114,-276
558,-140,-23,976,-105,-95,-297
559,-133,-18,944,-230,-36,-305
560,-149,-17,974,-277,25,-303
561,-143,-19,968,-251,91,-280
562,-148,-25,983,-177,142,-256
563,-152,-20,1007,-81,132,-237
564,-146,-18,1023,-11,107,-176
565,-146,-22,1019,51,52,-149
566,-142,-34,999,130,-3,-137
567,-149,-29,992,118,1,-139
568,-145,-29,988,36,40,-174
569,-144,-9,1003,-77,93,-204
570,-147,-17,1006,-150,120,-196
571,-143,-19,1012,-136,118,-178
572,-156,-8,1013,-83,95,-194
573,-153,-23,1006,-29,73,-194
574,-142,-6,1007,-54,71,-180
575,-143,-12,1014,-87,64,-159
576,-148,-9,1004,-44,32,-135
577,-154,-20,999,24,5,-116
578,-159,-31,1002,22,3,-108
579,-147,-53,974,-36,11,-112
580,-146,-66,975,-113,40,-133
581,-156,-88,970,-210,77,-145
582,-174,-77,972,-259,171,-198
583,-170,-92,1007,-284,265,-233
584,-160,-99,1015,-327,292,-260
585,-179,-85,1028,-349,282,-301
586,-149,-101,1042,-327,253,-307
587,-163,-96,1043,-267,196,-301
588,-152,-83,1031,-191,107,-253
589,-157,-101,1025,-74,26,-221
590,-168,-92,1023,53,-26,-223
591,-161,-89,1015,157,-22,-215
592,-151,-91,1004,147,-13,-225
593,-144,-71,989,30,17,-258
594,-161,-78,993,-154,50,-276
595,-153,-54,1007,-216,89,-258
596,-144,-61,992,-245,73,-262
597,-153,-47,973,-226,52,-247
598,-147,-27,972,-130,32,-202
599,-144,-29,964,49,32,-155
600,-144,-38,971,167,42,-116
601,-161,-48,979,198,62,-106
602,-160,-75,985,149,97,-114
603,-165,-67,1002,42,124,-180
604,-167,-69,1002,-146,138,-219
605,-161,-57,1017,-263,150,-231
606,-160,-32,1014,-218,132,-210
607,-151,-8,1005,-36,91,-128
608,-144,-40,1012,180,26,-73
609,-148,-60,994,239,-38,-53
610,-166,-71,982,161,-40,-71
611,-178,-74,960,55,32,-94
612,-177,-84,987,-25,116,-120
613,-181,-71,994,-81,163,-143
614,-171,-88,986,-144,177,-172
615,-169,-71,1001,-224,163,-190
616,-159,-54,985,-240,136,-169
617,-167,-56,985,-128,89,-116
618,-146,-71,985,26,52,-67
619,-169,-76,986,137,7,-32
620,-168,-92,967,176,19,-30
621,-168,-105,979,137,95,-51
622,-173,-109,970,26,177,-102
623,-175,-95,986,-95,239,-170
624,-166,-78,1032,-140,271,-172
625,-164,-67,1034,-40,243,-159
626,-177,-67,1052,85,157,-153
627,-184,-61,1047,124,87,-141
628,-172,-47,1034,89,48,-122
629,-177,-44,1025,42,-5,-81
630,-196,-60,1000,132,-52,-55
631,-178,-64,983,272,-42,-59
632,-182,-74,993,251,-3,-57
633,-188,-80,991,139,79,-106
634,-179,-62,1008,12,153,-159
635,-180,-45,1019,-60,177,-161
636,-178,-26,1020,-29,146,-137
637,-176,-18,1057,77,85,-77
638,-188,-28,1032,188,7,-36
639,-193,-54,1022,173,-52,-42
640,-192,-57,1010,5,-40,-55
641,-189,-58,998,-165,7,-79
642,-191,-52,987,-208,54,-102
643,-183,-46,971,-159,89,-114
644,-180,-36,996,-103,116,-102
645,-164,-38,1003,-70,134,-86
646,-180,-23,1014,-13,114,-71
647,-173,-24,1037,46,89,-18
648,-160,-32,1026,55,46,39
649,-171,-58,1025,-7,-15,80
650,-194,-91,999,-58,-34,64
651,-186,-91,982,-103,17,21
652,-187,-92,986,-171,85,-8
653,-183,-76,979,-201,114,-49
654,-180,-48,1007,-144,112,-38
655,-177,-58,1012,-25,71,-18
656,-175,-65,995,49,-3,1
657,-172,-83,973,18,-44,37
658,-180,-82,956,-36,-24,35
659,-168,-90,963,-62,28,27
660,-190,-90,971,-81,60,5
661,-190,-92,992,-72,99,-16
662,-182,-73,991,-38,136,-22
663,-181,-70,1001,14,132,-8
664,-166,-77,1017,30,95,25
665,-180,-69,1002,26,38,29
666,-184,-75,991,32,-11,35
667,-185,-90,975,12,-7,21
668,-190,-95,999,-85,17,-4
669,-195,-74,989,-148,60,-44
670,-193,-81,1002,-128,110,-36
671,-197,-76,1004,-52,118,-26
672,-185,-84,1004,24,99,-28
673,-180,-81,1014,91,77,-12
674,-186,-82,1011,118,52,3
675,-178,-101,1016,118,30,9
676,-185,-89,1021,61,13,-30
677,-194,-83,1020,-42,34,-30
678,-182,-86,1011,-109,46,-42
679,-189,-83,1020,-120,42,-51
680,-210,-86,1000,-95,38,-47
681,-192,-83,1001,-15,34,-61
682,-192,-76,1002,44,36,-45
683,-197,-96,1019,98,5,-36
684,-202,-84,1016,122,-26,-44
685,-196,-75,1022,61,-24,-44
686,-179,-93,1004,-31,-11,-40
687,-187,-75,1000,-97,-13,-55
688,-198,-66,1012,-87,-3,-71
689,-183,-75,989,-64,15,-65
690,-187,-73,995,-1,-5,-59
691,-194,-66,1001,110,-18,-55
692,-197,-72,1008,128,-1,-44
693,-197,-83,1032,51,-1,-40
694,-200,-74,1010,-52,-5,-47
695,-194,-59,1027,-124,-1,-51
696,-196,-53,1027,-138,17,-26
697,-189,-74,1057,-93,11,-4
698,-204,-68,1055,-15,-24,-12
699,-205,-55,1077,10,-22,-12
700,-178,-43,1108,-1,38,-24
701,-186,-10,1132,42,42,-1
702,-193,18,1169,260,26,80
703,-215,45,1235,592,42,134
704,-256,73,1312,774,93,171
705,-261,91,1401,657,136,228
706,-252,72,1455,305,17,331
707,-276,58,1474,-15,-327,382
708,-273,50,1465,-201,-679,464
709,-278,23,1459,-161,-903,568
710,-276,16,1439,10,-1028,638
711,-268,11,1446,216,-1040,734
712,-271,25,1476,479,-970,792
713,-263,19,1527,594,-862,853
714,-286,1,1571,477,-772,945
715,-296,-2,1642,405,-768,943
716,-315,9,1714,432,-884,986
717,-337,-11,1787,401,-1206,1113
718,-363,0,1809,514,-1546,1203
719,-390,-28,1793,768,-2001,1267
720,-423,-65,1783,856,-2454,1347
721,-428,-104,1699,753,-2837,1341
722,-436,-129,1632,501,-3159,1285
723,-450,-132,1568,315,-3358,1195
724,-419,-144,1512,126,-3516,1134
725,-410,-132,1456,-27,-3698,1035
726,-397,-146,1403,22,-3921,955
727,-369,-151,1338,128,-4175,908
728,-343,-161,1263,147,-4384,867
729,-308,-157,1197,51,-4606,828
730,-312,-160,1088,-7,-4776,777
731,-269,-189,971,-29,-4905,747
732,-230,-181,858,-50,-4891,687
733,-220,-174,787,-50,-4868,507
734,-156,-154,711,-13,-4753,390
735,-89,-105,629,-23,-4622,322
736,-63,-90,594,-91,-4511,240
737,-4,-69,497,-7,-4352,220
738,52,-60,453,20,-4149,164
739,120,-21,391,91,-3940,74
740,196,5,359,143,-3772,68
741,234,41,330,280,-3616,64
742,293,72,300,473,-3462,130
743,351,59,288,692,-3266,236
744,366,73,272,882,-3128,271
745,401,75,267,997,-2917,318
746,430,65,251,952,-2651,374
747,447,71,243,909,-2470,404
748,475,82,253,934,-2292,447
749,494,84,258,1069,-2102,460
750,510,81,255,1147,-1890,496
751,552,107,254,1100,-1704,525
752,565,114,216,1081,-1559,533
753,578,127,190,1055,-1407,554
754,592,104,176,1012,-1196,587
755,606,104,150,928,-1009,589
756,612,93,129,858,-800,556
757,589,73,122,811,-602,533
758,600,84,114,764,-386,447
759,627,110,112,676,-85,396
760,619,110,118,596,134,414
761,629,137,130,546,276,374
762,606,183,116,479,487,353
763,592,176,121,339,698,476
764,577,139,118,249,878,537
765,562,132,147,176,1069,503
766,523,111,159,159,1335,519
767,542,101,207,106,1628,525
768,537,108,218,128,1860,507
769,494,140,281,157,2028,464
770,454,190,306,94,2235,507
771,402,215,328,38,2378,613
772,350,243,362,128,2407,722
773,273,189,349,178,2437,915
774,280,120,352,163,2556,1042
775,285,56,368,128,2782,1056
776,241,0,385,-68,2937,1029
777,182,1,427,-136,3153,935
778,189,7,456,65,3364,792
779,140,88,503,307,3540,687
780,113,110,566,546,3667,722
781,94,124,609,700,3765,759
782,40,102,652,673,3769,759
783,99,35,690,299,3784,792
784,96,27,661,-199,3841,720
785,21,74,706,-552,3868,624
786,-86,68,730,-601,3995,650
787,-123,52,782,-466,4099,726
788,-170,91,838,-169,4290,773
789,-132,52,931,346,4562,925
790,-125,-24,1046,657,4778,1095
791,-153,-23,1197,835,4751,1042
792,-232,-22,1269,893,4566,941
793,-288,-66,1312,653,4259,929
794,-384,-27,1342,395,4040,835
795,-425,-1,1392,299,4003,728
796,-346,-67,1448,171,4179,747
797,-305,-85,1490,-118,4345,820
798,-380,-111,1570,-281,4226,820
799,-449,-161,1628,-70,4048,787
800,-462,-195,1744,85,3726,660
801,-455,-159,1804,-220,3319,529
802,-496,-120,1822,-425,2857,486
803,-461,-179,1815,-277,2396,550
804,-434,-233,1746,-89,1995,566
805,-426,-259,1701,-101,1583,482
806,-419,-262,1630,-197,1327,404
807,-446,-207,1587,-183,1235,283
808,-458,-156,1580,155,1304,220
809,-410,-179,1591,524,1366,246
810,-373,-222,1601,567,1247,189
811,-383,-216,1593,192,1067,17
812,-338,-196,1595,-329,860,-124
813,-341,-143,1561,-595,489,-243
814,-367,-113,1501,-511,73,-253
815,-357,-135,1453,-429,-270,-202
816,-331,-183,1355,-408,-493,-206
817,-333,-178,1285,-472,-614,-307
818,-317,-156,1242,-566,-571,-454
819,-309,-118,1194,-552,-474,-512
820,-303,-106,1156,-429,-454,-518
821,-272,-74,1115,-302,-448,-559
822,-273,3,1108,-173,-442,-569
823,-255,70,1091,108,-407,-450
824,-201,74,1067,298,-419,-290
825,-193,84,1061,268,-511,-223
826,-187,81,1021,217,-610,-241
827,-193,99,982,169,-698,-278
828,-202,121,984,122,-675,-299
829,-213,102,954,20,-522,-280
830,-214,81,943,-109,-354,-317
831,-199,81,942,-224,-206,-372
832,-197,107,966,-312,-112,-372
833,-194,138,976,-148,-79,-245
834,-187,131,979,159,-114,-137
835,-200,107,974,341,-167,-79
836,-196,73,986,216,-161,-73
837,-193,39,946,-204,-134,-57
838,-189,17,935,-523,-145,-112
839,-204,-5,897,-659,-106,-157
840,-204,-19,892,-654,3,-155
841,-205,-38,912,-499,116,-170
842,-205,-9,910,-220,206,-210
843,-214,38,944,73,298,-155
844,-188,8,992,335,319,-57
845,-196,5,1030,385,276,-45
846,-177,-11,1028,149,187,-18
847,-198,-34,1011,-142,71,-36
848,-202,-40,1012,-288,-18,-88
849,-207,-52,977,-310,-56,-131
850,-221,-62,952,-228,-77,-163
851,-222,-38,972,-15,-40,-223
852,-228,-18,989,202,38,-225
853,-211,-40,1036,296,101,-188
854,-207,-43,1038,264,66,-233
855,-211,-39,1038,89,1,-272
856,-196,-35,1033,-128,-61,-301
857,-208,-47,1032,-236,-140,-335
858,-212,-48,1006,-240,-212,-356
859,-217,-50,993,-185,-241,-366
860,-230,-60,990,-77,-233,-376
861,-218,-76,967,51,-188,-426
862,-219,-55,959,42,-128,-487
863,-210,-46,966,-68,-61,-508
864,-207,-35,979,-107,-38,-506
865,-197,-22,973,-101,-54,-491
866,-186,-21,978,-150,-79,-444
867,-178,-45,975,-152,-134,-420
868,-194,-51,947,-126,-145,-442
869,-187,-43,946,-117,-106,-483
870,-193,-37,953,-175,-28,-544
871,-191,-27,973,-290,25,-573
872,-169,-18,990,-378,42,-575
873,-179,9,995,-335,25,-555
874,-174,4,1002,-173,-20,-463
875,-174,-10,981,10,-89,-395
876,-184,-39,964,96,-147,-387
877,-190,-41,970,5,-114,-405
878,-191,-23,974,-152,-38,-422
879,-182,0,984,-224,46,-454
880,-173,-11,992,-257,103,-415
881,-168,-26,1000,-191,77,-403
882,-182,-28,1013,-113,50,-403
883,-186,-22,985,-85,42,-389
884,-183,-18,1004,-48,13,-381
885,-181,5,1016,-11,-20,-374
886,-190,-6,1010,-3,-44,-344
887,-187,-18,996,18,-63,-305
888,-196,-29,988,28,-54,-280
889,-214,-39,981,48,-16,-266
890,-198,-38,987,53,21,-270
891,-218,-50,983,59,48,-303
892,-198,-41,1009,30,79,-338
893,-199,-29,994,-5,83,-358
894,-189,-37,991,-34,73,-350
895,-198,-25,983,-42,77,-360
896,-193,-11,982,-19,89,-336
897,-189,-5,998,89,75,-286
898,-196,-8,990,249,62,-270
899,-190,-38,1005,198,66,-245
900,-185,-40,1010,8,73,-274
901,-206,-41,1018,-152,103,-286
902,-196,-49,1018,-165,110,-284
903,-199,-40,1026,-52,69,-313
904,-201,-23,1025,48,3,-321
905,-188,-38,1013,98,-22,-305
906,-186,-14,1019,106,-22,-290
907,-188,-9,1023,77,-36,-253
908,-187,-26,1003,73,-61,-223
909,-196,-48,1001,42,-79,-198
910,-202,-53,994,16,-83,-204
911,-190,-46,992,-21,-91,-213
912,-194,-36,982,7,-63,-231
913,-194,-40,984,92,-18,-235
914,-212,-45,991,188,38,-243
915,-211,-33,1008,192,97,-239
916,-198,-33,1020,145,112,-221
917,-192,-43,1022,122,81,-221
918,-214,-45,1025,65,54,-245
919,-196,-46,1039,-76,30,-235
920,-181,-55,1021,-167,-34,-227
921,-202,-53,1012,-124,-126,-253
922,-207,-52,993,-126,-173,-241
923,-201,-49,965,-81,-171,-241
924,-189,-56,965,-25,-161,-237
925,-206,-45,956,14,-134,-254
926,-206,-44,959,42,-54,-258
927,-203,-32,973,61,54,-254
928,-187,-31,981,48,124,-233
929,-167,-26,1011,-1,83,-225
930,-194,-51,983,-7,-7,-211
931,-184,-40,989,51,-48,-194
932,-185,-60,992,61,-69,-182
933,-203,-66,996,42,-97,-217
934,-200,-70,989,-46,-44,-254
935,-198,-70,975,-142,25,-295
936,-197,-71,982,-228,91,-346
937,-204,-54,977,-331,144,-397
938,-200,-64,993,-361,175,-424
939,-182,-50,997,-326,157,-461
940,-194,-40,1021,-316,155,-501
941,-184,-28,1016,-333,120,-479
942,-171,-36,1032,-372,89,-440
943,-195,-47,995,-363,30,-430
944,-200,-62,1007,-296,15,-395
945,-199,-79,984,-236,5,-383
946,-213,-81,988,-214,7,-401
947,-202,-74,976,-201,30,-387
948,-209,-70,977,-109,40,-374
949,-195,-69,968,-44,46,-360
950,-191,-65,979,-5,50,-342
951,-201,-67,1005,46,50,-299
952,-198,-59,1006,63,52,-253
953,-190,-89,987,75,17,-235
954,-192,-86,982,36,-18,-243
955,-193,-90,971,-36,3,-247
956,-196,-102,948,-76,62,-254
957,-200,-94,944,-85,140,-272
958,-196,-101,976,-42,206,-278
959,-208,-76,993,5,257,-286
960,-194,-81,1027,61,265,-254
961,-189,-84,1033,67,234,-225
962,-199,-109,1034,20,157,-206
963,-203,-110,1017,-54,97,-217
964,-216,-117,1015,-68,38,-233
965,-222,-119,1010,-40,21,-264
966,-220,-123,983,10,28,-301
967,-216,-118,984,61,56,-331
968,-208,-129,988,92,93,-376
969,-207,-117,981,28,114,-413
970,-211,-89,1009,-70,153,-434
971,-203,-81,1020,-126,161,-397
972,-203,-79,1009,-62,95,-376
973,-207,-86,1011,20,26,-348
974,-204,-106,1011,40,11,-336
975,-213,-109,998,-19,9,-366
976,-227,-116,992,-42,17,-403
977,-213,-119,991,-48,40,-415
978,-217,-129,979,-34,81,-417
979,-219,-110,998,-38,107,-444
980,-214,-109,1014,-95,118,-460
981,-210,-103,1007,-138,116,-456
982,-212,-85,1027,-105,64,-460
983,-213,-67,1019,10,-3,-448
984,-205,-87,1014,63,-44,-395
985,-202,-100,986,26,-73,-389
986,-193,-91,995,-42,-79,-391
987,-207,-93,963,-48,-48,-401
988,-218,-103,967,-1,34,-440
989,-216,-96,979,34,132,-442
990,-200,-105,1016,89,144,-465
991,-208,-74,1024,137,109,-440
992,-206,-95,1039,135,48,-383
993,-213,-113,1034,98,-22,-389
994,-222,-121,1016,30,-71,-405
995,-222,-110,1010,-56,-75,-409
996,-219,-107,999,-66,-77,-422
997,-216,-106,993,-54,-73,-444
998,-230,-112,988,-11,-46,-469
999,-229,-124,978,-5,13,-477
1000,-216,-115,990,-52,73,-510
1001,-210,-104,1018,-99,83,-524
1002,-200,-90,1006,-85,38,-503
1003,-207,-89,997,49,-50,-463
1004,-214,-95,983,153,-106,-434
1005,-199,-108,977,126,-83,-428
1006,-203,-90,981,26,-67,-422
1007,-201,-76,978,18,-38,-442
1008,-197,-86,966,71,-5,-436
1009,-192,-84,971,85,28,-452
1010,-196,-90,967,59,60,-444
1011,-197,-73,980,85,64,-407
1012,-204,-83,1005,163,56,-383
1013,-224,-73,998,171,69,-387
1014,-202,-98,992,87,60,-370
1015,-208,-99,1000,40,-3,-387
1016,-204,-98,978,18,-73,-411
1017,-211,-96,969,-9,-97,-424
1018,-197,-104,966,-11,-87,-436
1019,-212,-82,942,30,-36,-497
1020,-205,-50,965,57,64,-510
1021,-197,-51,995,44,150,-461
1022,-194,-48,999,59,79,-403
1023,-200,-64,966,87,-16,-350
1024,-186,-87,945,108,-65,-352
1025,-197,-98,926,98,-58,-372
1026,-198,-76,935,89,13,-381
1027,-202,-71,961,118,112,-379
1028,-180,-70,978,124,155,-374
1029,-196,-74,988,77,163,-368
1030,-186,-82,1000,10,165,-364
1031,-195,-98,982,-33,134,-368
1032,-212,-85,983,5,89,-368
1033,-194,-84,984,92,71,-364
1034,-199,-94,981,141,64,-352
1035,-221,-84,977,149,71,-366
1036,-202,-91,977,114,109,-381
1037,-206,-79,986,73,138,-381
1038,-205,-85,987,8,153,-378
1039,-212,-84,992,-66,136,-350
1040,-212,-86,986,-74,112,-329
1041,-196,-98,986,57,77,-319
1042,-206,-108,965,176,71,-294
1043,-209,-103,970,221,114,-295
1044,-216,-94,983,210,202,-321
1045,-207,-104,996,176,226,-329
1046,-223,-100,1008,122,187,-340
1047,-216,-97,1018,14,165,-342
1048,-213,-109,1013,-113,161,-344
1049,-214,-113,1003,-183,159,-362
1050,-216,-120,1017,-167,132,-366
1051,-228,-101,1001,-72,67,-352
1052,-229,-105,981,87,17,-333
1053,-233,-125,992,219,-3,-362
1054,-233,-114,993,200,30,-401
1055,-213,-116,992,100,54,-432
1056,-208,-103,987,30,46,-440
1057,-213,-74,992,-1,46,-401
1058,-202,-72,975,55,64,-366
1059,-216,-69,977,163,62,-342
1060,-213,-47,1002,348,69,-295
1061,-211,-68,1006,424,91,-268
1062,-220,-78,1017,262,87,-266
1063,-198,-63,999,34,95,-284
1064,-192,-63,989,-107,97,-268
1065,-219,-59,981,-105,83,-266
1066,-224,-55,986,-25,101,-221
1067,-228,-69,974,79,140,-204
1068,-224,-44,1000,106,165,-198
1069,-200,-42,1003,135,165,-163
1070,-215,-59,1001,155,122,-129
1071,-217,-72,985,110,83,-139
1072,-222,-93,960,10,103,-145
1073,-228,-91,978,-91,163,-155
1074,-220,-98,979,-115,200,-165
1075,-207,-93,992,-62,181,-208
1076,-227,-81,1004,-74,175,-223
1077,-232,-89,1001,-109,192,-186
1078,-227,-96,1015,-97,192,-180
1079,-223,-94,1010,-17,124,-155
1080,-229,-120,992,79,30,-128
1081,-234,-127,983,98,-20,-124
1082,-230,-143,966,53,-13,-172
1083,-218,-153,958,-34,30,-215
1084,-247,-138,957,-115,89,-258
1085,-237,-115,983,-124,159,-295
1086,-219,-118,989,-152,218,-290
1087,-213,-122,994,-183,200,-280
1088,-213,-122,992,-220,165,-280
1089,-228,-121,980,-253,175,-249
1090,-220,-102,985,-167,171,-221
1091,-223,-117,992,71,99,-202
1092,-227,-103,993,225,42,-159
1093,-222,-112,995,239,52,-151
1094,-236,-114,1008,135,58,-174
1095,-228,-128,983,-34,58,-215
1096,-227,-113,971,-210,89,-239
1097,-220,-127,956,-290,112,-237
1098,-223,-140,963,-286,128,-249
1099,-245,-153,964,-283,144,-266
1100,-248,-128,951,-232,189,-292
1101,-219,-108,998,-52,222,-260
1102,-233,-96,1026,155,146,-217
1103,-234,-105,1001,274,69,-141
1104,-242,-98,1032,274,7,-165
1105,-231,-94,1017,145,26,-137
1106,-236,-108,986,53,-16,-137
1107,-241,-104,982,5,-7,-139
1108,-248,-106,981,-5,30,-147
1109,-248,-114,979,18,81,-159
1110,-255,-93,988,98,112,-170
1111,-261,-79,1012,219,109,-169
1112,-237,-79,1023,364,73,-137
1113,-239,-89,1035,417,19,-108
1114,-247,-84,1022,311,-3,-104
1115,-242,-87,1012,128,9,-128
1116,-246,-73,1014,-54,21,-157
1117,-245,-65,1011,-169,56,-151
1118,-251,-62,1017,-181,71,-135
1119,-231,-70,1016,-136,69,-126
1120,-246,-38,1009,-33,71,-81
1121,-240,-35,1024,137,75,-1
1122,-234,-56,1029,258,48,85
1123,-237,-71,1044,272,-5,115
1124,-245,-79,1035,133,5,124
1125,-236,-94,1023,-81,69,113
1126,-224,-96,1048,-216,124,7
1127,-224,-73,1053,-279,120,-28
1128,-181,-29,1061,-34,114,-26
1129,-183,7,1104,342,159,11
1130,-178,52,1195,710,298,138
1131,-196,96,1330,1202,423,146
1132,-208,100,1468,1352,427,189
1133,-246,123,1602,1151,345,318
1134,-346,148,1736,825,204,533
1135,-405,75,1826,391,91,765
1136,-449,32,1931,-17,-48,896
1137,-466,-14,1978,-449,-247,914
1138,-521,-29,2023,-708,-561,912
1139,-547,-62,2016,-652,-931,878
1140,-574,-73,2023,-449,-1372,878
1141,-576,-110,1969,-79,-1866,869
1142,-618,-139,1939,272,-2407,767
1143,-632,-142,1877,358,-2808,771
1144,-641,-151,1842,255,-3108,820
1145,-637,-136,1800,137,-3368,855
1146,-600,-138,1754,149,-3653,935
1147,-602,-134,1667,305,-4013,966
1148,-584,-144,1609,538,-4391,968
1149,-556,-138,1550,686,-4739,962
1150,-568,-119,1472,770,-5020,939
1151,-522,-146,1391,698,-5231,982
1152,-489,-161,1296,512,-5413,982
1153,-487,-166,1197,354,-5614,925
1154,-461,-163,1106,280,-5788,906
1155,-424,-177,1008,333,-5923,917
1156,-384,-197,915,354,-6046,855
1157,-376,-176,820,280,-6087,763
1158,-326,-189,715,233,-6100,699
1159,-255,-191,601,110,-6075,673
1160,-188,-207,451,-83,-6077,572
1161,-103,-166,312,-310,-5890,415
1162,-43,-101,197,-294,-5556,326
1163,26,-32,73,-19,-5093,271
1164,143,20,-8,479,-4610,228
1165,283,79,-86,909,-4177,232
1166,366,164,-163,1196,-3911,357
1167,436,233,-186,1565,-3673,554
1168,477,295,-220,1971,-3349,763
1169,541,300,-195,2206,-3083,960
1170,538,301,-258,2311,-2829,1101
1171,528,284,-241,2296,-2585,1185
1172,517,234,-256,2108,-2188,1261
1173,521,173,-245,1776,-1722,1304
1174,535,133,-237,1344,-1306,1249
1175,523,119,-282,852,-929,1103
1176,523,123,-303,440,-671,1005
1177,512,168,-307,294,-438,910
1178,535,189,-331,243,-147,882
1179,555,199,-346,217,114,917
1180,534,204,-376,167,474,1029
1181,529,141,-359,159,915,1140
1182,534,110,-338,335,1400,1126
1183,459,104,-294,485,1804,1085
1184,405,129,-222,553,2155,1054
1185,348,215,-182,503,2532,1027
1186,342,268,-99,479,2915,1175
1187,373,257,-46,716,3300,1410
1188,333,212,28,1118,3571,1617
1189,245,141,131,1467,3702,1699
1190,166,89,211,1493,3894,1646
1191,73,54,299,1305,4050,1544
1192,38,54,392,1087,4173,1427
1193,39,75,497,1075,4446,1316
1194,98,80,619,1122,4745,1320
1195,93,80,750,1348,5052,1337
1196,33,93,899,1635,5204,1419
1197,-50,95,992,1757,5155,1507
1198,-200,88,1043,1721,4944,1480
1199,-267,63,1106,1507,4651,1363
1200,-239,-12,1105,1122,4355,1205
1201,-237,-74,1090,542,4089,1083
1202,-253,-90,1080,-29,4064,945
1203,-227,-108,1034,-595,4300,898
1204,-278,-95,1092,-931,4577,863
1205,-365,4,1179,-775,4855,835
1206,-410,4,1260,-238,5066,1009
1207,-415,-81,1411,442,5066,1152
1208,-382,-166,1542,721,4946,1142
1209,-346,-193,1683,604,4816,896
1210,-389,-198,1798,20,4525,812
1211,-443,-172,1875,-788,4081,869
1212,-487,-192,1883,-1218,3616,941
1213,-502,-235,1838,-1218,3253,943
1214,-522,-287,1827,-1040,2937,953
1215,-519,-337,1850,-753,2692,919
1216,-496,-379,1847,-378,2448,767
1217,-477,-390,1842,-144,2120,558
1218,-486,-352,1847,-5,1735,271
1219,-486,-297,1803,-58,1431,37
1220,-480,-243,1751,-296,1132,-94
1221,-445,-232,1682,-589,800,-196
1222,-397,-192,1571,-884,499,-301
1223,-369,-173,1476,-960,232,-276
1224,-357,-198,1377,-771,48,-128
1225,-350,-245,1322,-390,-5,-57
1226,-358,-272,1295,61,56,-170
1227,-351,-276,1267,313,177,-323
1228,-344,-256,1290,282,269,-481
1229,-337,-221,1287,65,267,-553
1230,-328,-204,1287,-132,183,-588
1231,-305,-204,1260,-240,36,-612
1232,-281,-212,1223,-284,-183,-616
1233,-279,-202,1180,-228,-419,-635
1234,-290,-215,1133,-148,-606,-670
1235,-282,-215,1081,-76,-665,-751
1236,-279,-229,1051,-19,-671,-860
1237,-285,-186,1019,71,-610,-985
1238,-278,-170,990,108,-470,-1083
1239,-242,-155,1023,-7,-333,-1133
1240,-247,-119,994,-99,-280,-1192
1241,-211,-84,985,-79,-288,-1180
1242,-224,-52,978,59,-331,-1163
1243,-236,-21,982,190,-343,-1106
1244,-237,-4,972,255,-300,-1004
1245,-228,-12,1007,307,-286,-993
1246,-210,13,1014,280,-304,-1077
1247,-185,10,974,8,-368,-1038
1248,-202,13,950,-230,-370,-991
1249,-200,-2,941,-417,-335,-999
1250,-209,11,917,-462,-241,-1026
1251,-227,26,938,-372,-118,-1053
1252,-215,45,953,-177,5,-1028
1253,-215,74,949,28,62,-987
1254,-221,96,975,167,91,-967
1255,-193,80,994,206,85,-889
1256,-174,67,985,122,5,-870
1257,-189,74,975,-50,-116,-878
1258,-175,98,946,-208,-167,-819
1259,-205,82,920,-206,-169,-778
1260,-216,81,902,-76,-145,-731
1261,-230,70,921,40,-13,-715
1262,-212,56,945,-7,134,-706
1263,-204,40,967,-146,210,-717
1264,-182,65,956,-234,200,-713
1265,-193,59,947,-208,142,-657
1266,-208,62,953,-13,67,-586
1267,-206,35,950,173,69,-516
1268,-200,13,958,266,62,-485
1269,-198,5,957,260,64,-534
1270,-203,-20,967,77,101,-534
1271,-198,-27,962,-76,118,-540
1272,-221,-26,967,-79,116,-602
1273,-228,-12,985,-95,122,-612
1274,-219,-3,964,-42,171,-628
1275,-200,22,1008,63,200,-616
1276,-200,34,1002,235,134,-549
1277,-208,6,989,342,40,-491
1278,-219,-13,980,362,-38,-497
1279,-227,-29,963,247,-40,-499
1280,-223,-34,959,75,21,-520
1281,-224,-41,954,-42,103,-563
1282,-214,-42,953,-68,144,-547
1283,-206,-21,977,94,157,-528
1284,-214,-18,989,335,120,-512
1285,-214,-24,974,489,105,-471
1286,-214,-19,978,499,109,-436
1287,-228,-27,1002,395,134,-448
1288,-217,-19,1017,221,144,-436
1289,-224,-20,1000,96,99,-448
1290,-220,-18,984,7,73,-479
1291,-222,-24,974,-74,110,-481
1292,-236,-25,963,-83,146,-503
1293,-218,-24,973,-60,153,-491
1294,-236,-11,976,49,175,-510
1295,-241,-2,999,141,198,-461
1296,-223,-11,1007,194,204,-409
1297,-229,-22,1033,153,173,-419
1298,-227,-29,1034,36,132,-446
1299,-220,-31,1014,-72,89,-448
1300,-228,-34,984,-52,19,-454
1301,-238,-21,988,28,-26,-477
1302,-229,-7,984,92,17,-463
1303,-216,-9,977,157,69,-430
1304,-205,-5,978,231,52,-405
1305,-237,35,985,303,50,-399
1306,-221,14,1011,278,112,-303
1307,-223,-26,1023,214,116,-278
1308,-231,-26,1006,94,26,-319
1309,-216,-11,983,-34,-7,-348
1310,-232,1,985,-17,15,-362
1311,-235,-11,977,75,26,-323
1312,-229,-31,974,130,17,-325
1313,-226,-40,953,87,44,-362
1314,-225,-24,954,-5,99,-360
1315,-238,21,987,30,179,-329
1316,-231,13,1036,188,202,-231
1317,-229,-36,1014,219,83,-186
1318,-248,-60,980,63,-63,-217
1319,-244,-84,923,-195,-118,-231
1320,-212,-95,887,-392,-89,-288
1321,-170,-79,842,-503,-11,-284
1322,-182,-40,863,-236,58,-346
1323,-241,20,881,313,191,-450
1324,-210,14,944,686,398,-301
1325,-210,-20,979,776,538,-200
1326,-222,-43,1014,596,556,-221
1327,-209,-57,1044,174,517,-239
1328,-217,-72,1017,-220,425,-253
1329,-231,-90,1002,-458,329,-258
1330,-249,-102,972,-486,304,-294
1331,-255,-102,958,-404,321,-313
1332,-273,-101,979,-245,351,-331
1333,-257,-111,979,-48,386,-340
1334,-259,-91,1007,57,407,-409
1335,-254,-55,1045,-7,400,-419
1336,-246,-47,1051,-144,372,-368
1337,-273,-54,1051,-212,275,-323
1338,-256,-66,1033,-158,202,-335
1339,-270,-86,1019,-136,153,-327
1340,-276,-91,1023,-81,134,-340
1341,-285,-88,1025,-21,179,-385
1342,-302,-67,1038,108,212,-389
1343,-293,-60,1042,270,194,-387
1344,-288,-50,1073,374,134,-395
1345,-292,-67,1086,335,71,-401
1346,-294,-65,1060,227,9,-432
1347,-284,-44,1068,75,-40,-473
1348,-276,-33,1054,-38,-106,-489
1349,-278,-35,1019,-38,-179,-491
1350,-274,-48,985,40,-235,-452
1351,-282,-42,965,194,-239,-446
1352,-291,-27,971,303,-159,-481
1353,-262,-15,973,272,-40,-469
1354,-269,-25,1000,204,5,-442
1355,-258,-1,1021,165,-20,-440
1356,-252,-14,1022,151,-85,-419
1357,-252,-26,1001,128,-157,-401
1358,-263,-31,1004,42,-171,-415
1359,-259,-40,989,-72,-159,-399
1360,-257,-35,1004,-68,-190,-403
1361,-245,-15,991,38,-220,-368
1362,-246,-31,988,165,-245,-319
1363,-256,-35,983,247,-233,-321
1364,-261,-33,971,186,-151,-329
1365,-239,-44,989,18,-52,-340
1366,-232,-46,965,-105,-32,-368
1367,-251,-24,970,-142,-63,-372
1368,-246,-35,972,-74,-85,-335
1369,-248,-66,973,59,-91,-323
1370,-251,-61,977,155,-118,-342
1371,-262,-49,984,301,-132,-358
1372,-254,-52,966,380,-122,-344
1373,-262,-51,988,333,-93,-362
1374,-247,-42,998,122,-28,-360
1375,-234,-52,982,-62,-9,-381
1376,-253,-40,981,-97,-40,-383
1377,-255,-36,979,-42,-34,-387
1378,-249,-32,983,67,-22,-376
1379,-259,-14,995,194,-28,-368
1380,-247,0,1017,268,-42,-350
1381,-246,-12,1015,235,-36,-338
1382,-248,-13,1016,112,-65,-331
1383,-240,-7,990,-34,-75,-338
1384,-246,-22,976,-154,-77,-311
1385,-246,-40,960,-208,-65,-321
1386,-251,-14,970,-148,-13,-352
1387,-246,5,974,18,5,-325
1388,-229,4,983,264,-24,-256
1389,-238,-2,978,479,-63,-231
1390,-239,2,993,505,-65,-204
1391,-243,-9,999,368,-24,-198
1392,-232,-2,1012,122,21,-221
1393,-223,8,1009,-126,3,-245
1394,-224,15,993,-267,-54,-229
1395,-230,5,970,-240,-85,-188
1396,-233,-15,954,-89,-85,-165
1397,-248,-25,937,16,-65,-147
1398,-238,-27,947,77,-13,-129
1399,-219,-22,954,120,13,-133
1400,-227,-19,967,91,5,-133
1401,-230,-29,968,3,9,-133
1402,-215,-38,955,-107,21,-163
1403,-233,-25,963,-191,26,-139
1404,-229,-36,965,-163,36,-100
1405,-229,-69,957,-81,34,-79
1406,-227,-83,936,-29,26,-108
1407,-237,-79,949,-56,67,-135
1408,-236,-89,954,-99,157,-165
1409,-223,-89,937,-124,239,-192
1410,-237,-102,965,-165,304,-254
1411,-239,-109,947,-310,378,-317
1412,-220,-123,949,-493,468,-385
1413,-221,-110,931,-691,536,-456
1414,-225,-37,988,-742,583,-460
1415,-239,-15,1016,-433,593,-385
1416,-228,5,1025,-9,489,-237
1417,-202,-18,1062,546,267,-100
1418,-260,-85,1045,680,-73,-28
1419,-256,-108,983,518,-227,-67
1420,-258,-121,964,128,-165,-157
1421,-264,-102,938,-206,-54,-215
1422,-255,-66,930,-277,118,-235
1423,-255,-56,966,-99,177,-202
1424,-261,-40,980,128,146,-157
1425,-267,-34,1008,346,83,-112
1426,-264,-44,1008,493,9,-83
1427,-267,-56,999,362,-42,-42
1428,-257,-66,990,143,-65,-75
1429,-246,-60,950,-60,-61,-126
1430,-249,-59,965,-183,-26,-149
1431,-258,-51,954,-146,25,-172
1432,-256,-29,981,-79,91,-180
1433,-257,-15,983,48,161,-137
1434,-271,-8,1016,192,165,-81
1435,-254,1,1025,329,87,-24
1436,-242,-24,1018,397,-7,72
1437,-261,-63,1006,350,-100,64
1438,-257,-74,981,176,-141,13
1439,-271,-66,970,-56,-89,-26
1440,-252,-61,963,-273,-1,-61
1441,-252,-34,965,-326,67,-120
1442,-247,-22,971,-202,95,-81
1443,-245,-35,992,55,89,-36
1444,-243,-48,986,253,60,-1
1445,-256,-46,1020,274,64,50
1446,-255,-61,1029,198,69,56
1447,-262,-66,1022,85,26,37
1448,-275,-75,1015,-48,-30,-4
1449,-268,-70,995,-175,-26,-32
1450,-268,-72,988,-273,5,-63
1451,-269,-54,958,-226,-11,-55
1452,-271,-62,953,-17,-30,-32
1453,-283,-78,953,139,-26,-1
1454,-280,-86,970,114,52,-20
1455,-278,-70,982,-21,122,-40
1456,-268,-72,995,-148,140,-20
1457,-266,-79,1003,-142,79,-63
1458,-265,-63,1003,-124,34,-86
1459,-257,-44,1009,-79,-1,-57
1460,-265,-52,990,67,-24,-42
1461,-263,-62,1005,141,-54,-30
1462,-263,-61,985,100,-69,-42
1463,-256,-68,960,-23,-26,-77
1464,-262,-62,977,-136,36,-100
1465,-266,-48,977,-187,64,-122
1466,-274,-57,982,-181,69,-122
1467,-284,-46,978,-181,89,-124
1468,-259,-48,989,-163,60,-92
1469,-240,-47,973,-62,-18,-49
1470,-254,-62,966,85,-83,-22
1471,-255,-63,976,153,-83,-8
1472,-258,-77,962,106,-30,-16
1473,-263,-77,956,-25,7,-55
1474,-257,-67,965,-132,46,-94
1475,-256,-66,938,-183,85,-108
1476,-259,-63,959,-230,107,-118
1477,-257,-56,964,-253,128,-110
1478,-237,-54,970,-159,118,-85
1479,-249,-49,962,-15,60,-26
1480,-249,-66,954,67,44,31
1481,-250,-84,954,102,71,11
1482,-255,-75,969,36,114,-30
1483,-246,-77,967,-99,163,-49
1484,-251,-75,984,-224,232,-69
1485,-269,-69,1002,-257,282,-88
1486,-306,-52,1034,-208,329,-112
1487,-304,-66,1074,-230,390,-92
1488,-299,-71,1108,-288,364,-61
1489,-313,-61,1129,-345,232,-57
1490,-326,-43,1114,-343,97,-45
1491,-322,-50,1098,-316,5,23
1492,-329,-71,1088,-234,-85,87
1493,-319,-98,1055,-64,-147,119
1494,-332,-112,1048,40,-157,91
1495,-327,-120,1021,-9,-102,64
1496,-309,-121,1032,-126,-48,21
1497,-282,-125,1011,-169,-71,-30
1498,-297,-122,975,-175,-130,-90
1499,-285,-132,953,-173,-145,-126
1500,-281,-134,935,-142,-155,-172
1501,-284,-100,929,-158,-157,-180
1502,-267,-89,936,-101,-177,-116
1503,-243,-90,917,44,-235,-77
1504,-248,-96,903,112,-288,-65
1505,-221,-114,894,24,-243,-49
1506,-217,-126,869,-107,-145,-49
1507,-235,-109,890,-158,-73,-110
1508,-240,-91,913,-300,48,-141
1509,-236,-110,955,-429,161,-128
1510,-247,-114,947,-464,171,-159
1511,-238,-114,958,-601,99,-157
1512,-251,-87,957,-562,25,-112
1513,-228,-124,934,-337,-95,-47
1514,-239,-146,900,-148,-214,-12
1515,-240,-148,880,-58,-225,-38
1516,-254,-133,903,-29,-93,-49
1517,-255,-114,924,30,67,-96
1518,-258,-75,999,34,228,-116
1519,-266,-43,1086,-19,368,-61
1520,-282,-35,1163,-42,472,-1
1521,-258,-43,1289,-142,441,17
1522,-265,-5,1364,-185,261,5
1523,-293,-7,1441,-66,-100,124
1524,-318,0,1417,397,-399,138
1525,-349,-25,1453,561,-552,314
1526,-371,-45,1475,602,-505,503
1527,-391,-70,1536,641,-347,583
1528,-416,-64,1612,809,-278,568
1529,-448,-35,1705,1044,-331,517
1530,-466,-11,1795,1167,-444,490
1531,-462,10,1860,1132,-661,533
1532,-446,20,1887,956,-1022,622
1533,-455,12,1902,801,-1515,662
1534,-485,32,1885,760,-2046,749
1535,-506,46,1834,747,-2472,851
1536,-533,65,1805,778,-2774,908
1537,-518,74,1768,796,-2974,976
1538,-514,70,1745,848,-3136,1076
1539,-530,63,1722,817,-3325,1150
1540,-526,28,1689,628,-3534,1244
1541,-533,16,1654,397,-3782,1314
1542,-533,-15,1617,260,-4038,1341
1543,-522,-45,1566,196,-4270,1380
1544,-525,-87,1511,233,-4585,1419
1545,-538,-121,1444,415,-4923,1455
1546,-535,-191,1372,559,-5208,1474
1547,-523,-226,1286,530,-5434,1439
1548,-511,-253,1185,419,-5649,1355
1549,-492,-288,1069,327,-5813,1244
1550,-428,-330,969,198,-5899,1089
1551,-380,-297,821,126,-5921,849
1552,-307,-292,669,20,-5897,640
1553,-258,-211,545,-58,-5659,497
1554,-166,-159,415,71,-5356,371
1555,-39,-94,325,194,-5059,253
1556,89,35,212,290,-4747,179
1557,197,100,129,319,-4528,232
1558,255,162,38,444,-4331,353
1559,321,207,-49,577,-4155,464
1560,408,250,-107,837,-3901,636
1561,456,274,-170,1110,-3567,798
1562,489,239,-224,1323,-3323,1062
1563,486,205,-271,1581,-2987,1316
1564,509,157,-272,1710,-2556,1410
1565,523,132,-240,1702,-2067,1392
1566,540,121,-216,1489,-1657,1369
1567,576,119,-208,1184,-1335,1318
1568,575,133,-160,932,-1075,1224
1569,578,170,-125,737,-878,1089
1570,592,169,-128,499,-755,1003
1571,565,176,-150,255,-616,994
1572,552,168,-182,44,-444,980
1573,585,160,-220,-101,-243,958
1574,559,161,-276,-107,-15,976
1575,572,161,-310,-99,339,982
1576,553,195,-330,112,860,1052
1577,520,230,-299,579,1398,1167
1578,437,223,-233,1063,1903,1292
1579,340,205,-137,1290,2347,1376
1580,291,179,-64,1319,2794,1394
1581,227,114,20,1116,3173,1359
1582,285,55,86,635,3530,1410
1583,316,-1,127,305,3704,1271
1584,224,40,156,188,3638,1109
1585,168,104,196,266,3595,1062
1586,89,209,232,518,3751,1093
1587,-5,230,301,852,3966,1251
1588,13,164,349,1026,4134,1374
1589,56,121,367,1040,4290,1384
1590,19,65,403,952,4359,1353
1591,-15,7,454,872,4423,1289
1592,-88,29,523,721,4616,1232
1593,-185,28,585,606,4864,1122
1594,-237,43,643,424,5101,1017
1595,-302,143,743,382,5368,919
1596,-326,141,858,704,5638,1050
1597,-288,17,987,1339,5786,1208
1598,-369,-23,1108,1882,5767,1148
1599,-475,-90,1281,1733,5739,902
1600,-503,-133,1421,641,5747,564
1601,-512,-35,1555,-728,5747,451
1602,-530,79,1690,-1372,5749,499
1603,-528,30,1845,-1363,5538,863
1604,-589,-72,1941,-927,5091,1324
1605,-630,-227,2029,-566,4675,1509
1606,-664,-361,2045,-449,4261,1412
1607,-716,-428,2048,-724,3825,1169
1608,-750,-419,2048,-1013,3491,865
1609,-744,-407,2026,-1064,3286,568
1610,-721,-333,2037,-999,3050,343
1611,-641,-311,2021,-792,2671,236
1612,-536,-299,1991,-583,2064,199
1613,-527,-263,1883,-517,1261,121
1614,-552,-259,1776,-548,593,87
1615,-520,-258,1657,-685,198,87
1616,-506,-255,1561,-720,-24,-18
1617,-498,-236,1461,-689,-46,-137
1618,-470,-201,1415,-462,26,-180
1619,-467,-181,1389,-79,114,-309
1620,-421,-170,1360,61,142,-360
1621,-348,-139,1350,94,23,-354
1622,-344,-90,1305,110,-149,-422
1623,-345,-60,1273,-36,-341,-368
1624,-313,-59,1217,-253,-511,-280
1625,-300,-41,1166,-343,-632,-249
1626,-327,-24,1116,-216,-698,-290
1627,-309,-14,1080,30,-690,-280
1628,-289,-52,1033,178,-696,-282
1629,-279,-66,985,159,-696,-378
1630,-282,-73,954,-58,-600,-493
1631,-275,-36,947,-298,-433,-549
1632,-262,20,967,-472,-220,-583
1633,-229,24,986,-497,-106,-495
1634,-212,41,982,-327,-155,-409
1635,-232,39,965,-95,-280,-309
1636,-233,-6,944,40,-339,-210
1637,-239,-39,943,65,-350,-176
1638,-243,-52,910,-19,-327,-223
1639,-273,-47,912,-144,-222,-309
1640,-276,-57,915,-236,-77,-362
1641,-268,-67,933,-277,42,-366
1642,-259,-54,957,-283,116,-374
1643,-251,-47,961,-201,157,-336
1644,-245,-56,1004,5,89,-295
1645,-245,-48,1006,235,-89,-299
1646,-244,-54,983,303,-220,-297
1647,-257,-72,967,251,-239,-278
1648,-254,-66,941,137,-188,-329
1649,-261,-73,919,30,-114,-399
1650,-270,-64,926,-40,15,-438
1651,-266,-52,958,-120,132,-444
1652,-263,-24,983,-130,218,-432
1653,-245,-16,1025,16,224,-411
1654,-254,-33,1032,200,118,-354
1655,-253,-76,1031,225,-44,-350
1656,-265,-63,1003,94,-151,-399
1657,-279,-48,973,-36,-147,-458
1658,-254,-47,962,-136,-63,-463
1659,-256,-42,973,-117,11,-493
1660,-265,-26,953,-76,32,-481
1661,-251,-23,980,-62,67,-471
1662,-251,-18,985,-64,89,-432
1663,-232,-15,962,-5,56,-383
1664,-245,-41,961,51,3,-374
1665,-260,-56,974,55,-1,-397
1666,-258,-57,978,20,50,-483
1667,-263,-44,993,-44,75,-555
1668,-257,-24,999,-101,73,-579
1669,-270,-18,1000,-83,60,-563
1670,-251,-16,995,-27,30,-512
1671,-243,-13,992,73,-3,-479
1672,-237,-18,969,141,-40,-446
1673,-253,-21,975,178,-59,-440
1674,-262,-19,963,126,-22,-467
1675,-263,-16,979,-23,73,-473
1676,-263,-40,977,-189,132,-471
1677,-247,-43,989,-292,138,-487
1678,-247,-28,991,-247,93,-463
1679,-253,-31,989,-66,54,-413
1680,-264,-40,1000,184,9,-379
1681,-274,-42,993,315,-24,-383
1682,-276,-26,1007,280,-7,-403
1683,-265,-25,1021,176,7,-413
1684,-266,-6,1010,30,-16,-436
1685,-250,-7,1010,-179,-50,-409
1686,-236,-15,992,-290,-85,-378
1687,-242,-8,966,-247,-128,-364
1688,-256,-11,943,-105,-126,-333
1689,-253,-27,944,42,-71,-290
1690,-250,-40,941,139,-11,-305
1691,-256,-37,958,100,38,-317
1692,-245,-28,979,-50,107,-292
1693,-242,-46,984,-130,150,-262
1694,-246,-49,976,-95,101,-260
1695,-256,-47,989,-7,60,-233
1696,-256,-58,1016,73,64,-194
1697,-248,-77,1007,94,26,-194
1698,-258,-76,988,100,-40,-213
1699,-262,-93,972,110,-58,-213
1700,-259,-109,949,94,-15,-243
1701,-270,-109,969,12,32,-305
1702,-276,-101,975,-122,83,-381
1703,-260,-81,1001,-275,144,-409
1704,-248,-74,1000,-310,128,-378
1705,-242,-76,998,-212,46,-333
1706,-244,-83,979,-34,-30,-336
1707,-253,-94,953,83,-61,-329
1708,-242,-84,954,89,-65,-358
1709,-257,-73,975,30,-16,-385
1710,-254,-73,963,-72,75,-389
1711,-238,-84,977,-128,99,-424
1712,-242,-59,991,-126,52,-428
1713,-251,-54,969,-46,15,-389
1714,-247,-72,958,108,11,-317
1715,-247,-74,946,301,-40,-305
1716,-261,-70,963,383,-89,-319
1717,-255,-75,967,344,-44,-317
1718,-251,-74,973,221,26,-305
1719,-262,-69,969,108,52,-315
1720,-267,-89,971,7,77,-374
1721,-268,-93,979,-109,118,-395
1722,-279,-105,989,-132,142,-413
1723,-273,-84,1002,-101,163,-428
1724,-266,-58,1009,-13,118,-401
1725,-263,-43,1009,145,28,-348
1726,-267,-52,1011,225,-40,-299
1727,-250,-67,994,196,-75,-239
1728,-259,-74,951,153,-97,-264
1729,-258,-71,953,89,-85,-340
1730,-254,-76,961,-9,3,-426
1731,-248,-76,954,-101,71,-461
1732,-249,-53,978,-138,114,-508
1733,-262,-38,994,-126,128,-485
1734,-240,-35,987,-95,110,-415
1735,-243,-45,983,-34,52,-385
1736,-249,-57,972,63,-26,-352
1737,-259,-67,973,159,-56,-336
1738,-259,-74,969,190,-16,-354
1739,-249,-71,955,114,42,-362
1740,-265,-54,981,20,89,-387
1741,-261,-42,979,-23,128,-409
1742,-265,-35,998,-66,134,-374
1743,-246,-41,987,-93,118,-331
1744,-248,-53,972,-56,95,-313
1745,-255,-52,952,48,58,-284
1746,-262,-56,974,219,64,-266
1747,-266,-48,981,356,87,-264
1748,-263,-50,986,395,83,-258
1749,-256,-42,1010,309,71,-254
1750,-253,-49,1001,141,105,-247
1751,-261,-54,1009,-33,110,-256
1752,-271,-66,992,-130,89,-272
1753,-274,-74,997,-197,77,-288
1754,-270,-76,978,-230,81,-307
1755,-282,-84,982,-199,67,-288
1756,-265,-86,965,-150,56,-237
1757,-264,-70,965,46,32,-208
1758,-257,-87,959,198,26,-204
1759,-282,-93,973,260,28,-229
1760,-275,-99,984,130,81,-272
1761,-259,-99,990,-56,128,-303
1762,-257,-78,988,-199,146,-329
1763,-256,-85,993,-197,140,-307
1764,-258,-96,986,-17,95,-284
1765,-265,-105,988,192,34,-266
1766,-267,-107,978,303,9,-270
1767,-248,-102,981,313,26,-278
1768,-282,-83,990,257,44,-319
1769,-268,-69,1002,102,109,-321
1770,-247,-89,993,-42,132,-323
1771,-261,-90,1001,-128,83,-364
1772,-271,-83,988,-159,34,-352
1773,-260,-87,982,-70,25,-336
1774,-276,-103,972,69,-7,-313
1775,-274,-93,964,208,-7,-301
1776,-284,-98,976,296,15,-303
1777,-268,-105,998,253,52,-299
1778,-275,-114,976,143,81,-327
1779,-278,-116,992,42,67,-381
1780,-284,-114,994,1,52,-413
1781,-285,-121,996,42,60,-401
1782,-271,-110,994,46,60,-424
1783,-265,-115,1005,30,26,-419
1784,-293,-109,1008,77,-15,-403
1785,-276,-124,998,106,-30,-403
1786,-278,-140,986,51,-54,-424
1787,-277,-119,981,-48,-34,-469
1788,-264,-124,993,-109,3,-485
1789,-271,-127,980,-46,-18,-503
1790,-275,-124,994,59,-26,-526
1791,-278,-102,987,98,7,-536
1792,-271,-94,999,96,40,-540
1793,-257,-95,1008,59,38,-528
1794,-259,-101,999,24,3,-538
1795,-272,-85,997,-5,-32,-528
1796,-262,-104,980,18,-65,-497
1797,-274,-98,972,110,-100,-510
1798,-274,-93,974,169,-106,-524
1799,-270,-83,952,173,-59,-538
1800,-271,-67,984,126,-38,-542
1801,-273,-71,987,100,-20,-528
1802,-241,-80,958,106,-22,-518
1803,-267,-77,947,114,-30,-516
1804,-255,-73,964,128,5,-493
1805,-251,-67,971,174,38,-481
1806,-262,-65,983,255,1,-493
1807,-267,-61,990,272,-15,-493
1808,-266,-70,1003,186,-11,-477
1809,-266,-82,1002,30,-13,-506
1810,-265,-85,1000,-193,-22,-526
1811,-258,-83,979,-275,-61,-514
1812,-265,-93,940,-175,-85,-503
1813,-244,-102,932,-29,-114,-467
1814,-270,-110,932,157,-120,-477
1815,-265,-106,930,225,-67,-489
1816,-265,-92,950,174,38,-491
1817,-245,-81,976,65,112,-501
1818,-253,-91,973,-38,107,-504
1819,-251,-100,984,-76,69,-512
1820,-238,-95,984,-31,34,-503
1821,-258,-105,973,55,3,-475
1822,-267,-104,970,161,-1,-463
1823,-271,-99,981,237,19,-456
1824,-262,-93,989,325,21,-452
1825,-253,-77,970,401,1,-477
1826,-258,-95,985,346,11,-483
1827,-267,-84,991,155,71,-520
1828,-264,-81,1012,-81,136,-559
1829,-258,-70,1019,-261,112,-538
1830,-256,-86,978,-269,15,-483
1831,-264,-103,966,-117,-85,-475
1832,-272,-98,960,10,-110,-444
1833,-263,-103,952,122,-79,-432
1834,-267,-87,958,192,-11,-487
1835,-257,-87,967,153,64,-499
1836,-268,-106,989,89,122,-518
1837,-267,-94,993,5,150,-557
1838,-254,-67,1014,-144,153,-555
1839,-245,-80,1011,-201,136,-516
1840,-246,-86,1008,-152,62,-506
1841,-258,-83,1007,-44,-24,-493
1842,-252,-93,985,46,-67,-473
1843,-251,-98,976,73,-77,-463
1844,-256,-88,966,40,-58,-477
1845,-255,-86,982,-19,3,-473
1846,-257,-89,991,-46,58,-477
1847,-253,-97,995,-50,81,-463
1848,-265,-76,994,-29,67,-471
1849,-264,-70,993,26,54,-452
1850,-266,-70,1008,87,38,-395
1851,-254,-99,982,194,-32,-370
1852,-259,-89,976,286,-102,-389
1853,-263,-73,970,284,-95,-395
1854,-252,-72,964,233,-36,-405
1855,-237,-80,980,137,5,-450
1856,-249,-56,967,14,5,-461
1857,-255,-48,973,-81,34,-434
1858,-238,-70,985,-103,32,-417
1859,-251,-58,977,-56,-15,-409
1860,-256,-39,970,91,-26,-358
1861,-231,-58,961,247,-46,-264
1862,-250,-66,960,337,-81,-241
1863,-256,-63,968,276,-50,-247
1864,-245,-75,948,120,23,-229
1865,-239,-90,948,22,60,-239
1866,-257,-75,952,-64,89,-274
1867,-240,-80,945,-148,134,-276
1868,-244,-88,948,-146,153,-280
1869,-257,-87,965,-79,128,-270
1870,-249,-73,961,108,112,-213
1871,-248,-73,972,374,99,-174
1872,-244,-87,986,460,69,-143
1873,-239,-102,976,370,54,-133
1874,-256,-105,969,231,56,-174
1875,-274,-90,977,133,71,-198
1876,-271,-83,969,92,112,-215
1877,-266,-75,1014,34,150,-239
1878,-246,-66,989,-1,138,-247
1879,-240,-72,1004,-19,56,-213
1880,-247,-71,992,14,-26,-184
1881,-257,-74,977,112,-56,-176
1882,-261,-73,957,186,-34,-176
1883,-272,-67,953,167,21,-170
1884,-257,-53,978,55,99,-170
1885,-244,-47,995,-70,118,-159
1886,-241,-60,987,-146,91,-128
1887,-245,-75,969,-132,67,-126
1888,-247,-72,971,-118,67,-120
1889,-249,-64,978,-42,89,-100
1890,-264,-57,985,106,105,-53
1891,-258,-76,990,216,93,-30
1892,-248,-93,984,173,56,-26
1893,-265,-100,980,42,36,-28
1894,-277,-73,986,-42,62,-65
1895,-251,-71,977,-58,128,-36
1896,-248,-75,1002,20,93,17
1897,-251,-94,1004,106,44,25
1898,-262,-97,988,92,-1,25
1899,-266,-94,995,18,25,37
1900,-259,-107,988,-72,81,42
1901,-261,-119,985,-107,67,13
1902,-270,-131,979,-128,52,-4
1903,-273,-139,965,-165,62,-36
1904,-271,-144,970,-230,116,-63
1905,-265,-129,973,-277,155,-69
1906,-271,-130,956,-199,167,-100
1907,-283,-113,1001,-56,150,-57
1908,-269,-120,1006,159,93,48
1909,-275,-151,1002,333,-11,39
1910,-279,-154,1002,262,-73,-10
1911,-282,-150,985,49,-48,-47
1912,-268,-132,984,-136,17,-110
1913,-259,-127,962,-216,25,-172
1914,-265,-114,991,-158,-24,-153
1915,-253,-96,976,24,-15,-122
1916,-267,-113,982,221,-44,-71
1917,-274,-111,993,301,-85,-57
1918,-267,-108,993,225,-63,-67
1919,-256,-112,986,75,-36,-94
1920,-263,-109,967,-58,-59,-126
1921,-268,-114,961,-128,-79,-141
1922,-273,-95,940,-97,-42,-145
1923,-269,-91,944,40,21,-133
1924,-263,-83,964,133,91,-92
1925,-267,-73,996,184,116,-79
1926,-245,-72,996,167,91,-49
1927,-250,-82,1009,102,38,-45
1928,-259,-74,995,20,34,-53
1929,-258,-66,1003,-42,67,-47
1930,-245,-68,1021,-58,73,-44
1931,-253,-54,1044,-27,42,-30
1932,-265,-55,1049,18,17,3
1933,-265,-72,1078,26,26,23
1934,-280,-71,1085,-36,67,7
1935,-252,-62,1097,-132,120,21
1936,-255,-19,1160,-185,163,21
1937,-260,-16,1210,-191,189,21
1938,-249,-17,1246,-275,196,72
1939,-232,-15,1324,-273,189,74
1940,-224,25,1371,-154,200,109
1941,-253,64,1436,18,214,222
1942,-314,84,1542,288,267,289
1943,-336,113,1653,432,273,400
1944,-386,91,1782,456,177,511
1945,-386,44,1881,180,-83,578
1946,-409,8,1946,-413,-556,622
1947,-403,-8,1935,-990,-1159,730
1948,-440,-11,1890,-1228,-1725,865
1949,-489,-22,1841,-870,-2128,1029
1950,-504,-67,1783,-275,-2354,1244
1951,-484,-106,1767,323,-2380,1404
1952,-542,-131,1805,905,-2425,1382
1953,-569,-146,1801,971,-2446,1458
1954,-594,-156,1830,846,-2372,1437
1955,-598,-157,1872,551,-2444,1433
1956,-597,-169,1886,272,-2821,1517
1957,-615,-196,1867,147,-3460,1580
1958,-674,-230,1791,239,-4165,1624
1959,-693,-308,1735,415,-4780,1615
1960,-733,-366,1660,522,-5356,1492
1961,-748,-428,1559,333,-5847,1421
1962,-724,-454,1426,57,-6210,1228
1963,-716,-453,1322,-109,-6481,890
1964,-678,-426,1227,-261,-6675,621
1965,-633,-396,1111,-341,-6913,378
1966,-580,-334,991,-314,-7198,164
1967,-533,-277,860,-234,-7446,54
1968,-470,-231,705,-134,-7600,-88
1969,-394,-164,530,30,-7571,-215
1970,-331,-127,361,165,-7403,-243
1971,-236,-92,185,120,-7059,-219
1972,-133,-4,25,83,-6438,-272
1973,-33,65,-69,67,-5794,-317
1974,58,150,-146,133,-5079,-307
1975,157,204,-221,280,-4364,-180
1976,273,219,-281,346,-3702,111
1977,340,235,-308,526,-3169,392
1978,426,244,-329,954,-2647,630
1979,519,236,-336,1342,-2208,853
1980,580,218,-335,1760,-1917,1097
1981,609,223,-331,2241,-1657,1298
1982,622,185,-316,2696,-1401,1439
1983,639,137,-276,3036,-1097,1482
1984,636,109,-223,3198,-724,1355
1985,601,101,-183,2983,-313,1206
1986,593,71,-126,2372,134,1109
1987,606,70,-70,1725,636,956
1988,624,95,-10,1098,1067,828
1989,629,114,48,571,1292,790
1990,604,142,91,264,1405,785
1991,602,147,129,163,1474,800
1992,606,141,170,217,1470,863
1993,567,123,208,467,1337,943
1994,567,78,212,844,1163,988
1995,524,29,224,981,1085,1031
1996,499,-19,236,870,1067,1070
1997,480,-15,230,686,1241,966
1998,435,16,243,587,1509,781
1999,400,48,272,411,1734,638
2000,365,90,298,161,1970,525
2001,331,133,308,-117,2153,443
2002,369,119,313,-409,2296,456
2003,392,69,315,-695,2431,519
2004,373,83,307,-937,2528,556
2005,316,103,358,-898,2685,697
2006,240,80,392,-452,2816,874
2007,135,69,438,139,2927,949
2008,99,41,507,485,3150,966
2009,139,-29,558,485,3411,972
2010,206,-89,625,368,3659,841
2011,177,-74,700,137,3775,695
2012,106,-36,784,-132,3710,621
2013,62,-35,805,-286,3673,646
2014,8,-11,819,-271,3610,662
2015,-120,29,855,-105,3589,599
2016,-136,7,902,-9,3700,566
2017,-83,-81,900,-251,3896,615
2018,-33,-146,913,-570,3966,632
2019,-53,-177,909,-784,3901,496
2020,-76,-147,920,-951,3827,486
2021,-145,-110,925,-763,3843,593
2022,-216,-105,964,-158,3821,644
2023,-266,-43,1057,471,3948,658
2024,-259,-68,1149,1010,4181,712
2025,-248,-138,1223,1229,4441,800
2026,-260,-137,1302,940,4546,896
2027,-301,-175,1343,456,4460,812
2028,-365,-167,1380,-74,4198,701
2029,-406,-143,1397,-519,3911,640
2030,-441,-106,1410,-626,3732,671
2031,-399,-162,1417,-353,3667,814
2032,-394,-201,1421,38,3560,867
2033,-407,-206,1443,331,3390,869
2034,-441,-190,1469,510,3372,906
2035,-484,-182,1518,676,3353,816
2036,-489,-163,1581,589,3366,718
2037,-517,-149,1631,370,3323,607
2038,-483,-183,1685,73,2993,435
2039,-424,-210,1697,-197,2495,353
2040,-434,-208,1652,-294,1825,378
2041,-475,-200,1578,-193,1241,378
2042,-485,-184,1524,-52,923,318
2043,-465,-215,1478,-27,792,339
2044,-448,-225,1436,-33,724,331
2045,-448,-221,1414,22,700,257
2046,-461,-256,1397,71,694,224
2047,-438,-291,1409,59,683,150
2048,-451,-301,1409,7,567,29
2049,-448,-327,1411,-13,368,-65
2050,-455,-311,1393,26,153,-190
2051,-459,-284,1364,96,-91,-280
2052,-455,-279,1315,128,-335,-338
2053,-453,-256,1291,217,-534,-426
2054,-435,-254,1234,303,-686,-477
2055,-401,-263,1161,303,-796,-536
2056,-389,-290,1110,251,-886,-643
2057,-390,-282,1057,139,-895,-799
2058,-390,-259,1017,-3,-815,-969
2059,-418,-182,1007,-89,-643,-1159
2060,-414,-110,1044,-140,-366,-1237
2061,-333,-71,1064,-165,-165,-1165
2062,-271,-62,1039,-27,-233,-1096
2063,-273,-34,1007,223,-470,-965
2064,-263,-15,981,594,-657,-827
2065,-266,16,972,887,-718,-727
2066,-264,59,964,1012,-681,-723
2067,-272,171,977,880,-561,-799
2068,-225,233,941,462,-374,-733
2069,-181,250,936,22,-233,-495
2070,-153,228,898,-161,-255,-356
2071,-144,227,866,-204,-323,-294
2072,-155,260,872,-117,-372,-329
2073,-181,303,859,276,-380,-335
2074,-221,307,859,633,-323,-231
2075,-242,273,896,749,-132,-118
2076,-219,227,888,489,130,-38
2077,-228,186,889,73,294,-8
2078,-251,142,891,-355,314,42
2079,-276,112,891,-603,325,21
2080,-282,107,885,-685,351,-6
2081,-280,106,893,-628,382,37
2082,-267,94,921,-335,378,89
2083,-266,87,918,-7,339,173
2084,-284,72,949,180,316,240
2085,-282,44,969,260,280,310
2086,-270,4,981,159,237,365
2087,-278,-17,949,57,157,328
2088,-295,-33,947,57,89,246
2089,-298,-10,944,77,81,160
2090,-306,5,978,12,181,95
2091,-301,5,984,-144,278,64
2092,-284,22,1016,-218,314,46
2093,-275,25,1005,-179,247,95
2094,-278,14,1007,-11,120,189
2095,-284,-34,988,190,-5,236
2096,-294,-46,980,290,-93,195
2097,-304,-62,951,229,-97,160
2098,-331,-61,951,71,-1,103
2099,-314,-42,962,-50,140,11
2100,-295,-18,977,-134,222,-4
2101,-296,-23,995,-128,210,-4
2102,-305,-33,997,-64,157,21
2103,-296,-38,1011,-9,114,25
2104,-304,-39,1013,3,89,17
2105,-302,-61,1006,-15,36,1
2106,-318,-62,993,-40,-9,-28
2107,-310,-57,985,-27,-40,-71
2108,-306,-64,978,-11,-54,-98
2109,-317,-46,971,-31,-22,-153
2110,-319,-12,974,-126,79,-174
2111,-287,-4,1001,-245,150,-124
2112,-282,-9,1012,-232,112,-94
2113,-285,2,1024,-159,-13,-69
2114,-287,-14,995,-109,-112,-30
2115,-296,-43,969,-38,-147,-16
2116,-296,-61,961,-23,-120,-42
2117,-301,-48,958,-74,-56,-102
2118,-307,-54,965,-122,-7,-151
2119,-291,-49,976,-146,28,-167
2120,-289,-18,996,-167,71,-192
2121,-272,-20,998,-165,46,-172
2122,-273,-4,997,-185,-34,-137
2123,-266,-7,978,-163,-99,-63
2124,-283,-26,958,-31,-159,-10
2125,-292,-28,946,143,-161,3
2126,-287,-44,956,243,-81,-10
2127,-283,-40,959,229,-15,-22
2128,-296,-26,982,128,36,-53
2129,-296,-29,992,-27,89,-75
2130,-271,-14,1005,-179,95,-86
2131,-278,-20,998,-255,32,-112
2132,-280,-19,982,-298,-34,-100
2133,-297,-32,977,-245,-71,-81
2134,-304,-24,963,-120,-42,-69
2135,-291,-28,983,-50,-7,-55
2136,-287,-30,988,-62,11,-49
2137,-302,-33,983,-93,15,-47
2138,-296,-28,976,-42,-3,-30
2139,-296,-41,974,10,-30,-24
2140,-288,-47,980,-15,-18,-53
2141,-284,-23,981,-105,40,-49
2142,-285,-18,981,-111,42,7
2143,-300,-36,974,44,-20,21
2144,-297,-46,970,147,-56,7
2145,-311,-45,990,108,-7,-24
2146,-317,-49,1005,-50,97,-55
2147,-276,-33,1016,-181,124,-124
2148,-278,-28,1015,-208,36,-145
2149,-284,-32,986,-177,-77,-104
2150,-279,-31,978,-74,-112,-61
2151,-285,-28,970,36,-85,-26
2152,-283,-39,982,100,-75,-20
2153,-285,-37,996,118,-89,-32
2154,-289,-37,986,69,-110,-40
2155,-277,-45,963,44,-104,-51
2156,-276,-40,978,-19,-87,-88
2157,-270,-39,956,-105,-75,-118
2158,-279,-18,952,-226,-58,-122
2159,-273,0,967,-195,-44,-81
2160,-274,-15,963,-54,-52,-44
2161,-297,-25,967,69,-77,-6
2162,-293,-40,971,100,-63,9
2163,-303,-55,968,46,-32,-10
2164,-297,-54,963,-46,-15,-57
2165,-292,-32,979,-115,-11,-92
2166,-288,-19,980,-136,3,-100
2167,-281,-9,973,-142,15,-94
2168,-278,-5,961,-144,3,-73
2169,-278,0,966,-126,-20,-16
2170,-276,-1,954,-27,-22,9
2171,-281,-25,946,61,-26,42
2172,-295,-46,953,94,-30,64
2173,-298,-50,979,94,7,27
2174,-289,-45,978,46,42,-38
2175,-288,-32,1012,-31,21,-75
2176,-281,-27,1010,-117,-15,-51
2177,-285,-28,989,-111,-73,-47
2178,-279,-39,994,-87,-124,-28
2179,-283,-21,951,-68,-128,-6
2180,-281,-25,951,-64,-89,-10
2181,-290,-36,954,-91,-42,-6
2182,-282,-32,970,-52,21,-10
2183,-282,-29,952,-13,42,7
2184,-280,-33,980,28,42,21
2185,-285,-35,984,65,36,25
2186,-271,-23,998,71,5,29
2187,-268,-22,985,42,-44,44
2188,-273,-19,966,22,-87,42
2189,-283,-35,955,8,-69,39
2190,-280,-48,953,-19,-13,29
2191,-281,-42,956,-81,46,-1
2192,-270,-47,964,-167,97,-36
2193,-270,-19,981,-202,81,-24
2194,-264,-25,989,-76,25,9
2195,-266,-41,988,100,-46,46
2196,-287,-40,976,165,-59,60
2197,-271,-51,989,83,-56,44
2198,-276,-52,976,-15,-67,5
2199,-277,-36,979,-91,-61,-30
2200,-271,-45,951,-140,-44,-22
2201,-271,-43,969,-148,-50,-32
2202,-287,-64,930,-163,-42,-30
2203,-287,-62,932,-158,19,-20
2204,-307,-51,973,-109,110,7
2205,-274,-47,991,-9,150,42
2206,-278,-55,995,102,105,64
2207,-282,-61,993,124,30,60
2208,-283,-65,992,67,9,39
2209,-283,-66,983,-25,5,11
2210,-293,-59,991,-117,25,-10
2211,-293,-69,999,-175,36,-38
2212,-293,-66,990,-199,25,-63
2213,-285,-58,998,-179,21,-67
2214,-284,-49,985,-95,25,-49
2215,-292,-66,983,3,5,-22
2216,-289,-64,970,63,-30,-6
2217,-289,-48,978,85,-46,1
2218,-282,-57,967,79,-30,11
2219,-276,-60,972,59,-1,-1
2220,-283,-40,969,36,11,-20
2221,-280,-32,971,30,-5,-26
2222,-287,-35,976,48,-9,-40
2223,-287,-34,972,53,-11,-16
2224,-278,-25,964,69,5,1
2225,-274,-22,958,85,-9,33
2226,-283,-52,977,118,-46,50
2227,-287,-48,948,135,-38,35
2228,-293,-57,959,63,7,11
2229,-285,-56,967,-15,67,-38
2230,-285,-40,983,-68,93,-63
2231,-280,-46,1001,-64,85,-47
2232,-288,-42,989,-11,28,-38
2233,-280,-42,989,-15,-16,-38
2234,-280,-50,963,-79,-32,-12
2235,-282,-44,969,-107,-34,1
2236,-273,-46,956,-62,-52,3
2237,-287,-56,944,8,-75,-4
2238,-283,-64,947,46,-46,-12
2239,-279,-53,932,46,36,-26
2240,-290,-58,958,26,107,-34
2241,-274,-38,980,5,142,-30
2242,-266,-31,992,20,128,-20
2243,-276,-31,996,63,54,-8
2244,-278,-31,1001,61,-5,13
2245,-279,-37,991,24,11,21
2246,-270,-54,1001,10,5,27
2247,-280,-46,981,-19,-24,7
2248,-289,-50,982,-40,-32,11
2249,-283,-56,958,7,3,21
2250,-297,-61,970,42,28,13
2251,-298,-73,984,26,46,-30
2252,-288,-58,998,-34,79,-61
2253,-283,-44,998,-89,79,-38
2254,-282,-38,1015,-50,38,-1
2255,-288,-51,982,12,-34,9
2256,-289,-54,975,32,-67,42
2257,-302,-88,968,-3,-65,23
2258,-301,-82,963,-83,-11,-30
2259,-291,-44,981,-136,62,-49
2260,-299,-56,994,-66,79,-44
2261,-286,-63,1000,48,40,-45
2262,-299,-54,1006,77,-11,-47
2263,-297,-56,985,26,-38,-42
2264,-291,-62,1003,-40,-50,-42
2265,-294,-62,982,-77,-73,-44
2266,-286,-60,969,-111,-79,-57
2267,-288,-66,964,-91,-75,-42
2268,-293,-85,970,18,-67,-38
2269,-300,-81,970,79,-38,-71
2270,-297,-79,978,26,-9,-88
2271,-295,-84,984,-62,9,-100
2272,-297,-83,990,-99,-11,-133
2273,-295,-65,997,-105,-34,-129
2274,-285,-84,984,-56,-75,-96
2275,-295,-101,989,10,-140,-122
2276,-308,-107,977,22,-173,-145
2277,-300,-142,965,8,-145,-176
2278,-288,-140,938,-27,-106,-237
2279,-283,-153,948,-81,-85,-297
2280,-293,-150,933,-97,-56,-352
2281,-294,-164,947,-136,-3,-403
2282,-299,-167,950,-271,54,-479
2283,-292,-169,985,-472,112,-528
2284,-271,-194,986,-632,132,-583
2285,-280,-227,987,-751,85,-659
2286,-304,-233,970,-857,67,-735
2287,-289,-196,965,-857,99,-753
2288,-282,-210,948,-583,99,-731
2289,-281,-202,959,-243,7,-698
2290,-292,-176,973,83,-59,-663
2291,-267,-186,965,362,-81,-590
2292,-270,-198,943,473,-99,-590
2293,-251,-191,965,315,-89,-633
2294,-255,-177,948,92,-48,-669
2295,-259,-137,937,-31,-26,-704
2296,-258,-114,944,-7,3,-682
2297,-250,-122,943,149,13,-637
2298,-259,-120,936,368,11,-620
2299,-268,-123,950,538,-11,-608
2300,-286,-114,960,622,19,-628
2301,-273,-110,987,546,69,-655
2302,-285,-94,1001,382,109,-690
2303,-285,-70,1006,196,109,-694
2304,-275,-82,1008,94,87,-682
2305,-292,-94,992,40,36,-700
2306,-297,-100,981,-42,34,-711
2307,-305,-117,979,-77,69,-706
2308,-298,-120,978,-17,75,-739
2309,-300,-95,960,128,71,-753
2310,-304,-86,981,346,60,-729
2311,-296,-104,987,516,17,-682
2312,-297,-117,988,551,-38,-708
2313,-300,-92,987,415,-15,-756
2314,-295,-90,989,180,54,-782
2315,-282,-80,1004,-38,81,-813
2316,-287,-80,990,-138,28,-821
2317,-272,-61,983,-74,-36,-795
2318,-288,-65,959,104,-89,-762
2319,-278,-71,944,354,-128,-706
2320,-293,-74,938,626,-112,-719
2321,-282,-51,967,663,-28,-715
2322,-263,-49,987,532,83,-711
2323,-251,-38,1005,317,105,-741
2324,-262,-15,1023,106,48,-745
2325,-250,-14,998,-64,-11,-711
2326,-254,-37,957,-85,-44,-667
2327,-265,-46,931,1,-71,-612
2328,-271,-49,925,139,-61,-557
2329,-285,-51,933,346,-5,-534
2330,-281,-57,956,450,79,-528
2331,-288,-55,971,424,155,-545
2332,-296,-51,1000,299,167,-538
2333,-273,-60,977,176,159,-545
2334,-267,-45,997,112,140,-547
2335,-275,-46,981,112,103,-518
2336,-291,-47,981,132,73,-497
2337,-279,-50,982,137,42,-479
2338,-292,-56,975,161,7,-467
2339,-288,-51,995,174,-30,-481
2340,-282,-56,971,221,-7,-512
2341,-280,-64,975,216,21,-532
2342,-293,-61,980,161,77,-557
2343,-291,-58,1000,106,112,-559
2344,-276,-47,1008,81,103,-536
2345,-268,-45,1006,141,40,-538
2346,-280,-42,995,171,-59,-514
2347,-300,-50,978,174,-89,-489
2348,-293,-39,995,169,-48,-465
2349,-279,-41,1002,149,-16,-452
2350,-278,-42,1016,126,-32,-426
2351,-278,-43,990,112,-77,-446
2352,-268,-48,988,49,-120,-432
2353,-274,-51,965,5,-83,-463
2354,-271,-61,956,-79,-15,-469
2355,-262,-58,972,-146,50,-465
2356,-281,-41,966,-97,54,-438
2357,-270,-48,995,38,30,-393
2358,-255,-58,975,161,-5,-364
2359,-270,-67,991,171,-40,-336
2360,-272,-73,971,89,-20,-338
2361,-278,-83,970,-36,7,-331
2362,-282,-96,980,-130,17,-336
2363,-289,-99,972,-126,32,-415
2364,-282,-90,977,-111,28,-403
2365,-274,-92,981,-31,15,-381
2366,-279,-74,974,69,-9,-374
2367,-268,-82,970,137,-36,-348
2368,-258,-83,973,174,-75,-335
2369,-263,-75,954,182,-122,-336
2370,-273,-73,952,190,-116,-336
2371,-290,-86,955,171,-48,-350
2372,-281,-89,979,89,44,-389
2373,-273,-94,986,-93,107,-403
2374,-271,-79,978,-204,112,-440
2375,-272,-55,990,-169,67,-452
2376,-270,-60,988,-31,17,-387
2377,-258,-79,971,126,-34,-344
2378,-273,-82,970,216,-63,-356
2379,-273,-70,967,186,-48,-354
2380,-265,-82,965,130,-13,-340
2381,-261,-78,965,94,-11,-358
2382,-271,-66,974,18,-1,-379
2383,-259,-68,964,-54,36,-378
2384,-268,-58,979,-76,67,-342
2385,-257,-46,981,5,73,-317
2386,-277,-54,987,118,48,-294
2387,-269,-56,985,171,23,-241
2388,-254,-73,997,216,-15,-215
2389,-262,-87,981,182,-63,-235
2390,-273,-98,985,57,-61,-260
2391,-271,-87,971,-68,-7,-313
2392,-280,-76,981,-140,52,-321
2393,-248,-52,980,-109,93,-294
2394,-259,-47,986,49,83,-270
2395,-262,-50,990,188,28,-235
2396,-252,-68,973,212,-9,-204
2397,-259,-70,977,139,-1,-192
2398,-263,-74,973,26,11,-192
2399,-263,-76,964,-29,25,-210
2400,-275,-68,960,-79,48,-208
2401,-261,-66,975,-87,69,-208
2402,-256,-54,966,-5,75,-210
2403,-261,-45,980,112,48,-170
2404,-264,-50,979,216,48,-128
2405,-266,-52,982,266,48,-94
2406,-263,-67,1006,217,48,-79
2407,-270,-70,999,120,44,-73
2408,-271,-71,1001,22,46,-81
2409,-274,-77,996,-54,46,-81
2410,-270,-90,1005,-105,46,-102
2411,-274,-92,993,-122,26,-122
2412,-276,-77,981,-95,-5,-131
2413,-278,-71,988,1,-38,-118
2414,-273,-79,971,159,-67,-108
2415,-276,-89,969,212,-93,-112
2416,-280,-90,968,147,-58,-116
2417,-275,-80,987,34,11,-141
2418,-278,-63,984,-62,77,-143
2419,-263,-47,1006,-74,81,-112
2420,-253,-57,1005,51,28,-88
2421,-260,-61,1002,143,-59,-51
2422,-266,-67,984,147,-77,-40
2423,-271,-67,971,87,-34,-26
2424,-254,-76,978,24,-15,-24
2425,-263,-71,985,-7,-28,-44
2426,-271,-82,965,-46,-32,-36
2427,-265,-87,959,-46,7,-36
2428,-271,-89,971,-40,38,-24
2429,-273,-89,990,-7,64,-32
2430,-261,-91,994,48,54,-18
2431,-258,-84,994,98,-1,11
2432,-264,-98,980,139,-69,-1
2433,-279,-90,980,89,-85,-24
2434,-270,-96,964,-1,-59,-34
2435,-256,-98,958,-56,-26,-63
2436,-268,-85,950,-99,-18,-94
2437,-272,-76,968,-122,25,-92
2438,-258,-86,973,-66,67,-61
2439,-257,-86,976,-5,56,-69
2440,-270,-89,973,-9,5,-57
2441,-251,-81,973,20,-9,-47
2442,-255,-89,955,34,-40,-36
2443,-262,-99,946,14,-46,-32
2444,-271,-88,951,-52,7,-36
2445,-272,-109,931,-158,58,-55
2446,-263,-109,951,-269,101,-96
2447,-263,-98,951,-267,101,-108
2448,-258,-106,928,-177,64,-108
2449,-266,-105,926,-87,38,-110
2450,-267,-107,936,-36,60,-133
2451,-267,-104,940,-54,110,-141
2452,-256,-106,942,-132,161,-161
2453,-238,-93,936,-238,189,-153
2454,-256,-95,942,-318,179,-149
2455,-251,-73,942,-292,198,-147
2456,-247,-79,957,-138,218,-86
2457,-271,-70,983,-42,222,-71
2458,-261,-70,1001,-134,261,-47
2459,-255,-110,1005,-320,267,-51
2460,-263,-105,1008,-533,235,-73
2461,-270,-99,982,-673,228,-75
2462,-278,-109,994,-617,218,-45
2463,-293,-126,972,-411,171,-38
2464,-296,-134,967,-284,142,-40
2465,-280,-134,978,-275,161,-38
2466,-267,-124,973,-310,189,-69
2467,-270,-114,981,-314,189,-83
2468,-278,-96,977,-247,189,-61
2469,-276,-103,993,-202,210,-1
2470,-295,-104,1000,-179,218,-1
2471,-295,-127,1027,-210,222,21
2472,-287,-118,1040,-197,198,15
2473,-286,-128,1043,1,157,44
2474,-296,-133,1068,258,109,99
2475,-321,-152,1113,467,134,80
2476,-315,-137,1205,493,194,-18
2477,-312,-109,1287,210,255,-59
2478,-308,-85,1415,-99,265,-149
2479,-300,-53,1486,-288,206,-278
2480,-310,-28,1555,-538,91,-258
2481,-351,-37,1678,-822,-11,-157
2482,-389,-14,1748,-831,-108,-55
2483,-423,-26,1843,-509,-265,117
2484,-409,-21,1903,-124,-481,386
2485,-429,9,1987,440,-765,673
2486,-510,-53,2048,950,-1165,706
2487,-581,-37,2048,1141,-1579,806
2488,-639,-41,2048,1032,-1856,869
2489,-659,-60,2048,897,-2153,972
2490,-620,-120,2048,725,-2638,1144
2491,-673,-148,2048,684,-3233,1146
2492,-696,-149,2001,737,-3700,1107
2493,-709,-146,1934,850,-4089,1126
2494,-725,-168,1882,940,-4405,1259
2495,-721,-198,1814,1014,-4618,1279
2496,-724,-192,1739,989,-4831,1261
2497,-735,-207,1650,905,-5075,1289
2498,-708,-222,1549,850,-5329,1277
2499,-703,-242,1409,688,-5597,1222
2500,-688,-215,1273,540,-5823,1247
2501,-629,-218,1113,565,-5999,1265
2502,-607,-211,961,745,-6159,1232
2503,-561,-221,817,866,-6288,1208
2504,-533,-215,697,903,-6313,1128
2505,-451,-205,555,704,-6165,1025
2506,-357,-177,443,426,-5962,896
2507,-250,-143,359,323,-5733,718
2508,-199,-123,319,319,-5608,558
2509,-98,-92,270,452,-5552,408
2510,-24,-78,209,448,-5550,369
2511,32,-50,128,383,-5587,314
2512,105,-38,26,204,-5585,279
2513,172,-5,-90,173,-5518,382
2514,214,3,-222,323,-5327,412
2515,310,46,-287,618,-4979,415
2516,390,47,-409,725,-4536,460
2517,465,83,-446,1124,-4011,542
2518,542,102,-431,1438,-3321,599
2519,577,138,-427,1762,-2575,615
2520,594,137,-343,2061,-1931,640
2521,597,129,-282,2083,-1417,695
2522,611,123,-200,2075,-933,708
2523,613,89,-149,1868,-497,669
2524,593,66,-81,1483,-173,611
2525,568,71,-15,1151,13,414
2526,577,100,12,938,142,203
2527,590,143,40,571,179,89
2528,590,214,24,182,177,99
2529,595,247,-8,5,189,218
2530,607,239,-80,12,253,371
2531,571,244,-119,85,401,499
2532,511,241,-139,145,696,648
2533,468,238,-139,342,1196,785
2534,436,203,-126,583,1689,865
2535,401,189,-73,749,2056,867
2536,358,195,-36,676,2317,872
2537,287,198,-5,553,2638,855
2538,271,200,66,407,2950,845
2539,232,219,113,264,3138,914
2540,235,181,152,348,3249,1025
2541,185,143,189,467,3355,1083
2542,179,157,248,399,3456,1046
2543,160,163,281,284,3597,935
2544,65,179,324,85,3728,925
2545,-28,214,392,-38,3968,974
2546,-1,175,470,8,4247,1044
2547,41,86,519,100,4484,1097
2548,-4,57,612,-97,4567,1070
2549,-17,69,703,-548,4778,1027
2550,-2,40,756,-935,5069,1164
2551,-120,20,835,-714,5132,1267
2552,-220,-24,945,-156,5019,1331
2553,-204,-50,1071,313,5085,1443
2554,-172,-119,1210,790,5339,1517
2555,-203,-182,1341,1270,5517,1490
2556,-212,-248,1504,1424,5618,1300
2557,-303,-287,1674,1362,5593,1113
2558,-374,-269,1832,997,5331,923
2559,-460,-162,1938,360,5040,644
2560,-462,-185,2033,-372,4692,615
2561,-341,-269,2026,-1111,4237,755
2562,-255,-289,1954,-1511,3675,794
2563,-292,-252,1891,-1562,2995,779
2564,-366,-217,1856,-1076,2493,886
2565,-404,-267,1834,-361,2261,970
2566,-440,-312,1817,-89,2095,865
2567,-458,-329,1795,-380,2003,716
2568,-435,-379,1738,-833,1866,554
2569,-408,-390,1677,-1148,1636,386
2570,-363,-359,1602,-1409,1366,146
2571,-335,-317,1530,-1445,1077,-57
2572,-358,-257,1490,-1202,798,-139
2573,-355,-178,1456,-679,614,-131
2574,-311,-207,1423,-128,472,-61
2575,-283,-224,1397,75,271,-45
2576,-267,-188,1345,-62,175,-124
2577,-230,-161,1308,-357,95,-110
2578,-232,-130,1272,-476,-11,-79
2579,-222,-140,1205,-476,-118,-16
2580,-225,-137,1164,-314,-153,-69
2581,-230,-110,1114,-165,-99,-157
2582,-232,-65,1115,12,25,-194
2583,-202,-29,1103,274,136,-141
2584,-200,-6,1116,467,140,-83
2585,-189,-8,1112,460,151,-67
2586,-165,-22,1125,243,140,-24
2587,-155,-40,1085,1,46,1
2588,-151,-48,1067,-167,-130,-53
2589,-172,-51,1026,-267,-278,-110
2590,-179,-43,996,-372,-304,-143
2591,-201,-21,985,-400,-181,-180
2592,-200,-21,981,-298,-1,-129
2593,-189,-22,998,-124,132,-28
2594,-180,-54,1041,26,140,48
2595,-168,-82,1020,110,81,9
2596,-180,-56,1043,108,17,-8
2597,-186,-43,1035,161,-20,29
2598,-185,-37,1030,272,-65,3
2599,-191,-20,1027,276,-104,-4
2600,-211,-27,1046,122,-67,-32
2601,-200,-14,1028,-113,-11,-18
2602,-180,-16,1025,-259,3,-4
2603,-189,-18,1030,-210,-40,17
2604,-195,-21,1017,-83,-83,29
2605,-191,-33,1011,-13,-77,27
2606,-193,-40,1011,-56,-50,25
2607,-201,-25,1003,-87,-34,1
2608,-186,-13,1008,28,-48,37
2609,-173,-39,996,196,-110,64
2610,-185,-41,983,260,-147,64
2611,-184,-45,974,229,-145,70
2612,-213,-44,1006,104,-77,111
2613,-202,-44,1004,67,-1,54
2614,-193,-45,1007,48,13,17
2615,-195,-57,1013,26,-71,1
2616,-195,-56,992,-19,-106,-22
2617,-176,-42,986,-23,-132,-6
2618,-169,-31,978,55,-141,17
2619,-168,-29,989,155,-147,46
2620,-163,-41,982,186,-153,87
2621,-171,-52,997,126,-138,66
2622,-174,-50,978,20,-97,58
2623,-183,-36,977,-42,7,58
2624,-160,-48,989,-42,89,52
2625,-177,-31,1022,-38,89,44
2626,-178,-42,1033,-42,36,46
2627,-187,-51,1016,-54,-26,76
2628,-182,-75,1012,-76,-79,80
2629,-193,-57,985,-99,-97,46
2630,-174,-45,989,-103,-102,93
2631,-173,-48,983,-31,-91,146
2632,-167,-54,977,32,-102,171
2633,-191,-63,978,128,-81,124
2634,-188,-64,975,151,-26,44
2635,-178,-45,983,18,42,15
2636,-162,-44,997,-120,56,11
2637,-160,-46,998,-199,32,9
2638,-161,-37,1007,-185,-24,21
2639,-176,-46,993,-83,-79,46
2640,-183,-50,995,7,-81,70
2641,-194,-64,987,55,-59,76
2642,-188,-74,991,24,-15,56
2643,-181,-61,988,-29,30,31
2644,-178,-66,982,-54,64,21
2645,-185,-69,989,-52,75,7
2646,-182,-66,998,-68,89,-26
2647,-181,-58,1010,-105,116,-28
2648,-180,-55,1003,-146,116,-22
2649,-176,-48,999,-173,95,-14
2650,-170,-42,999,-161,73,-18
2651,-165,-48,1013,-97,40,5
2652,-168,-60,1011,-25,-1,25
2653,-170,-48,1018,20,-38,31
2654,-177,-70,1007,14,-77,50
2655,-170,-69,978,-7,-89,31
2656,-175,-70,986,-54,-56,15
2657,-175,-62,973,-101,-15,3
2658,-180,-55,984,-105,32,-10
2659,-177,-58,990,-54,46,-4
2660,-180,-53,986,-21,32,-6
2661,-183,-63,1006,-38,19,-8
2662,-192,-56,1034,-34,5,17
2663,-175,-66,1008,7,-11,42
2664,-179,-63,999,57,-50,35
2665,-182,-55,1002,48,-58,52
2666,-180,-72,999,51,-22,50
2667,-182,-72,994,61,-30,64
2668,-188,-81,986,59,-54,5
2669,-198,-68,979,-5,-32,-73
2670,-197,-61,1002,-152,56,-83
2671,-180,-67,1022,-267,110,-65
2672,-173,-48,1033,-222,69,-90
2673,-165,-29,1017,-117,-28,-55
2674,-179,-60,1002,18,-89,17
2675,-184,-86,973,106,-97,27
2676,-188,-101,977,75,-61,-4
2677,-183,-90,976,-17,13,-36
2678,-175,-72,990,-64,91,-108
2679,-172,-50,1022,-66,110,-124
2680,-169,-55,1025,-36,81,-110
2681,-183,-23,1037,-25,42,-81
2682,-166,-32,1031,1,-7,-16
2683,-169,-50,1007,18,-77,23
2684,-158,-64,990,3,-153,17
2685,-185,-72,965,-72,-161,23
2686,-183,-67,978,-120,-104,31
2687,-195,-90,941,-81,-59,17
2688,-193,-92,949,-11,3,-65
2689,-196,-93,975,-7,128,-108
2690,-190,-70,1005,-36,245,-145
2691,-174,-57,1012,-144,275,-151
2692,-178,-31,1016,-218,239,-137
2693,-171,-14,1017,-179,161,-73
2694,-155,-28,1004,-118,62,35
2695,-164,-62,980,-60,-36,66
2696,-184,-90,950,-97,-69,66
2697,-195,-94,952,-122,13,48
2698,-207,-99,965,-76,153,27
2699,-202,-92,981,89,237,-55
2700,-191,-73,992,235,226,-90
2701,-183,-89,986,286,185,-79
2702,-188,-74,1001,257,167,-94
2703,-198,-60,1016,153,155,-106
2704,-186,-34,1040,-23,175,-98
2705,-192,-31,1035,-144,150,-44
2706,-180,-50,1026,-152,46,3
2707,-188,-87,992,-115,-71,11
2708,-210,-103,971,-83,-77,-18
2709,-210,-100,985,-72,11,-63
2710,-194,-79,989,-54,89,-104
2711,-200,-74,995,5,99,-114
2712,-193,-92,993,91,64,-98
2713,-200,-90,984,188,26,-114
2714,-204,-80,988,217,34,-112
2715,-206,-84,1014,184,77,-98
2716,-191,-83,1024,94,103,-108
2717,-190,-82,1023,-23,81,-110
2718,-191,-91,1018,-101,36,-126
2719,-189,-103,982,-109,3,-143
2720,-194,-122,975,-81,-3,-159
2721,-203,-118,964,3,48,-190
2722,-201,-105,984,98,93,-210
2723,-185,-107,1010,188,105,-211
2724,-198,-94,1013,188,103,-211
2725,-182,-100,1013,71,91,-194
2726,-179,-95,1020,-54,79,-206
2727,-192,-105,1005,-148,67,-204
2728,-190,-115,1000,-175,56,-211
2729,-187,-127,1009,-91,19,-227
2730,-199,-139,983,22,-20,-231
2731,-209,-151,963,126,1,-245
2732,-215,-165,976,198,48,-282
2733,-220,-163,992,204,91,-352
2734,-208,-138,1022,151,120,-387
2735,-217,-119,1043,110,126,-411
2736,-194,-111,1056,73,91,-399
2737,-191,-120,1039,-3,13,-403
2738,-196,-131,1017,-101,-71,-432
2739,-216,-131,1000,-148,-97,-436
2740,-212,-144,982,-101,-79,-452
2741,-209,-147,980,-25,-52,-499
2742,-215,-143,958,34,-15,-532
2743,-213,-146,968,55,28,-544
2744,-215,-132,995,98,93,-553
2745,-196,-139,1016,118,136,-577
2746,-192,-123,1027,32,153,-588
2747,-188,-125,1049,-87,112,-583
2748,-198,-143,1037,-152,19,-606
2749,-212,-135,1008,-150,-67,-624
2750,-212,-146,981,-76,-89,-639
2751,-217,-155,966,22,-69,-661
2752,-213,-156,962,118,-9,-688
2753,-216,-159,963,178,60,-729
2754,-223,-134,978,176,101,-762
2755,-205,-132,1013,91,112,-782
2756,-199,-110,1023,-38,91,-795
2757,-197,-125,1029,-187,26,-803
2758,-200,-120,994,-341,-16,-831
2759,-198,-101,968,-339,-42,-825
2760,-193,-110,948,-163,-50,-770
2761,-208,-119,955,87,-22,-745
2762,-211,-128,955,235,26,-768
2763,-209,-117,965,249,97,-772
2764,-203,-107,988,241,144,-756
2765,-215,-106,1012,216,173,-801
2766,-196,-92,1033,141,161,-848
2767,-198,-85,1024,40,110,-850
2768,-202,-81,1019,-15,54,-840
2769,-203,-81,1007,34,5,-809
2770,-208,-93,988,132,-58,-788
2771,-210,-95,968,212,-85,-782
2772,-221,-105,970,237,-56,-778
2773,-220,-103,982,227,26,-833
2774,-207,-88,990,155,91,-870
2775,-208,-79,1001,71,97,-883
2776,-207,-65,1015,1,67,-895
2777,-189,-63,1001,-33,32,-856
2778,-207,-74,990,-40,-15,-805
2779,-198,-86,978,24,-38,-801
2780,-208,-84,947,128,-42,-778
2781,-204,-90,961,212,-38,-762
2782,-205,-89,958,253,5,-745
2783,-205,-112,978,296,64,-760
2784,-210,-89,988,317,120,-795
2785,-222,-76,1000,278,187,-815
2786,-213,-54,1028,153,224,-801
2787,-200,-55,1027,-29,214,-754
2788,-187,-69,1030,-150,142,-710
2789,-178,-72,985,-138,40,-721
2790,-195,-90,985,-107,-59,-688
2791,-204,-91,960,40,-79,-706
2792,-223,-87,977,141,-15,-737
2793,-221,-85,981,163,109,-747
2794,-206,-96,998,141,187,-758
2795,-207,-90,1011,96,181,-778
2796,-210,-83,1022,69,148,-774
2797,-205,-81,1021,69,99,-764
2798,-199,-76,1016,85,62,-792
2799,-206,-61,1015,63,5,-786
2800,-196,-56,990,69,-26,-758
2801,-203,-58,988,157,-67,-745
2802,-187,-55,982,214,-95,-698
2803,-186,-70,969,255,-83,-670
2804,-195,-76,974,235,-61,-667
2805,-210,-81,966,214,-7,-696
2806,-203,-77,977,163,44,-727
2807,-236,-67,983,94,48,-706
2808,-203,-61,993,87,91,-688
2809,-197,-66,1005,106,81,-680
2810,-198,-52,999,137,32,-659
2811,-183,-44,1002,149,40,-655
2812,-184,-38,996,143,5,-653
2813,-190,-41,996,108,-63,-641
2814,-199,-34,993,51,-97,-624
2815,-191,-40,979,1,-67,-581
2816,-177,-48,975,1,-65,-536
2817,-207,-61,971,65,-81,-524
2818,-196,-41,965,155,-38,-514
2819,-204,-51,978,194,56,-522
2820,-191,-41,996,176,126,-524
2821,-178,-31,999,149,144,-512
2822,-188,-35,1010,155,79,-504
2823,-189,-24,1015,173,30,-491
2824,-182,-18,1009,128,34,-469
2825,-182,-23,1001,53,46,-448
2826,-172,-28,1002,-21,25,-420
2827,-187,-22,991,-21,-20,-374
2828,-186,-38,977,22,-54,-311
2829,-189,-58,972,79,-34,-313
2830,-194,-60,969,59,7,-313
2831,-199,-71,977,16,83,-338
2832,-200,-70,991,-23,150,-381
2833,-204,-58,994,-38,167,-420
2834,-185,-45,1008,-58,153,-385
2835,-180,-54,1007,-62,110,-295
2836,-196,-77,984,-29,42,-278
2837,-201,-86,975,14,11,-276
2838,-205,-92,968,1,38,-270
2839,-204,-99,955,-23,89,-260
2840,-202,-113,977,8,132,-274
2841,-205,-128,959,10,144,-307
2842,-215,-113,971,1,159,-352
2843,-197,-87,994,-13,204,-354
2844,-220,-53,1043,-60,171,-352
2845,-178,-54,1030,53,218,-342
2846,-167,-77,1026,55,101,-297
2847,-180,-80,1012,44,-38,-292
2848,-203,-90,976,5,-54,-309
2849,-202,-89,955,26,25,-323
2850,-199,-78,965,57,95,-338
2851,-208,-66,982,61,150,-350
2852,-193,-55,1001,61,161,-352
2853,-197,-70,1009,42,120,-333
2854,-187,-70,994,22,67,-297
2855,-191,-62,984,34,64,-237
2856,-195,-66,983,81,83,-233
2857,-199,-67,991,44,116,-217
2858,-193,-69,997,-60,150,-227
2859,-206,-56,1002,-150,175,-235
2860,-198,-76,1001,-212,155,-231
2861,-191,-92,990,-230,107,-245
2862,-194,-92,965,-247,85,-254
2863,-216,-76,950,-195,134,-245
2864,-214,-67,985,-66,210,-200
2865,-204,-63,1027,145,220,-145
2866,-204,-82,1021,313,126,-96
2867,-203,-88,1007,327,38,-92
2868,-213,-113,1013,171,26,-112
2869,-207,-105,1001,-36,93,-151
2870,-208,-90,987,-187,142,-184
2871,-194,-82,1002,-165,122,-182
2872,-195,-84,985,-48,71,-169
2873,-207,-83,979,65,38,-143
2874,-199,-98,983,159,58,-100
2875,-210,-99,983,184,60,-94
2876,-204,-112,996,141,64,-114
2877,-204,-109,1012,40,95,-131
2878,-205,-117,1012,-83,116,-137
2879,-217,-105,1002,-167,95,-167
2880,-216,-99,999,-232,73,-170
2881,-208,-103,982,-238,71,-157
2882,-209,-110,983,-185,85,-129
2883,-199,-124,973,-50,89,-116
2884,-220,-130,977,57,67,-122
2885,-230,-131,988,85,99,-143
2886,-224,-113,994,73,151,-170
2887,-215,-109,1018,46,157,-153
2888,-218,-101,1032,69,112,-147
2889,-228,-99,1003,81,50,-151
2890,-221,-112,999,57,7,-124
2891,-222,-128,991,12,3,-129
2892,-215,-122,980,-9,7,-153
2893,-223,-113,966,10,19,-161
2894,-218,-102,988,77,34,-172
2895,-220,-108,999,155,30,-172
2896,-222,-101,975,198,7,-188
2897,-213,-85,993,149,7,-180
2898,-216,-94,977,61,25,-165
2899,-200,-97,974,-1,36,-204
2900,-200,-98,974,-79,32,-217
2901,-199,-80,980,-132,60,-219
2902,-199,-63,979,-126,93,-178
2903,-186,-75,984,-36,73,-126
2904,-194,-85,960,44,30,-108
2905,-206,-82,975,75,36,-61
2906,-202,-94,970,94,103,-26
2907,-214,-117,988,73,157,-26
2908,-219,-105,1001,28,183,-47
2909,-222,-109,1015,-23,200,-59
2910,-219,-93,1024,-74,214,-67
2911,-236,-86,1068,-58,222,-53
2912,-228,-98,1074,-52,210,-49
2913,-236,-103,1087,-77,222,-98
2914,-214,-109,1114,-275,210,-79
2915,-197,-116,1081,-363,136,-61
2916,-225,-114,1101,-326,28,-73
2917,-230,-88,1129,-228,25,-92
2918,-210,-56,1161,-109,69,-86
2919,-237,-45,1234,42,73,-71
2920,-261,-20,1320,225,52,-114
2921,-230,14,1393,382,77,-157
2922,-245,7,1471,296,79,-47
2923,-248,16,1525,63,-46,177
2924,-272,-24,1619,-34,-247,292
2925,-301,-36,1679,55,-462,353
2926,-311,-38,1719,257,-663,371
2927,-330,-27,1807,415,-829,417
2928,-338,16,1899,561,-958,486
2929,-339,62,1970,727,-1138,628
2930,-353,41,1988,899,-1477,812
2931,-366,11,1967,971,-1864,956
2932,-385,-9,1943,956,-2266,994
2933,-412,-26,1923,821,-2665,1017
2934,-451,-47,1874,587,-3038,1097
2935,-474,-57,1804,466,-3309,1169
2936,-464,-104,1761,409,-3479,1253
2937,-462,-135,1686,411,-3663,1328
2938,-459,-151,1676,608,-3911,1367
2939,-470,-161,1627,964,-4126,1369
2940,-472,-187,1612,1167,-4294,1406
2941,-478,-201,1575,1120,-4462,1396
2942,-487,-229,1517,997,-4729,1400
2943,-486,-240,1426,858,-4989,1423
2944,-496,-240,1350,747,-5251,1359
2945,-472,-245,1267,520,-5489,1247
2946,-400,-250,1112,221,-5774,1165
2947,-361,-208,965,51,-6091,1001
2948,-326,-184,814,-27,-6380,898
2949,-224,-154,649,-107,-6487,804
2950,-173,-87,494,-52,-6466,726
2951,-163,-48,367,73,-6341,677
2952,-85,-34,271,173,-6009,621
2953,-9,6,182,243,-5558,589
2954,58,19,125,280,-5143,601
2955,120,28,82,387,-4745,691
2956,184,39,95,518,-4452,728
2957,270,43,89,790,-4249,730
2958,338,60,74,1069,-4218,773
2959,348,50,38,1307,-4284,802
2960,347,30,-9,1479,-4192,843
2961,329,-22,-64,1321,-3860,792
2962,341,-48,-151,1005,-3407,714
2963,392,-21,-215,544,-2831,490
2964,413,1,-248,216,-2224,326
2965,459,41,-278,55,-1673,242
2966,532,121,-307,-156,-1175,109
2967,553,187,-301,-115,-794,66
2968,602,238,-317,237,-573,167
2969,629,302,-302,751,-411,271
2970,621,339,-287,1296,-319,478
2971,584,299,-297,1604,-95,658
2972,561,244,-264,1542,280,783
2973,532,200,-226,1151,759,806
2974,555,212,-200,665,1175,728
2975,530,228,-183,225,1409,712
2976,491,238,-191,110,1536,822
2977,446,220,-189,399,1632,894
2978,431,180,-179,751,1829,941
2979,411,158,-171,817,2118,997
2980,372,166,-167,868,2401,958
2981,331,174,-124,885,2769,878
2982,343,226,-56,846,3280,859
2983,301,309,29,813,3816,941
2984,192,312,164,997,4357,1187
2985,101,264,284,1182,4780,1400
2986,48,211,391,1153,5095,1501
2987,8,158,496,799,5192,1546
2988,-5,87,564,63,5032,1576
2989,-45,124,559,-400,4921,1644
2990,-134,149,642,44,4921,1794
2991,-132,77,697,841,5021,1964
2992,-162,10,766,1467,5267,2003
2993,-233,-59,864,1391,5597,1880
2994,-296,-90,948,614,5952,1615
2995,-254,-96,982,-425,6122,1458
2996,-356,17,1035,-829,6067,1488
2997,-421,-9,1161,-208,5753,1605
2998,-268,-173,1252,1020,5624,1789
2999,-244,-169,1327,1790,5696,1705
3000,-264,-182,1483,1835,5689,1451
3001,-313,-116,1624,1360,5778,1310
3002,-377,-49,1744,1010,5808,1287
3003,-477,-64,1942,903,5651,1179
3004,-540,-99,2048,964,5120,1097
3005,-479,-157,2048,839,4509,1021
3006,-418,-225,2048,188,3685,1046
3007,-418,-229,2048,-447,2810,968
3008,-482,-188,1964,-646,2253,869
3009,-509,-214,1884,-497,1915,896
3010,-518,-226,1806,-152,1681,789
3011,-524,-222,1732,-64,1536,566
3012,-471,-208,1684,-261,1470,421
3013,-421,-209,1633,-677,1392,318
3014,-373,-188,1574,-1097,1257,206
3015,-375,-208,1518,-1441,1021,140
3016,-380,-208,1448,-1583,757,72
3017,-384,-218,1405,-1589,630,76
3018,-404,-199,1377,-1419,571,-14
3019,-381,-195,1337,-1117,507,-153
3020,-335,-216,1288,-911,421,-245
3021,-304,-218,1261,-851,351,-268
3022,-290,-195,1231,-755,261,-305
3023,-278,-161,1217,-615,167,-284
3024,-275,-111,1215,-404,89,-278
3025,-270,-84,1223,-111,-1,-247
3026,-251,-67,1205,169,-118,-231
3027,-268,-71,1203,255,-208,-262
3028,-247,-90,1191,48,-255,-307
3029,-220,-79,1172,-257,-272,-391
3030,-202,-53,1118,-492,-380,-452
3031,-220,-22,1075,-546,-499,-485
3032,-231,12,1051,-370,-542,-434
3033,-223,13,1032,-105,-495,-325
3034,-232,-9,1033,92,-423,-264
3035,-246,-3,1037,85,-304,-256
3036,-236,-7,1075,-154,-157,-253
3037,-234,-40,1086,-445,-136,-253
3038,-208,-67,1055,-609,-276,-301
3039,-227,-63,1006,-699,-450,-350
3040,-224,-40,995,-745,-548,-336
3041,-218,-18,985,-474,-497,-299
3042,-217,-32,955,14,-468,-241
3043,-233,-50,965,362,-413,-210
3044,-246,-48,987,419,-265,-200
3045,-238,-67,1023,272,-79,-172
3046,-208,-61,1047,30,5,-198
3047,-199,-33,1048,-148,-48,-247
3048,-194,-29,1051,-245,-181,-245
3049,-195,-40,1034,-271,-294,-241
3050,-188,-25,1029,-283,-393,-239
3051,-198,-23,970,-148,-462,-229
3052,-203,-38,952,-25,-446,-206
3053,-183,-31,957,24,-313,-204
3054,-173,-12,953,65,-194,-190
3055,-166,2,982,106,-130,-143
3056,-155,29,1018,155,-116,-131
3057,-164,31,1039,139,-141,-90
3058,-171,8,1016,-5,-200,-30
3059,-177,-6,1002,-136,-243,-4
3060,-188,-15,989,-236,-278,9
3061,-176,-27,965,-304,-306,-4
3062,-174,-16,945,-331,-315,-6
3063,-186,-29,938,-296,-290,27
3064,-187,-30,921,-150,-194,13
3065,-178,-31,928,-62,-108,27
3066,-168,-36,953,49,-61,76
3067,-170,-37,965,161,-44,107
3068,-174,-40,991,194,-46,103
3069,-189,-30,993,126,-48,85
3070,-180,-30,1004,3,-52,76
3071,-152,-31,1012,-99,-112,93
3072,-163,-42,991,-124,-181,124
3073,-172,-53,988,-158,-212,132
3074,-172,-51,955,-165,-183,167
3075,-176,-43,970,-118,-100,140
3076,-187,-49,981,-95,-30,146
3077,-161,-52,975,-34,-1,128
3078,-156,-44,979,34,-24,107
3079,-159,-54,958,20,-59,132
3080,-157,-70,960,-25,-56,117
3081,-176,-57,960,-101,-34,103
3082,-163,-65,972,-144,5,107
3083,-181,-67,953,-113,40,103
3084,-164,-52,962,-85,56,119
3085,-174,-58,976,24,67,146
3086,-177,-64,996,139,56,150
3087,-181,-64,986,192,34,121
3088,-169,-73,988,253,11,107
3089,-160,-73,1002,276,-26,97
3090,-179,-56,986,239,-50,74
3091,-178,-48,987,110,17,72
3092,-162,-47,995,-85,83,70
3093,-156,-37,1002,-267,107,111
3094,-158,-60,981,-316,67,138
3095,-178,-86,964,-228,25,124
3096,-182,-101,963,-117,30,111
3097,-178,-102,967,-21,89,78
3098,-188,-104,989,38,118,56
3099,-193,-86,986,46,146,56
3100,-177,-91,1001,-17,161,54
3101,-185,-84,1004,-77,144,54
3102,-188,-83,1002,-138,93,64
3103,-186,-83,992,-171,77,48
3104,-198,-93,975,-183,79,52
3105,-188,-111,990,-193,81,39
3106,-185,-103,974,-171,81,3
3107,-180,-108,963,-54,75,-12
3108,-186,-107,953,77,75,-36
3109,-190,-97,972,167,120,-71
3110,-200,-77,987,106,204,-81
3111,-184,-58,1033,-29,247,-77
3112,-183,-59,1045,-124,222,-67
3113,-175,-58,1033,-197,150,-44
3114,-166,-67,1004,-210,81,-28
3115,-180,-85,988,-136,15,-32
3116,-189,-75,956,8,-15,-38
3117,-189,-77,969,171,44,-45
3118,-187,-89,991,231,118,-51
3119,-195,-82,993,192,157,-63
3120,-198,-92,1004,106,173,-71
3121,-186,-83,1028,22,192,-102
3122,-190,-47,1024,-46,183,-77
3123,-188,-60,1028,-36,118,-40
3124,-202,-81,1015,48,7,-12
3125,-195,-98,986,147,-73,-20
3126,-213,-114,985,212,-77,-22
3127,-217,-115,975,214,-20,-53
3128,-217,-104,982,149,66,-124
3129,-202,-90,998,46,165,-178
3130,-197,-73,1003,-60,210,-190
3131,-194,-63,1015,-83,175,-172
3132,-187,-63,1031,-38,118,-129
3133,-183,-65,1025,65,69,-122
3134,-207,-70,1020,112,5,-85
3135,-211,-86,1027,161,-24,-75
3136,-214,-98,1021,157,-20,-96
3137,-210,-108,1015,63,7,-143
3138,-227,-110,1011,-58,46,-200
3139,-213,-108,1025,-128,97,-254
3140,-210,-96,1015,-103,110,-294
3141,-195,-95,1027,51,67,-284
3142,-193,-106,999,225,-1,-284
3143,-211,-103,998,350,-20,-278
3144,-200,-98,1023,391,5,-247
3145,-189,-95,1018,403,44,-260
3146,-191,-113,1021,362,1,-272
3147,-207,-122,1036,257,-24,-315
3148,-205,-118,1029,118,-40,-333
3149,-215,-131,1005,10,-67,-360
3150,-199,-130,1005,-21,-63,-401
3151,-207,-137,986,46,-81,-417
3152,-211,-137,987,155,-112,-420
3153,-202,-127,973,255,-108,-430
3154,-209,-122,985,272,-69,-452
3155,-196,-142,1010,190,-7,-444
3156,-189,-134,1010,61,34,-463
3157,-182,-132,1009,-54,26,-483
3158,-193,-134,991,-97,11,-485
3159,-197,-137,995,-58,7,-493
3160,-203,-151,973,26,13,-503
3161,-203,-139,998,130,40,-522
3162,-223,-142,1010,217,56,-544
3163,-212,-127,1029,262,44,-565
3164,-208,-113,1036,217,1,-606
3165,-200,-120,1031,83,-22,-667
3166,-184,-113,1020,-105,-54,-692
3167,-190,-104,1001,-179,-91,-715
3168,-186,-80,996,-159,-138,-725
3169,-193,-75,965,-23,-143,-710
3170,-194,-74,971,91,-136,-684
3171,-186,-80,967,180,-110,-696
3172,-202,-73,979,229,-69,-704
3173,-210,-73,989,268,-16,-708
3174,-205,-65,1002,262,26,-733
3175,-199,-70,1003,133,23,-729
3176,-198,-69,1005,-25,-5,-725
3177,-205,-71,986,-68,-67,-753
3178,-210,-58,951,14,-116,-735
3179,-203,-57,947,178,-106,-731
3180,-204,-47,971,368,-81,-721
3181,-198,-52,964,469,-63,-710
3182,-190,-58,963,505,-24,-731
3183,-212,-52,996,454,19,-747
3184,-189,-40,1013,299,64,-766
3185,-190,-31,1031,149,75,-770
3186,-195,-36,1044,14,9,-747
3187,-181,-33,1037,-58,-69,-727
3188,-183,-58,996,-38,-138,-713
3189,-180,-55,991,32,-194,-684
3190,-187,-65,967,120,-202,-694
3191,-189,-48,960,212,-161,-729
3192,-189,-55,955,235,-77,-721
3193,-186,-51,963,245,11,-745
3194,-185,-44,979,180,91,-770
3195,-171,-29,992,63,126,-753
3196,-174,-25,987,-13,107,-725
3197,-186,-29,993,-29,54,-690
3198,-178,-25,988,-1,25,-649
3199,-187,-44,986,34,15,-608
3200,-195,-56,987,49,15,-581
3201,-181,-75,970,75,30,-583
3202,-169,-61,973,139,26,-633
3203,-207,-64,986,223,38,-661
3204,-205,-46,993,274,109,-670
3205,-182,-36,1031,299,200,-655
3206,-168,-46,1043,257,183,-626
3207,-174,-40,1021,194,109,-614
3208,-191,-46,1019,149,50,-614
3209,-198,-49,1009,139,52,-592
3210,-200,-53,1013,171,64,-571
3211,-204,-66,1014,163,75,-565
3212,-200,-64,1010,157,73,-563
3213,-215,-86,1024,161,62,-575
3214,-225,-103,1015,163,48,-596
3215,-220,-98,1002,128,91,-655
3216,-227,-86,1025,63,134,-674
3217,-199,-73,1033,46,144,-663
3218,-204,-83,1016,75,91,-643
3219,-199,-84,1014,145,13,-647
3220,-207,-89,1007,214,-24,-676
3221,-200,-99,1015,251,-32,-690
3222,-212,-88,998,255,-24,-723
3223,-215,-83,1028,223,-3,-753
3224,-203,-79,1020,182,5,-760
3225,-193,-85,1017,157,-20,-790
3226,-206,-70,1014,104,-61,-819
3227,-199,-58,1014,73,-65,-827
3228,-177,-60,1000,91,-83,-827
3229,-178,-43,984,155,-143,-836
3230,-184,-26,967,257,-179,-823
3231,-189,-33,967,341,-151,-827
3232,-187,-40,985,301,-87,-836
3233,-183,-34,1002,165,-16,-825
3234,-188,-18,988,63,19,-836
3235,-181,-9,1019,-7,9,-817
3236,-182,-6,1003,-1,-32,-772
3237,-186,-17,1001,85,-97,-735
3238,-190,-24,989,190,-140,-717
3239,-168,-22,980,290,-145,-713
3240,-198,-14,970,268,-177,-688
3241,-187,-16,963,268,-114,-747
3242,-162,-18,958,135,-26,-721
3243,-156,-6,947,67,-5,-711
3244,-172,2,965,69,21,-702
3245,-166,0,979,145,34,-659
3246,-183,-14,977,253,36,-631
3247,-173,-13,987,270,30,-626
3248,-178,0,979,262,48,-616
3249,-178,2,988,270,44,-612
3250,-170,-5,999,270,26,-604
3251,-162,-3,1006,200,26,-598
3252,-172,11,994,65,32,-598
3253,-166,17,1016,-79,64,-569
3254,-175,-2,1007,-117,58,-545
3255,-174,8,983,-36,5,-536
3256,-173,-6,973,61,-13,-510
3257,-180,-18,969,114,-1,-489
3258,-190,-24,963,133,48,-504
3259,-179,-22,963,106,91,-503
3260,-179,-24,976,112,105,-493
3261,-173,-9,975,143,109,-504
3262,-177,1,991,132,142,-508
3263,-177,-7,1016,149,163,-440
3264,-180,-21,1024,225,120,-413
3265,-171,-16,1018,210,69,-387
3266,-176,-23,994,139,23,-376
3267,-186,-23,990,100,26,-403
3268,-191,-35,989,81,34,-411
3269,-198,-30,986,110,87,-420
3270,-206,-37,1005,128,134,-432
3271,-188,-18,1017,85,155,-444
3272,-194,-9,1012,49,110,-454
3273,-195,24,1033,30,67,-424
3274,-177,-6,1015,61,77,-366
3275,-182,-22,1002,83,-1,-342
3276,-200,-27,990,61,-5,-323
3277,-194,-42,978,75,54,-321
3278,-193,-41,1002,106,103,-344
3279,-190,-12,1009,77,109,-376
3280,-196,-2,1031,46,120,-362
3281,-183,-13,1039,-5,134,-348
3282,-176,-4,1022,-74,62,-333
3283,-183,-13,1012,-144,-7,-309
3284,-195,-24,1004,-144,-30,-294
3285,-193,-33,987,-85,-24,-295
3286,-194,-28,985,34,-28,-290
3287,-198,-35,976,149,-34,-292
3288,-199,-46,983,202,-11,-309
3289,-173,-30,986,171,34,-325
3290,-176,-6,1004,94,79,-348
3291,-184,19,1023,-9,99,-313
3292,-159,6,1034,-56,71,-264
3293,-169,4,999,-56,-30,-235
3294,-169,-20,987,-29,-120,-221
3295,-170,-25,962,22,-108,-223
3296,-176,-16,957,83,-34,-204
3297,-175,-29,967,182,26,-188
3298,-173,-33,961,249,28,-192
3299,-176,-13,975,237,52,-217
3300,-187,-8,980,122,120,-225
3301,-178,-13,991,-7,175,-200
3302,-178,-11,1032,-105,163,-176
3303,-179,-2,1026,-146,110,-143
3304,-182,-23,1017,-68,26,-108
3305,-195,-57,991,46,-44,-94
3306,-200,-52,981,89,-34,-104
3307,-186,-63,977,61,25,-137
3308,-185,-42,976,-1,83,-182
3309,-180,-15,999,-48,114,-190
3310,-178,-17,993,-50,107,-182
3311,-178,-21,987,-42,67,-153
3312,-186,-32,992,-33,38,-126
3313,-169,-32,1009,-7,46,-129
3314,-173,-32,996,-17,52,-85
3315,-182,-39,996,51,25,-73
3316,-179,-42,1000,169,-3,-75
3317,-187,-61,984,190,-16,-71
3318,-193,-54,993,143,23,-116
3319,-194,-57,982,40,95,-135
3320,-195,-42,1003,-19,132,-147
3321,-182,-38,1009,-17,134,-147
3322,-189,-16,1022,-27,110,-124
3323,-185,-31,1021,-5,71,-81
3324,-183,-46,1011,44,11,-75
3325,-201,-52,1020,75,-40,-86
3326,-208,-44,994,85,-32,-100
3327,-201,-42,1013,63,28,-110
3328,-190,-42,992,30,42,-120
3329,-205,-53,1008,-23,40,-137
3330,-201,-41,992,-95,62,-133
3331,-199,-63,1018,-134,79,-143
3332,-194,-53,998,-144,58,-155
3333,-196,-35,1014,-76,11,-151
3334,-194,-21,1012,53,-1,-118
3335,-191,-41,1017,192,-22,-75
3336,-191,-57,1009,212,-69,-63
3337,-199,-48,1014,126,-58,-96
3338,-196,-48,998,-5,-15,-94
3339,-182,-50,996,-105,15,-126
3340,-188,-46,995,-159,9,-143
3341,-190,-40,990,-148,7,-133
3342,-203,-51,973,-70,7,-133
3343,-194,-52,971,-11,21,-131
3344,-192,-36,991,44,26,-124
3345,-203,-34,970,92,21,-104
3346,-191,-37,989,124,11,-94
3347,-188,-33,992,85,9,-85
3348,-180,-43,983,-21,3,-81
3349,-187,-40,975,-85,9,-86
3350,-191,-40,965,-70,54,-81
3351,-192,-28,991,-3,91,-75
3352,-179,-44,987,139,99,-55
3353,-183,-53,1008,253,48,-47
3354,-192,-40,999,253,23,-51
3355,-203,-22,1010,188,50,-47
3356,-190,-42,1004,137,38,-38
3357,-180,-31,995,59,-15,-38
3358,-189,-39,976,-7,-30,-28
3359,-207,-47,953,-70,21,-28
3360,-199,-34,977,-70,91,-32
3361,-207,-42,999,7,122,-24
3362,-191,-42,981,85,116,-16
3363,-193,-37,1000,143,71,-36
3364,-206,-51,995,110,28,-34
3365,-206,-52,980,7,42,-49
3366,-200,-40,981,-93,89,-83
3367,-203,-41,987,-111,116,-86
3368,-192,-44,994,-66,99,-75
3369,-203,-34,990,14,67,-59
3370,-205,-42,986,65,69,-49
3371,-204,-57,987,28,85,-47
3372,-209,-51,1001,-46,103,-63
3373,-209,-47,984,-89,107,-67
3374,-203,-34,1000,-58,85,-61
3375,-203,-40,994,-13,71,-63
3376,-202,-49,978,-38,85,-59
3377,-211,-37,996,-105,118,-81
3378,-212,-29,1004,-152,140,-81
3379,-194,-41,992,-158,116,-75
3380,-195,-41,1006,-136,62,-75
3381,-196,-45,978,-109,32,-65
3382,-204,-32,972,-83,73,-32
3383,-199,-35,974,8,101,5
3384,-189,-53,967,75,91,-4
3385,-204,-30,972,44,97,-8
3386,-191,-41,988,30,134,21
3387,-183,-69,964,81,136,15
3388,-209,-66,963,161,85,23
3389,-219,-55,949,270,109,29
3390,-224,-53,993,364,212,27
3391,-228,-29,1027,395,284,13
3392,-210,-19,1045,321,276,21
3393,-222,-14,1054,174,198,7
3394,-234,-26,1052,22,150,-1
3395,-208,-53,1038,-222,142,21
3396,-216,-44,1021,-271,107,-36
3397,-233,-44,1002,-283,54,-14
3398,-225,-61,980,-212,81,-4
3399,-232,-54,988,-81,128,-34
3400,-222,-52,1002,-46,150,-24
3401,-223,-44,1017,-17,142,-20
3402,-228,-44,1019,44,107,5
3403,-228,-46,1011,59,52,3
3404,-218,-57,1002,32,46,1
3405,-228,-66,1012,-38,67,-26
3406,-216,-57,1013,-89,85,-45
3407,-215,-36,1017,-72,89,-55
3408,-218,-42,1012,12,46,-34
3409,-223,-38,996,94,15,-1
3410,-232,-49,1019,122,26,-8
3411,-224,-38,1004,61,46,-10
3412,-211,-33,1016,-17,71,1
3413,-203,-36,1034,-44,81,11
3414,-204,-27,1053,-23,67,17
3415,-208,-16,1079,16,67,21
3416,-211,-17,1111,114,40,50
3417,-207,-30,1122,243,13,54
3418,-183,-10,1130,274,52,80
3419,-157,13,1191,385,93,117
3420,-186,52,1225,753,66,158
3421,-223,77,1331,1114,77,228
3422,-282,95,1446,1235,237,253
3423,-290,75,1572,1208,370,164
3424,-253,119,1707,1098,284,9
3425,-279,184,1810,626,-79,171
3426,-293,198,1829,337,-505,412
3427,-313,189,1845,305,-933,546
3428,-343,181,1809,479,-1335,683
3429,-385,160,1788,600,-1587,746
3430,-415,175,1792,585,-1632,820
3431,-407,170,1782,573,-1569,915
3432,-424,218,1812,561,-1550,1009
3433,-435,238,1834,520,-1573,1208
3434,-443,208,1876,530,-1724,1380
3435,-448,187,1861,518,-2048,1435
3436,-422,122,1848,376,-2470,1515
3437,-438,132,1827,264,-3026,1451
3438,-448,147,1789,26,-3558,1556
3439,-466,115,1684,-91,-3895,1806
3440,-472,83,1664,67,-4061,1919
3441,-485,74,1640,311,-4177,2035
3442,-526,25,1647,583,-4263,2099
3443,-546,-3,1651,608,-4282,2210
3444,-537,-92,1686,483,-4516,2220
3445,-537,-151,1613,126,-4956,2064
3446,-572,-199,1468,-527,-5526,1872
3447,-589,-215,1296,-1034,-6083,1601
3448,-570,-229,1114,-1275,-6610,1314
3449,-551,-220,861,-1396,-7143,1115
3450,-505,-196,633,-1396,-7472,933
3451,-412,-187,369,-1300,-7429,699
3452,-263,-151,135,-1308,-7104,468
3453,-115,-50,-29,-1595,-6704,220
3454,-66,93,-179,-1343,-6099,31
3455,71,127,-288,-1169,-5524,107
3456,178,124,-410,-636,-4923,314
3457,252,89,-432,53,-4405,476
3458,307,67,-437,796,-3837,583
3459,354,45,-424,1641,-3317,656
3460,418,23,-375,2137,-2923,671
3461,449,-14,-364,2280,-2589,605
3462,494,-16,-332,2249,-2290,386
3463,507,42,-309,2089,-1999,117
3464,552,109,-275,1958,-1733,33
3465,586,164,-260,1979,-1481,15
3466,618,225,-258,2005,-1243,119
3467,629,255,-257,1762,-942,318
3468,627,256,-247,1288,-579,539
3469,611,255,-241,782,-165,597
3470,594,236,-202,364,353,525
3471,589,257,-148,-54,831,482
3472,580,271,-85,-378,1191,507
3473,621,282,-44,-411,1442,525
3474,651,320,10,-216,1583,636
3475,639,310,19,249,1618,843
3476,598,271,26,549,1681,1066
3477,509,203,82,563,1939,1269
3478,410,136,139,305,2302,1353
3479,376,74,231,-25,2638,1326
3480,332,90,315,-220,2917,1181
3481,315,110,412,-312,3083,1066
3482,323,80,468,-320,3210,1117
3483,298,54,506,-333,3218,1189
3484,229,28,511,-519,3134,1326
3485,145,-22,492,-749,3126,1431
3486,42,-60,486,-884,3290,1476
3487,-13,-76,500,-966,3548,1462
3488,-143,-102,537,-779,3814,1412
3489,-112,-186,645,-538,4052,1417
3490,35,-276,645,-513,4384,1376
3491,23,-250,705,-658,4472,1093
3492,-36,-207,755,-1007,4398,888
3493,-7,-144,757,-1378,4394,865
3494,-79,-21,759,-1179,4347,853
3495,-216,43,782,-337,4165,900
3496,-287,16,841,587,4034,1080
3497,-177,-164,872,1188,4288,1173
3498,-78,-240,903,958,4710,1134
3499,-148,-257,969,303,4941,972
3500,-138,-211,1061,-251,5021,949
3501,-196,-42,1157,-48,5116,982
3502,-390,48,1260,1323,4991,914
3503,-484,23,1405,2458,4749,1105
3504,-506,-94,1494,2977,4683,1111
3505,-367,-267,1565,2200,4726,921
3506,-253,-321,1587,524,4798,675
3507,-224,-258,1640,-775,4458,497
3508,-261,-125,1644,-1134,3892,464
3509,-427,-22,1718,-115,3302,447
3510,-486,-66,1762,1151,2917,724
3511,-465,-187,1830,1850,2796,808
3512,-403,-305,1832,1534,2794,765
3513,-381,-306,1840,485,2737,554
3514,-397,-213,1862,-474,2573,374
3515,-433,-153,1855,-927,2310,353
3516,-474,-170,1831,-802,1948,390
3517,-506,-187,1815,-400,1552,417
3518,-530,-258,1766,-13,1167,425
3519,-535,-316,1723,100,761,353
3520,-468,-331,1614,-83,468,175
3521,-450,-289,1556,-406,202,-100
3522,-432,-195,1471,-632,28,-301
3523,-404,-133,1397,-609,-89,-401
3524,-383,-70,1343,-353,-159,-461
3525,-362,21,1327,-144,-171,-473
3526,-323,37,1297,-107,-210,-364
3527,-286,56,1253,-169,-374,-206
3528,-288,44,1196,-236,-624,-79
3529,-284,0,1140,-376,-831,31
3530,-278,-8,1064,-402,-907,-14
3531,-280,-17,1019,-296,-882,-98
3532,-273,-17,981,-148,-794,-155
3533,-275,2,969,-60,-612,-258
3534,-257,10,958,-165,-409,-288
3535,-239,16,977,-273,-278,-245
3536,-213,46,1010,-267,-261,-231
3537,-191,70,1009,-187,-325,-129
3538,-149,48,977,-7,-442,-1
3539,-169,63,966,141,-571,48
3540,-204,25,944,204,-616,107
3541,-185,0,915,143,-532,138
3542,-209,3,905,18,-384,72
3543,-215,-11,919,-212,-198,5
3544,-199,11,948,-445,7,1
3545,-182,0,980,-476,19,42
3546,-178,-8,966,-335,-106,27
3547,-199,-2,946,-163,-239,42
3548,-202,11,936,18,-284,80
3549,-208,24,955,32,-251,76
3550,-198,35,971,-173,-143,56
3551,-188,-4,958,-509,-52,103
3552,-191,-40,940,-669,-69,74
3553,-220,-55,918,-695,-99,72
3554,-223,-69,924,-605,-65,97
3555,-232,-86,955,-439,-22,70
3556,-234,-104,964,-357,-3,33
3557,-238,-92,970,-310,-28,9
3558,-222,-93,964,-238,-58,-12
3559,-206,-91,946,-91,-120,-1
3560,-210,-79,958,94,-188,-10
3561,-225,-64,942,169,-167,-69
3562,-224,-60,971,5,-67,-65
3563,-214,-64,961,-281,-3,-53
3564,-202,-80,966,-443,-3,-100
3565,-188,-99,927,-486,-65,-77
3566,-185,-125,898,-404,-118,-63
3567,-198,-123,891,-275,-114,-67
3568,-200,-110,872,-109,-38,-57
3569,-202,-84,936,51,103,-131
3570,-171,-63,948,26,235,-108
3571,-171,-64,964,-13,226,-71
3572,-181,-90,954,-21,140,-67
3573,-198,-92,958,-40,122,-86
3574,-216,-100,981,-99,175,-71
3575,-198,-104,975,-144,232,-65
3576,-189,-84,986,-120,204,-59
3577,-211,-97,986,3,124,-34
3578,-202,-100,981,112,79,-53
3579,-205,-100,961,163,73,-94
3580,-221,-95,961,71,103,-133
3581,-219,-86,974,-23,183,-143
3582,-220,-69,977,-23,222,-145
3583,-217,-86,974,5,210,-124
3584,-224,-107,974,26,189,-128
3585,-240,-101,992,22,183,-159
3586,-237,-100,1003,55,206,-145
3587,-237,-90,1012,163,206,-151
3588,-231,-90,1004,257,159,-141
3589,-237,-95,1005,257,101,-145
3590,-237,-101,997,184,79,-178
3591,-245,-96,986,81,105,-221
3592,-238,-73,990,10,165,-256
3593,-230,-56,998,3,218,-266
3594,-219,-62,1005,85,187,-206
3595,-227,-91,1002,262,77,-170
3596,-240,-85,989,364,13,-213
3597,-247,-81,999,284,81,-231
3598,-242,-74,1017,141,173,-241
3599,-228,-58,1033,20,183,-278
3600,-232,-45,1024,-111,120,-270
3601,-240,-75,994,-161,73,-241
3602,-235,-91,990,-148,40,-243
3603,-255,-98,950,-74,25,-247
3604,-250,-75,963,75,58,-251
3605,-246,-73,966,342,118,-211
3606,-243,-86,963,559,122,-190
3607,-234,-89,960,540,144,-202
3608,-236,-69,983,403,216,-284
3609,-219,-54,983,149,298,-292
3610,-227,-53,995,-40,308,-253
3611,-222,-47,989,-77,245,-243
3612,-232,-46,990,20,171,-301
3613,-249,-54,995,106,122,-286
3614,-251,-74,991,171,118,-286
3615,-258,-69,994,163,116,-356
3616,-248,-44,1000,59,122,-360
3617,-246,-36,986,5,118,-344
3618,-241,-35,975,10,122,-317
3619,-239,-47,970,55,101,-278
3620,-246,-28,991,120,81,-266
3621,-247,-39,971,112,81,-227
3622,-262,-41,979,110,114,-247
3623,-260,-55,990,32,167,-288
3624,-263,-61,990,-79,202,-335
3625,-271,-52,1007,-167,226,-370
3626,-264,-46,1015,-161,239,-372
3627,-247,-40,986,-17,198,-344
3628,-267,-48,1007,180,130,-313
3629,-270,-47,1004,317,112,-292
3630,-272,-66,1023,327,134,-280
3631,-271,-51,1039,239,142,-325
3632,-282,-50,1034,20,157,-383
3633,-270,-37,1047,-253,181,-428
3634,-246,-56,1036,-497,159,-475
3635,-247,-37,1034,-658,81,-530
3636,-251,-33,1025,-638,3,-469
3637,-245,-31,996,-339,-58,-391
3638,-262,-61,981,48,-108,-321
3639,-271,-67,968,286,-91,-278
3640,-287,-83,986,319,-16,-239
3641,-279,-102,996,173,75,-251
3642,-270,-93,994,10,118,-307
3643,-276,-77,1006,-97,146,-368
3644,-262,-70,1033,-187,136,-356
3645,-257,-62,1044,-206,60,-325
3646,-247,-51,1005,-34,-87,-307
3647,-251,-55,977,153,-225,-274
3648,-268,-83,961,303,-257,-225
3649,-268,-90,952,362,-198,-247
3650,-260,-73,961,282,-97,-282
3651,-263,-50,986,204,19,-292
3652,-254,-56,993,106,95,-292
3653,-258,-64,1005,16,77,-323
3654,-252,-54,1022,-76,11,-319
3655,-252,-67,1000,-89,-46,-309
3656,-247,-85,992,-48,-112,-301
3657,-241,-82,965,-34,-140,-292
3658,-264,-85,970,38,-138,-288
3659,-260,-74,958,153,-112,-280
3660,-266,-73,963,233,-81,-292
3661,-261,-81,965,237,-34,-290
3662,-262,-59,980,161,7,-297
3663,-236,-65,995,55,38,-286
3664,-227,-61,986,28,-9,-290
3665,-248,-56,971,85,-95,-264
3666,-251,-55,957,153,-124,-235
3667,-255,-77,960,186,-112,-211
3668,-258,-71,955,141,-91,-243
3669,-251,-65,952,141,-40,-274
3670,-255,-75,976,163,19,-256
3671,-250,-67,974,188,69,-288
3672,-248,-70,1000,120,91,-294
3673,-248,-57,999,51,75,-294
3674,-247,-57,1015,32,38,-295
3675,-249,-62,1004,-5,-36,-274
3676,-245,-56,995,-5,-93,-262
3677,-254,-70,979,34,-128,-247
3678,-248,-80,956,85,-104,-235
3679,-264,-78,946,104,-50,-256
3680,-249,-74,965,53,9,-262
3681,-244,-54,974,63,73,-272
3682,-236,-61,985,81,91,-288
3683,-240,-57,984,108,56,-276
3684,-247,-60,983,116,28,-272
3685,-241,-66,987,63,38,-247
3686,-241,-73,973,28,32,-241
3687,-257,-81,996,38,11,-253
3688,-258,-80,984,24,7,-241
3689,-240,-81,974,63,15,-237
3690,-266,-85,984,110,21,-258
3691,-261,-98,976,130,26,-282
3692,-253,-96,985,100,34,-311
3693,-264,-90,979,63,21,-333
3694,-255,-85,973,55,11,-333
3695,-260,-83,985,108,19,-354
3696,-260,-82,986,132,21,-333
3697,-276,-90,993,161,38,-342
3698,-279,-82,999,151,60,-389
3699,-281,-78,1024,42,71,-393
3700,-273,-90,1032,-42,58,-399
3701,-248,-92,1030,-42,-22,-409
3702,-254,-90,984,46,-120,-407
3703,-258,-93,955,128,-171,-424
3704,-246,-90,952,233,-157,-424
3705,-250,-88,956,344,-118,-440
3706,-270,-66,971,380,-63,-491
3707,-238,-55,991,296,7,-495
3708,-238,-40,1009,130,48,-493
3709,-224,-44,1021,-60,21,-463
3710,-232,-49,988,-144,-36,-444
3711,-232,-54,982,-107,-75,-432
3712,-230,-75,965,-40,-87,-385
3713,-240,-71,956,94,-104,-368
3714,-242,-83,969,204,-122,-346
3715,-242,-87,948,303,-97,-338
3716,-251,-101,960,319,-28,-374
3717,-262,-89,961,206,85,-415
3718,-259,-81,1003,8,192,-424
3719,-249,-95,1004,-156,214,-436
3720,-238,-77,1009,-212,155,-438
3721,-265,-87,999,-204,75,-417
3722,-265,-85,1000,-25,3,-422
3723,-261,-81,971,200,-67,-417
3724,-260,-87,976,327,-83,-405
3725,-254,-93,966,350,-50,-411
3726,-253,-80,981,276,-15,-460
3727,-262,-71,978,167,30,-489
3728,-248,-66,1001,22,89,-510
3729,-232,-73,1010,-91,128,-508
3730,-231,-56,991,-111,69,-501
3731,-246,-54,995,-15,-30,-469
3732,-250,-67,976,130,-81,-438
3733,-248,-72,974,196,-93,-442
3734,-256,-68,979,147,-32,-440
3735,-237,-61,987,85,42,-440
3736,-239,-48,993,65,77,-440
3737,-229,-42,1000,20,71,-413
3738,-247,-58,989,12,58,-409
3739,-245,-78,999,-23,38,-409
3740,-259,-77,996,-77,46,-407
3741,-255,-69,1004,-29,50,-419
3742,-241,-54,999,116,15,-393
3743,-242,-71,999,268,-59,-372
3744,-248,-68,995,311,-87,-397
3745,-272,-70,999,190,-26,-440
3746,-249,-69,1012,-62,52,-471
3747,-237,-61,1007,-261,71,-514
3748,-230,-51,987,-349,19,-499
3749,-239,-63,973,-265,-36,-458
3750,-255,-62,947,-111,-44,-417
3751,-248,-91,947,22,-42,-346
3752,-255,-103,933,157,-36,-338
3753,-268,-102,970,196,19,-415
3754,-254,-91,960,81,114,-440
3755,-259,-100,1000,-38,163,-463
3756,-242,-117,1010,-167,122,-504
3757,-251,-95,999,-251,62,-540
3758,-263,-78,982,-202,46,-536
3759,-245,-74,993,-38,7,-454
3760,-242,-96,983,219,-48,-393
3761,-245,-127,978,344,-102,-413
3762,-241,-121,957,276,-71,-444
3763,-252,-110,982,141,13,-493
3764,-226,-98,983,12,95,-528
3765,-237,-89,996,-46,107,-559
3766,-240,-61,998,-17,56,-538
3767,-227,-69,995,63,15,-504
3768,-237,-65,992,128,-24,-495
3769,-239,-56,985,190,-9,-465
3770,-238,-56,984,176,34,-469
3771,-230,-57,1004,73,69,-438
3772,-236,-67,987,24,38,-432
3773,-239,-73,970,7,-20,-436
3774,-253,-67,942,20,-13,-434
3775,-253,-72,949,79,44,-430
3776,-241,-61,959,188,99,-419
3777,-240,-57,968,278,87,-399
3778,-248,-32,973,335,87,-387
3779,-248,-34,991,346,97,-376
3780,-236,-40,1004,282,91,-348
3781,-247,-44,1008,188,77,-329
3782,-245,-54,995,110,79,-325
3783,-247,-56,975,91,77,-309
3784,-261,-58,992,151,66,-299
3785,-252,-54,1003,216,69,-301
3786,-254,-24,1030,231,48,-299
3787,-253,-34,1018,249,69,-327
3788,-232,-35,1011,161,23,-272
3789,-236,-46,996,126,-32,-268
3790,-249,-44,985,94,-46,-254
3791,-250,-51,959,73,-3,-268
3792,-256,-54,976,51,32,-270
3793,-250,-34,980,57,79,-274
