sequence,AccelerometerX,AccelerometerY,AccelerometerZ,GyroscopeX,GyroscopeY,GyroscopeZ
0,-121,-45,1002,-103,-257,-167
1,-135,-38,992,-25,-190,-137
2,-112,-62,998,38,-79,-118
3,-117,-57,1026,36,-16,-141
4,-131,-63,1037,-40,9,-196
5,-132,-33,1056,-120,32,-253
6,-147,-34,1061,-224,-3,-278
7,-135,-46,1073,-335,-69,-258
8,-135,-49,1049,-388,-159,-276
9,-143,-54,1026,-349,-225,-286
10,-151,-64,1016,-265,-231,-247
11,-136,-71,1006,-163,-200,-204
12,-136,-80,1005,-46,-140,-151
13,-129,-96,991,59,-79,-129
14,-118,-96,1001,87,-52,-141
15,-117,-99,1010,55,-59,-188
16,-106,-75,1025,-44,-58,-231
17,-106,-69,1030,-126,-81,-241
18,-87,-63,1005,-130,-136,-217
19,-104,-71,1023,-76,-206,-169
20,-111,-71,1020,-3,-249,-126
21,-110,-69,1004,85,-249,-86
22,-111,-60,1001,182,-202,13
23,-101,-80,1017,212,-134,124
24,-94,-94,1019,217,-83,121
25,-98,-91,1018,132,-89,50
26,-89,-94,1020,-48,-89,-1
27,-101,-85,1020,-165,-102,-67
28,-109,-86,1016,-216,-118,-112
29,-111,-91,1009,-218,-112,-120
30,-100,-81,1007,-185,-73,-112
31,-110,-79,1004,-154,-85,-88
32,-112,-61,1030,-101,-120,-57
33,-102,-65,1008,-72,-147,-22
34,-100,-72,988,-95,-210,-6
35,-93,-51,990,-126,-259,7
36,-85,-40,971,-134,-266,78
37,-80,-46,950,-83,-257,140
38,-77,-57,956,-36,-225,175
39,-66,-70,948,-38,-167,154
40,-65,-79,940,-52,-52,72
41,-72,-56,942,-83,79,1
42,-79,-44,984,-99,181,-1
43,-77,-43,985,-89,239,68
44,-91,-55,1018,-15,235,146
45,-93,-56,1049,61,175,214
46,-90,-65,1034,92,99,242
47,-92,-69,1026,77,17,210
48,-88,-86,1025,-40,-20,154
49,-102,-92,994,-148,-24,64
50,-93,-83,979,-261,25,-8
51,-85,-81,970,-324,91,-16
52,-80,-82,977,-312,165,11
53,-69,-83,979,-204,214,33
54,-93,-84,990,-87,210,80
55,-100,-66,1022,-17,185,138
56,-85,-71,1035,22,150,240
57,-84,-86,1025,12,95,326
58,-96,-106,1014,-5,25,328
59,-103,-112,1015,-54,-22,275
60,-114,-126,1007,-70,-18,181
61,-106,-120,995,-74,-3,78
62,-132,-109,977,-77,56,17
63,-123,-114,986,-54,179,-28
64,-115,-118,1033,-17,253,-51
65,-137,-92,1037,32,235,-59
66,-143,-81,1063,51,167,21
67,-137,-96,1064,53,75,81
68,-148,-92,1066,85,-42,66
69,-144,-108,1048,30,-106,42
70,-136,-96,1024,-40,-87,-18
71,-136,-94,995,-120,-7,-69
72,-120,-94,1003,-154,103,-88
73,-108,-96,1009,-122,142,-106
74,-124,-79,1019,-54,150,-104
75,-115,-66,1020,8,153,-30
76,-110,-97,1033,81,112,25
77,-104,-85,1027,137,60,54
78,-105,-78,1049,159,21,99
79,-110,-80,1049,180,-22,117
80,-102,-95,1024,147,-89,109
81,-109,-78,1004,106,-134,68
82,-109,-69,980,61,-122,44
83,-105,-79,993,44,-73,37
84,-98,-89,981,14,-18,27
85,-98,-86,1000,-15,25,11
86,-111,-77,962,-31,71,5
87,-97,-91,971,-23,114,9
88,-103,-91,994,-7,116,31
89,-116,-87,1016,16,110,72
90,-120,-101,1030,38,30,115
91,-120,-104,1011,59,-75,103
92,-122,-100,995,42,-120,107
93,-117,-123,974,40,-79,95
94,-104,-121,980,28,-34,70
95,-98,-116,986,26,-5,44
96,-100,-103,1002,63,26,37
97,-99,-108,989,85,40,37
98,-101,-87,1001,116,15,50
99,-110,-80,992,133,-24,80
100,-106,-86,989,143,-56,72
101,-104,-94,996,128,-73,42
102,-92,-84,988,73,-38,-14
103,-103,-90,992,-25,-3,-49
104,-111,-86,995,-81,36,-53
105,-102,-80,1013,-79,71,-57
106,-103,-80,1014,-62,83,-44
107,-120,-64,1004,-48,77,-10
108,-113,-71,1008,-44,77,25
109,-109,-80,1012,-40,67,25
110,-107,-83,1007,-52,36,-4
111,-122,-73,1008,-62,19,-12
112,-118,-75,1014,-34,25,7
113,-120,-97,1017,20,50,21
114,-135,-102,994,51,50,-4
115,-136,-99,1017,57,67,-26
116,-147,-76,1033,55,97,-47
117,-142,-67,1038,38,110,-16
118,-128,-64,1053,16,81,21
119,-129,-61,1050,8,-5,15
120,-129,-70,1034,7,-71,-6
121,-119,-69,1007,-42,-77,-20
122,-110,-74,993,-95,-46,-30
123,-106,-73,974,-99,25,-42
124,-114,-70,991,-36,107,-55
125,-115,-69,1009,12,153,-47
126,-136,-53,1044,34,134,-1
127,-129,-65,1045,61,95,85
128,-129,-92,1053,122,15,124
129,-140,-84,1011,141,-59,128
130,-124,-102,1015,104,-75,103
131,-131,-108,1004,49,-73,48
132,-126,-94,1019,-15,-71,-28
133,-123,-89,995,-91,-30,-67
134,-128,-83,989,-113,26,-98
135,-115,-79,1001,-83,56,-114
136,-133,-74,1012,-44,75,-108
137,-135,-67,1021,-9,89,-59
138,-131,-76,1025,18,54,-28
139,-137,-79,1042,36,-3,-34
140,-145,-83,1033,-19,-36,-47
141,-121,-98,1026,-126,-54,-88
142,-122,-86,1000,-193,-77,-135
143,-133,-87,987,-173,-54,-167
144,-117,-82,996,-107,15,-143
145,-114,-83,1014,-36,60,-114
146,-113,-76,1004,24,71,-106
147,-117,-71,1022,46,62,-86
148,-119,-70,1032,49,42,-59
149,-119,-71,1025,63,5,-28
150,-123,-70,1010,61,-61,3
151,-132,-66,1024,65,-108,23
152,-123,-93,1020,55,-106,54
153,-119,-96,1011,18,-99,21
154,-122,-79,995,-60,-65,-30
155,-123,-85,993,-109,15,-65
156,-122,-85,1010,-99,54,-77
157,-127,-82,1022,-40,46,-53
158,-137,-72,1032,30,40,-4
159,-129,-70,1042,69,-5,44
160,-132,-78,1059,57,-95,87
161,-137,-76,1035,42,-167,99
162,-132,-91,1011,-13,-177,85
163,-126,-100,996,-93,-159,64
164,-125,-108,982,-181,-141,15
165,-115,-101,962,-154,-81,-61
166,-120,-106,965,-91,-1,-81
167,-122,-84,988,-29,48,-71
168,-122,-80,1023,32,48,-22
169,-122,-74,1057,92,11,37
170,-125,-94,1059,110,-69,60
171,-118,-106,1043,83,-149,37
172,-121,-112,1031,5,-196,-1
173,-113,-106,1000,-91,-196,-47
174,-104,-100,1003,-204,-194,-85
175,-91,-89,999,-288,-196,-104
176,-103,-85,990,-257,-171,-124
177,-109,-89,965,-163,-100,-108
178,-98,-94,990,-72,-30,-100
179,-98,-78,1000,-56,25,-71
180,-103,-73,1021,-62,40,-24
181,-103,-80,1044,-50,-5,13
182,-120,-80,1041,-33,-91,56
183,-117,-98,1041,-46,-171,85
184,-125,-120,1022,-109,-220,70
185,-113,-123,1011,-212,-239,9
186,-113,-118,1004,-294,-220,-79
187,-97,-119,970,-259,-145,-131
188,-88,-119,969,-156,-56,-145
189,-103,-96,992,-76,-3,-147
190,-89,-86,998,-33,7,-96
191,-92,-89,1025,10,-15,-65
192,-90,-60,1022,3,-63,-18
193,-88,-75,1031,-33,-128,44
194,-86,-77,1031,-48,-190,68
195,-92,-77,1031,-130,-243,99
196,-94,-104,1010,-234,-229,111
197,-84,-112,982,-259,-155,74
198,-77,-131,975,-234,-58,7
199,-92,-117,965,-181,38,-65
200,-96,-117,1001,-165,103,-75
201,-79,-118,1019,-126,122,-69
202,-87,-104,1039,-76,56,-81
203,-97,-76,1065,-58,-61,-4
204,-91,-82,1053,3,-179,128
205,-103,-86,1031,49,-284,206
206,-85,-108,1017,-91,-380,253
207,-93,-135,979,-199,-393,158
208,-102,-115,968,-284,-300,60
209,-80,-136,956,-292,-128,-32
210,-70,-120,952,-245,25,-124
211,-87,-118,984,-201,122,-155
212,-89,-90,1021,-161,171,-143
213,-102,-79,1054,-115,122,-71
214,-105,-72,1094,-40,9,31
215,-114,-89,1090,-31,-143,115
216,-113,-114,1056,-103,-308,128
217,-98,-110,1024,-212,-390,99
218,-89,-132,986,-376,-364,72
219,-86,-142,963,-396,-266,-4
220,-73,-149,930,-345,-120,-59
221,-78,-146,959,-242,46,-86
222,-80,-155,977,-167,157,-73
223,-88,-154,1017,-81,192,-98
224,-112,-126,1046,-33,175,-122
225,-129,-116,1085,-21,128,-81
226,-113,-131,1106,-103,3,-8
227,-93,-150,1075,-138,-163,1
228,-105,-152,1027,-120,-284,-24
229,-89,-149,985,-97,-284,-38
230,-81,-173,968,-77,-194,-44
231,-68,-170,991,-23,-83,-88
232,-96,-164,1007,3,-7,-131
233,-89,-152,1039,-27,34,-155
234,-90,-130,1068,-48,17,-163
235,-110,-123,1072,-81,-83,-114
236,-99,-140,1065,-107,-204,-61
237,-97,-154,1033,-115,-331,-63
238,-109,-164,997,-136,-397,-83
239,-81,-181,954,-177,-349,-102
240,-76,-182,948,-187,-247,-157
241,-62,-162,935,-111,-120,-227
242,-57,-151,940,-60,9,-223
243,-62,-129,977,-7,50,-237
244,-75,-99,1015,5,9,-204
245,-59,-93,1027,24,-73,-112
246,-64,-106,1015,57,-177,-53
247,-62,-110,1000,3,-253,-30
248,-60,-120,993,-138,-272,-24
249,-29,-134,973,-271,-249,-85
250,-27,-137,934,-277,-184,-149
251,-34,-135,928,-193,-44,-184
252,-41,-145,953,-109,95,-200
253,-61,-125,985,-93,146,-210
254,-41,-109,1013,-111,120,-157
255,-48,-114,1041,-89,3,-81
256,-50,-102,1034,-40,-138,-38
257,-55,-119,1001,-64,-249,3
258,-41,-139,966,-159,-257,13
259,-16,-147,955,-269,-237,9
260,-33,-146,916,-288,-134,-36
261,-28,-158,910,-226,15,-51
262,-51,-146,925,-81,171,-45
263,-42,-134,977,42,286,-4
264,-55,-156,1030,67,284,42
265,-64,-138,1044,73,224,56
266,-73,-150,1067,1,112,58
267,-55,-166,1040,-167,-13,15
268,-56,-162,998,-281,-108,-55
269,-58,-159,962,-296,-83,-79
270,-45,-163,938,-228,9,-55
271,-54,-169,934,-70,132,-32
272,-71,-155,968,96,212,33
273,-63,-162,1017,202,237,68
274,-66,-141,1040,217,200,95
275,-72,-142,1057,128,130,99
276,-72,-147,1065,-23,38,80
277,-72,-151,1044,-185,-71,64
278,-75,-149,1029,-308,-155,25
279,-66,-162,989,-384,-190,3
280,-65,-177,957,-335,-124,-30
281,-60,-188,947,-214,3,-59
282,-74,-193,956,-70,136,-100
283,-70,-179,1008,22,226,-131
284,-95,-168,1040,30,232,-135
285,-83,-157,1048,30,189,-133
286,-87,-150,1060,14,64,-81
287,-86,-163,1039,-27,-99,-24
288,-70,-160,1012,10,-171,-34
289,-74,-164,993,-21,-171,-38
290,-64,-161,987,-54,-87,-30
291,-71,-173,982,-52,21,-38
292,-85,-158,992,24,116,-61
293,-88,-146,1045,59,155,-47
294,-81,-141,1048,22,128,-18
295,-96,-126,1080,24,42,42
296,-110,-138,1073,10,-58,113
297,-101,-153,1056,-38,-165,160
298,-96,-179,1038,-126,-243,185
299,-82,-207,1011,-201,-247,150
300,-75,-209,984,-208,-216,66
301,-74,-212,959,-144,-114,-24
302,-77,-194,958,-27,25,-104
303,-74,-180,997,51,128,-137
304,-71,-175,1034,65,161,-157
305,-86,-125,1049,108,140,-180
306,-97,-110,1103,98,58,-45
307,-71,-130,1094,77,-89,107
308,-61,-165,1044,128,-257,128
309,-76,-163,1020,79,-321,103
310,-69,-183,984,-76,-276,66
311,-68,-196,962,-187,-153,-12
312,-57,-190,939,-193,-32,-85
313,-64,-181,952,-115,69,-129
314,-57,-164,990,-34,124,-131
315,-53,-164,1003,32,110,-108
316,-62,-143,1010,63,58,-75
317,-63,-144,1040,67,-24,-20
318,-54,-157,1018,16,-157,17
319,-58,-157,972,-7,-245,-8
320,-41,-155,944,-38,-229,-1
321,-39,-177,921,-56,-141,-1
322,-37,-180,929,-34,-34,-36
323,-50,-177,941,-7,89,-85
324,-46,-169,949,-11,165,-108
325,-44,-165,1004,-3,181,-118
326,-59,-152,1028,16,128,-100
327,-55,-134,1035,32,34,-49
328,-53,-127,1028,14,-52,-10
329,-50,-146,1000,-23,-122,3
330,-54,-143,979,-54,-104,3
331,-44,-147,975,-77,-28,11
332,-42,-158,992,-66,52,3
333,-61,-156,985,-33,89,-1
334,-74,-150,1018,44,132,-10
335,-77,-154,1037,73,167,15
336,-75,-155,1056,61,146,21
337,-69,-143,1069,8,73,31
338,-81,-143,1045,-48,-9,27
339,-73,-158,1034,-101,-83,39
340,-63,-160,1001,-117,-143,52
341,-79,-172,966,-64,-141,58
342,-75,-177,975,24,-56,72
343,-68,-188,979,92,40,64
344,-80,-179,1008,130,79,27
345,-78,-159,1023,102,97,15
346,-77,-149,1048,65,69,37
347,-73,-156,1051,42,9,56
348,-53,-170,1033,-23,-95,50
349,-52,-171,991,-101,-190,11
350,-42,-177,958,-165,-202,-36
351,-31,-175,941,-195,-145,-51
352,-21,-169,933,-142,-67,-73
353,-25,-168,952,-38,5,-90
354,-26,-157,964,22,101,-85
355,-35,-163,999,-3,142,-67
356,-56,-151,1016,-50,110,-65
357,-55,-157,1012,-136,25,-42
358,-46,-169,978,-226,-67,-42
359,-41,-175,933,-269,-120,-75
360,-39,-188,879,-308,-95,-102
361,-25,-200,847,-329,-1,-133
362,-18,-200,819,-302,107,-178
363,-23,-198,810,-214,202,-237
364,-29,-195,800,-165,292,-282
365,-40,-183,784,-187,343,-323
366,-42,-177,783,-277,335,-379
367,-52,-183,719,-390,300,-450
368,-65,-195,662,-511,269,-575
369,-54,-192,573,-667,275,-741
370,-35,-198,516,-872,335,-856
371,25,-209,448,-1001,429,-920
372,36,-190,366,-956,521,-940
373,29,-183,310,-695,669,-891
374,41,-173,305,-191,901,-821
375,22,-86,365,442,1136,-731
376,-40,-13,434,1046,1417,-633
377,-23,14,518,1157,1573,-493
378,-27,40,527,969,1489,-436
379,-40,36,496,657,1384,-438
380,-2,16,434,321,1378,-403
381,-12,8,366,18,1403,-323
382,-20,-22,269,16,1560,-210
383,-79,-13,263,360,1948,-128
384,-185,55,344,1065,2618,-90
385,-302,133,461,1682,3243,21
386,-358,177,614,1967,3616,181
387,-382,123,729,1905,3525,296
388,-309,95,728,1419,3232,400
389,-273,40,680,829,2909,331
390,-259,83,646,583,2796,261
391,-366,133,615,805,3003,339
392,-519,213,695,1477,3505,503
393,-588,262,855,2044,4118,689
394,-734,315,989,2383,4441,640
395,-799,288,1164,2016,4441,712
396,-682,212,1299,1061,4095,787
397,-546,145,1301,-222,3337,667
398,-512,208,1237,-872,2706,613
399,-595,323,1217,-527,2431,894
400,-723,381,1287,641,2511,1423
401,-800,411,1365,2055,2767,1992
402,-871,393,1422,2733,2978,2326
403,-921,298,1482,2383,3208,2398
404,-908,203,1579,1081,3357,2267
405,-780,108,1646,-577,3269,2009
406,-747,105,1679,-1867,2948,1619
407,-820,256,1747,-2163,2546,1478
408,-901,344,1851,-1374,2122,1884
409,-1017,347,1928,14,1628,2595
410,-1068,247,1965,1194,1235,3171
411,-1084,126,1960,1614,913,3470
412,-1089,-19,1935,911,685,3464
413,-1043,-112,1898,-333,485,3074
414,-1045,-64,1873,-1318,222,2513
415,-1075,-7,1858,-1800,-85,2240
416,-1071,-21,1861,-1775,-374,2261
417,-1094,-64,1850,-1357,-706,2355
418,-1097,-129,1824,-1044,-1102,2443
419,-1099,-235,1795,-968,-1515,2456
420,-1091,-251,1762,-997,-1872,2316
421,-1090,-258,1738,-1025,-2222,2169
422,-1083,-275,1673,-1072,-2599,2021
423,-1049,-273,1613,-1083,-2938,1845
424,-1014,-263,1555,-984,-3210,1701
425,-989,-253,1491,-818,-3436,1607
426,-959,-244,1410,-628,-3600,1572
427,-912,-249,1356,-527,-3759,1505
428,-880,-238,1284,-597,-3866,1302
429,-837,-210,1234,-814,-4022,1070
430,-802,-171,1185,-1005,-4171,927
431,-759,-147,1126,-951,-4296,915
432,-733,-148,1059,-896,-4425,906
433,-703,-169,966,-882,-4417,845
434,-676,-182,923,-909,-4358,755
435,-637,-179,882,-814,-4292,677
436,-601,-201,861,-628,-4292,632
437,-581,-182,817,-452,-4370,529
438,-560,-199,758,-476,-4444,447
439,-485,-224,755,-648,-4433,261
440,-471,-164,735,-888,-4515,-59
441,-432,-103,680,-1091,-4634,-276
442,-353,-89,594,-1187,-4694,-319
443,-262,-99,493,-1163,-4626,-278
444,-210,-86,422,-1064,-4403,-315
445,-140,-85,349,-908,-4085,-327
446,-74,-85,310,-626,-3729,-272
447,22,-70,318,-345,-3419,-243
448,67,-27,330,-175,-3100,-303
449,92,6,337,-130,-2849,-340
450,132,13,351,-181,-2665,-272
451,172,36,372,-197,-2503,-221
452,205,39,383,-181,-2380,-165
453,209,57,370,-142,-2231,-131
454,237,8,321,-161,-1989,-73
455,247,-19,303,-158,-1622,-32
456,295,0,340,-38,-1184,-88
457,317,31,401,290,-804,-38
458,308,45,462,696,-624,150
459,278,16,495,936,-518,339
460,261,30,546,895,-378,365
461,249,42,591,669,-298,371
462,252,29,595,462,-284,421
463,276,6,601,366,-218,439
464,294,3,612,255,-46,371
465,289,-7,630,12,192,240
466,287,-24,653,-312,464,128
467,273,-51,691,-581,714,-14
468,244,-57,748,-800,880,-120
469,189,-14,824,-765,964,-167
470,153,8,899,-365,939,-18
471,176,-28,951,87,747,283
472,156,-84,948,389,487,412
473,160,-128,946,364,345,322
474,159,-138,921,28,329,138
475,158,-139,907,-294,390,-81
476,147,-135,913,-542,515,-264
477,101,-112,945,-800,681,-448
478,102,-56,1017,-890,816,-479
479,81,-39,1061,-388,726,-264
480,81,-40,1099,231,491,42
481,83,-87,1078,559,212,220
482,86,-114,1038,565,-5,236
483,87,-129,1012,337,-104,107
484,111,-87,957,49,-61,-102
485,97,-53,945,-68,89,-270
486,97,32,950,32,351,-370
487,80,59,1006,75,595,-329
488,95,50,1040,73,704,-245
489,98,55,1078,122,659,-190
490,92,71,1101,217,491,-110
491,82,48,1074,288,273,-4
492,78,32,1059,305,144,17
493,71,32,1052,188,116,-59
494,71,14,1032,-54,218,-170
495,68,18,1039,-273,364,-276
496,57,-11,1058,-406,507,-360
497,38,18,1084,-474,614,-409
498,25,54,1148,-378,593,-362
499,21,63,1178,-85,386,-172
500,31,34,1168,153,-15,68
501,32,-20,1082,311,-391,142
502,60,-58,1016,208,-542,103
503,52,-76,966,-42,-446,-1
504,59,-45,952,-138,-212,-145
505,72,-35,944,-76,32,-165
506,59,1,979,110,194,-176
507,62,36,1024,223,306,-141
508,70,58,1070,237,298,-40
509,82,85,1093,325,151,95
510,67,95,1103,415,-99,232
511,59,55,1079,333,-263,292
512,56,22,1032,42,-315,261
513,64,2,963,-368,-290,124
514,73,-20,911,-654,-106,-59
515,80,-42,901,-822,200,-249
516,86,-43,907,-913,507,-436
517,82,34,991,-913,679,-512
518,68,113,1068,-451,614,-284
519,55,92,1115,282,319,179
520,46,42,1110,731,-56,455
521,50,-23,1045,594,-288,480
522,70,-72,1021,91,-335,310
523,46,-76,989,-415,-302,74
524,48,-91,938,-695,-153,-110
525,48,-94,926,-689,91,-225
526,39,-75,960,-550,343,-274
527,43,-36,1021,-304,433,-210
528,38,-36,1044,36,296,-18
529,61,-76,1048,321,71,154
530,51,-102,1019,462,-114,199
531,69,-108,1011,432,-188,154
532,45,-111,1012,257,-163,42
533,40,-107,1019,5,-67,-79
534,34,-125,1019,-212,79,-192
535,20,-118,1024,-341,196,-325
536,31,-103,1038,-363,239,-381
537,16,-95,1062,-124,157,-294
538,30,-117,1063,217,17,-174
539,38,-121,1045,405,-153,-157
540,36,-108,1030,376,-261,-196
541,47,-101,1022,235,-235,-253
542,52,-94,1011,77,-181,-348
543,50,-79,999,-136,-97,-458
544,60,-63,992,-275,3,-553
545,66,-62,986,-314,71,-590
546,63,-50,1005,-234,110,-579
547,79,-37,1028,-7,83,-491
548,58,-19,1030,249,13,-385
549,56,-1,1052,436,-77,-278
550,62,-6,1052,501,-147,-196
551,49,-19,1043,411,-179,-225
552,60,-7,1040,192,-147,-331
553,69,-10,1032,-89,-81,-461
554,66,-13,1012,-335,-18,-555
555,69,-14,1008,-466,52,-606
556,68,8,995,-431,101,-604
557,68,12,1023,-271,107,-528
558,67,25,1002,-64,48,-419
559,69,-5,989,106,-36,-290
560,78,-19,998,186,-87,-245
561,66,-26,975,143,-67,-278
562,91,-9,999,7,17,-342
563,72,0,1014,-122,85,-407
564,76,7,1009,-220,114,-442
565,65,25,1008,-251,140,-454
566,77,31,1013,-183,128,-387
567,98,20,1040,26,38,-268
568,76,-5,1013,243,-69,-172
569,66,-28,991,286,-65,-151
570,60,-21,992,225,-11,-186
571,69,-13,1007,122,62,-253
572,75,21,1029,-23,112,-333
573,74,6,1031,-220,118,-350
574,64,-12,1008,-380,122,-393
575,79,-7,1018,-456,132,-417
576,56,1,1021,-329,79,-342
577,87,-13,984,-38,-9,-163
578,79,-36,957,255,-81,-67
579,57,-68,971,323,-13,-67
580,72,-73,977,198,120,-151
581,62,-50,1004,-34,210,-274
582,69,-48,997,-173,269,-352
583,41,-32,1034,-251,308,-411
584,33,-39,1060,-365,304,-436
585,39,-57,1034,-384,206,-432
586,44,-48,1016,-316,120,-415
587,43,-41,1032,-87,25,-323
588,58,-81,1012,116,-52,-253
589,45,-71,973,178,-61,-276
590,54,-67,955,87,44,-344
591,75,-54,1005,-34,183,-411
592,81,-24,1027,-50,214,-444
593,51,-16,1035,-54,165,-413
594,45,-19,1035,-62,140,-356
595,56,-44,1055,-33,99,-323
596,60,-60,1032,-7,50,-319
597,56,-55,1010,-3,40,-327
598,47,-60,999,12,52,-338
599,30,-65,998,22,110,-362
600,40,-51,1035,-9,210,-409
601,31,-38,1060,-38,253,-432
602,26,-28,1064,-34,192,-403
603,26,-21,1071,-9,89,-397
604,26,-13,1065,16,-30,-356
605,25,-17,1027,89,-140,-303
606,36,-28,1003,151,-183,-288
607,42,-43,998,96,-157,-301
608,41,-52,979,28,-46,-338
609,44,-51,977,-15,52,-399
610,42,-44,981,-31,150,-448
611,25,-17,1027,-54,224,-477
612,28,-19,1059,-95,226,-479
613,32,7,1070,-87,128,-473
614,42,20,1075,-19,-34,-422
615,40,16,1043,49,-188,-311
616,54,-21,999,87,-251,-243
617,50,-37,962,61,-200,-268
618,57,-45,957,-64,-50,-327
619,67,-43,965,-156,107,-387
620,48,-37,988,-138,222,-422
621,46,-27,994,-130,278,-430
622,49,-29,1026,-107,257,-420
623,48,-7,1042,-19,189,-383
624,38,27,1089,89,83,-282
625,50,-11,1068,233,-99,-135
626,39,-31,1036,276,-268,-85
627,31,-52,977,169,-270,-145
628,44,-63,955,-95,-134,-225
629,56,-79,953,-288,64,-360
630,42,-68,955,-316,245,-485
631,48,-59,988,-306,357,-512
632,34,-31,1025,-138,368,-473
633,26,-22,1053,57,286,-409
634,29,-21,1069,143,118,-342
635,14,-23,1062,104,-58,-338
636,28,-35,1035,-60,-136,-370
637,44,-57,981,-216,-130,-432
638,32,-56,979,-296,-75,-481
639,41,-71,959,-302,13,-497
640,39,-70,953,-173,132,-497
641,36,-63,1002,-27,232,-487
642,45,-26,1029,108,259,-438
643,42,-3,1067,225,179,-354
644,42,-25,1059,253,38,-305
645,45,-40,1038,135,-59,-346
646,30,-36,994,-48,-85,-411
647,42,-39,998,-185,-34,-436
648,47,-45,973,-245,64,-473
649,53,-47,966,-271,171,-485
650,64,-42,964,-281,282,-485
651,48,-29,989,-216,347,-448
652,49,-37,1022,-54,329,-364
653,34,-43,1040,85,241,-336
654,19,-16,1056,69,159,-338
655,20,-13,1058,-33,89,-315
656,21,-35,1020,-77,5,-309
657,20,-57,1004,-111,-13,-333
658,19,-79,971,-158,71,-387
659,22,-66,984,-161,159,-434
660,12,-57,1006,-171,214,-499
661,22,-35,1032,-202,261,-508
662,22,-33,1049,-105,210,-485
663,10,-20,1060,-13,120,-405
664,15,-23,1072,-27,26,-356
665,16,-42,1054,-81,-65,-358
666,26,-37,1052,-181,-181,-387
667,38,-38,1026,-322,-261,-376
668,36,-65,988,-357,-284,-358
669,33,-71,958,-314,-229,-370
670,31,-79,948,-224,-73,-413
671,29,-62,966,-138,177,-456
672,18,-50,997,-103,372,-446
673,20,-37,1063,-31,407,-440
674,33,-31,1082,12,296,-420
675,10,-34,1109,-36,89,-366
676,11,-38,1092,-79,-87,-311
677,16,-49,1041,-68,-173,-288
678,14,-71,1018,-97,-208,-268
679,10,-87,1007,-171,-140,-311
680,-4,-95,1027,-175,9,-360
681,6,-104,1018,-177,128,-391
682,-11,-92,1028,-210,192,-436
683,-3,-96,1030,-191,198,-487
684,0,-89,1050,-208,181,-504
685,1,-69,1056,-181,140,-497
686,10,-72,1041,-144,71,-465
687,6,-74,1044,-81,-16,-458
688,-2,-60,1035,20,-114,-458
689,-5,-73,1028,14,-186,-432
690,-2,-58,1009,10,-220,-444
691,5,-43,1002,59,-177,-434
692,16,-35,994,114,-171,-397
693,19,-19,988,182,-126,-387
694,44,-3,979,192,-40,-385
695,58,-7,1002,155,-18,-362
696,62,17,999,104,-67,-352
697,55,33,1001,132,-112,-307
698,56,16,1024,237,-153,-231
699,53,12,1038,262,-214,-180
700,38,6,1034,165,-261,-176
701,42,5,1015,1,-237,-215
702,50,5,993,-161,-171,-260
703,51,15,991,-243,-79,-241
704,64,0,994,-163,-11,-163
705,41,-4,1005,-40,-32,-77
706,33,-26,1007,65,-69,-42
707,44,-27,1007,165,-79,-55
708,38,-29,1030,153,-97,-77
709,39,-26,1034,100,-114,-106
710,46,-13,1027,40,-155,-163
711,39,0,1047,-85,-212,-157
712,50,1,1029,-185,-220,-118
713,56,-12,1022,-247,-194,-88
714,52,-27,1024,-261,-212,-53
715,39,-38,1008,-183,-245,-18
716,53,-54,1021,-111,-265,-14
717,49,-56,1025,-97,-268,-18
718,20,-45,1020,-99,-222,-24
719,24,-62,1034,-152,-153,-63
720,48,-71,1051,-226,-124,-124
721,38,-84,1022,-298,-130,-200
722,33,-80,1010,-361,-147,-251
723,40,-51,1046,-367,-184,-249
724,27,-47,1036,-212,-266,-143
725,17,-53,1027,-52,-386,-24
726,29,-84,1006,46,-419,37
727,42,-106,1012,104,-390,5
728,50,-89,1000,133,-399,-65
729,38,-63,982,122,-360,-122
730,48,-56,1000,71,-272,-122
731,51,-67,1008,26,-210,-149
732,71,-53,1008,-31,-200,-192
733,65,-18,1026,10,-200,-178
734,73,-6,1029,36,-206,-135
735,83,-17,1053,44,-276,-85
736,60,-13,1043,26,-370,-16
737,62,-23,1024,24,-391,11
738,80,-32,1017,34,-358,33
739,79,-65,980,57,-311,21
740,91,-70,958,55,-202,-34
741,83,-63,963,48,-48,-118
742,79,-43,1008,12,89,-161
743,75,-25,1038,-29,99,-122
744,70,-27,1051,-70,-26,-90
745,70,-47,1024,-85,-184,-79
746,76,-56,1002,-66,-286,-86
747,76,-56,989,24,-337,-73
748,92,-62,966,122,-321,-42
749,95,-63,967,171,-237,-65
750,96,-62,951,147,-106,-102
751,87,-70,973,79,17,-153
752,108,-53,984,-44,157,-169
753,123,-57,1017,-122,222,-161
754,102,-55,1025,-181,202,-169
755,85,-54,1044,-251,124,-182
756,85,-25,1044,-329,50,-153
757,98,-40,1037,-212,-42,-65
758,100,-65,1014,-89,-147,-1
759,96,-96,975,-103,-163,1
760,109,-111,945,-195,-38,-36
761,96,-118,970,-300,155,-116
762,99,-99,987,-423,325,-192
763,80,-100,1012,-513,411,-247
764,89,-81,1036,-607,415,-272
765,90,-74,1051,-570,321,-210
766,85,-60,1051,-370,157,-114
767,77,-75,1028,-154,-3,5
768,77,-96,991,-25,-108,66
769,84,-117,976,14,-122,42
770,100,-113,948,-21,-30,-16
771,78,-93,972,-5,103,-45
772,74,-96,997,71,216,-53
773,90,-85,1013,130,263,-36
774,59,-50,1029,130,249,-12
775,73,-57,1054,102,204,58
776,73,-80,1067,77,87,91
777,72,-75,1049,91,-91,78
778,77,-88,1017,135,-198,60
779,70,-100,985,186,-190,52
780,77,-99,983,178,-99,3
781,64,-87,986,118,52,-51
782,77,-81,1010,30,179,-98
783,78,-64,1039,-31,235,-129
784,78,-71,1036,-17,192,-128
785,70,-54,1075,1,93,-120
786,70,-62,1070,-15,-67,-49
787,59,-75,1048,-9,-233,-1
788,74,-100,980,-17,-286,-18
789,77,-130,945,-66,-222,-65
790,72,-113,929,-107,-97,-135
791,82,-107,919,-83,89,-172
792,96,-91,953,1,239,-180
793,78,-57,996,65,269,-157
794,86,-58,989,91,216,-145
795,80,-50,1007,26,128,-155
796,83,-38,974,-56,-9,-143
797,90,-52,937,-74,-136,-153
798,104,-54,875,-87,-177,-172
799,93,-69,842,-111,-141,-208
800,96,-69,792,-197,-42,-278
801,95,-71,759,-306,83,-374
802,99,-52,736,-357,171,-456
803,89,-51,692,-355,189,-518
804,102,-12,628,-390,206,-567
805,93,30,587,-451,261,-561
806,83,28,537,-427,300,-504
807,98,20,498,-409,321,-524
808,137,8,448,-468,368,-610
809,153,22,388,-464,489,-651
810,144,11,324,-349,745,-680
811,119,0,276,-189,1056,-676
812,72,-22,249,-81,1384,-715
813,37,-23,222,-224,1702,-817
814,-24,18,247,-331,2019,-979
815,-81,157,334,-284,2392,-1053
816,-43,206,441,48,2648,-930
817,-33,179,479,139,2526,-758
818,-20,152,467,-62,2323,-678
819,-42,166,383,-76,2335,-616
820,-99,169,366,171,2609,-434
821,-176,190,443,559,3060,-243
822,-263,262,531,940,3605,-100
823,-346,290,650,1147,4138,80
824,-362,215,789,987,4528,189
825,-356,156,928,282,4526,13
826,-371,170,956,-554,4243,-268
827,-408,225,980,-988,3950,-319
828,-419,312,1051,-777,3825,-81
829,-475,398,1160,79,3714,425
830,-504,425,1221,1317,3632,997
831,-508,391,1309,2104,3542,1462
832,-585,311,1351,2046,3499,1763
833,-596,253,1437,1542,3540,1796
834,-646,245,1468,774,3458,1597
835,-682,258,1499,46,3306,1472
836,-750,308,1543,-396,3226,1460
837,-760,334,1602,-368,3087,1710
838,-687,276,1650,192,2747,2175
839,-605,266,1726,692,2384,2642
840,-560,252,1756,1069,2114,3027
841,-571,252,1816,1395,1937,3417
842,-627,281,1904,1624,1974,3703
843,-726,224,2048,1526,2071,3851
844,-843,205,2048,1040,1978,3769
845,-965,231,2048,424,1737,3650
846,-1064,155,2048,-62,1355,3744
847,-1133,51,2048,-408,835,3826
848,-1134,-14,2048,-558,101,3847
849,-1149,-104,2048,-710,-677,3847
850,-1132,-180,1983,-810,-1181,3759
851,-1131,-219,1858,-974,-1446,3474
852,-1108,-247,1782,-1288,-1497,3121
853,-1062,-248,1744,-1507,-1477,2789
854,-1031,-258,1760,-1593,-1595,2505
855,-1022,-247,1745,-1501,-1933,2292
856,-1006,-227,1720,-1242,-2442,2242
857,-988,-258,1673,-1095,-3091,2269
858,-951,-276,1584,-1210,-3747,2171
859,-914,-323,1432,-1355,-4270,1951
860,-888,-337,1296,-1618,-4597,1677
861,-853,-365,1133,-1892,-4704,1372
862,-797,-411,981,-2011,-4630,1164
863,-750,-450,909,-1888,-4448,896
864,-670,-449,875,-1646,-4259,603
865,-622,-434,826,-1300,-4253,343
866,-576,-395,802,-960,-4372,78
867,-536,-336,764,-689,-4505,-170
868,-494,-254,749,-577,-4647,-344
869,-433,-185,659,-663,-4858,-360
870,-321,-193,557,-728,-5013,-297
871,-261,-176,454,-740,-5007,-350
872,-170,-180,313,-814,-4790,-450
873,-45,-166,246,-806,-4335,-547
874,52,-103,161,-712,-3800,-682
875,115,-37,118,-617,-3302,-739
876,186,51,120,-495,-2784,-756
877,279,141,121,-388,-2294,-692
878,334,206,156,-335,-1927,-508
879,400,197,200,-333,-1647,-186
880,415,160,225,-265,-1456,124
881,373,110,224,5,-1266,335
882,357,44,247,268,-974,460
883,307,-1,286,415,-581,458
884,268,-30,362,475,-175,331
885,245,-33,464,403,191,89
886,238,35,591,219,413,-172
887,212,102,700,-95,378,-167
888,230,98,756,-322,204,13
889,191,75,758,-220,-7,175
890,164,19,741,194,-183,328
891,183,-68,752,286,-167,335
892,178,-89,750,32,-30,160
893,166,-65,770,-224,175,-53
894,170,-66,845,-294,374,-170
895,138,2,915,-193,464,-262
896,141,47,985,-148,472,-239
897,135,43,1036,-163,347,-106
898,120,50,1057,-31,122,33
899,93,19,1031,128,-114,152
900,110,-25,974,116,-222,158
901,119,-54,942,-70,-200,68
902,125,-78,893,-204,-50,-100
903,115,-51,894,-202,171,-235
904,106,5,960,-101,425,-256
905,116,42,1006,135,487,-114
906,87,50,1042,467,392,46
907,98,38,1092,641,163,177
908,123,26,1089,667,-108,214
909,119,32,1057,612,-321,201
910,101,20,1010,444,-399,193
911,100,0,961,325,-257,87
912,98,-2,943,200,48,-71
913,113,18,991,14,347,-211
914,123,18,1032,-163,503,-303
915,68,94,1062,-113,515,-358
916,100,120,1124,53,364,-169
917,98,77,1114,284,71,74
918,90,58,1059,430,-202,173
919,86,52,1029,346,-278,160
920,110,54,993,120,-237,119
921,115,31,966,-89,-93,25
922,99,27,930,-191,132,-63
923,121,-2,973,-271,364,-100
924,107,23,988,-327,472,-167
925,78,70,1036,-263,536,-178
926,69,102,1100,-81,503,-20
927,63,64,1123,167,271,181
928,76,31,1116,255,-22,267
929,68,-3,1061,180,-241,232
930,73,-16,1000,-13,-261,132
931,81,-6,995,-175,-122,33
932,86,12,959,-242,3,-14
933,81,-4,981,-79,124,1
934,73,15,992,135,169,72
935,65,17,1025,305,169,152
936,69,33,1044,356,134,185
937,42,21,1037,321,60,171
938,55,10,1057,190,-7,128
939,55,-3,1037,51,-65,70
940,66,-2,997,-5,-65,5
941,58,-13,1009,-23,-9,-30
942,89,8,985,-5,71,-71
943,101,39,957,-21,112,-71
944,101,55,985,51,157,3
945,101,71,993,260,173,130
946,97,43,1022,411,134,263
947,73,19,1019,403,118,331
948,85,-17,1035,327,112,271
949,66,-22,1028,176,77,124
950,56,-20,1019,5,46,-40
951,67,-13,1015,-122,64,-170
952,70,22,1031,-187,85,-202
953,82,45,1027,-103,81,-133
954,104,55,1018,139,15,3
955,91,39,1015,366,-83,140
956,92,9,993,393,-102,189
957,93,8,986,294,-75,132
958,90,4,971,137,-44,46
959,84,3,983,-13,-32,-49
960,85,-4,976,-128,-24,-139
961,99,-18,964,-144,19,-178
962,99,2,970,-179,75,-229
963,87,50,972,-187,138,-227
964,102,61,1005,46,153,-96
965,85,40,1003,249,91,29
966,93,3,1000,180,48,42
967,111,-7,1003,-3,42,-34
968,106,5,988,-140,64,-106
969,108,3,986,-189,95,-147
970,96,-15,976,-158,120,-163
971,64,-4,986,-126,192,-204
972,62,2,996,-126,296,-231
973,76,8,1017,-150,310,-221
974,69,6,1029,-50,239,-208
975,61,8,1025,7,138,-172
976,62,-4,1008,48,79,-151
977,54,2,1036,32,73,-155
978,54,11,1004,12,95,-186
979,55,-5,990,10,122,-192
980,58,-8,991,-27,153,-213
981,59,-12,1004,-60,179,-266
982,75,-7,996,-81,226,-329
983,68,25,998,-95,271,-340
984,75,29,1035,-81,275,-303
985,70,47,1038,22,232,-253
986,50,40,1061,61,138,-215
987,52,29,1053,12,67,-204
988,45,12,1025,-54,32,-221
989,51,11,1013,-132,46,-272
990,60,1,986,-236,89,-346
991,62,12,988,-284,163,-417
992,60,18,1002,-277,261,-409
993,66,46,1022,-177,304,-360
994,50,60,1038,44,243,-237
995,62,62,1049,225,118,-110
996,63,47,1056,290,-9,-20
997,48,30,1019,239,-71,-22
998,53,12,1022,36,-50,-61
999,42,11,1000,-173,25,-172
1000,53,14,979,-253,118,-297
1001,48,34,989,-267,310,-366
1002,47,52,1018,-249,437,-338
1003,56,61,1056,-117,403,-235
1004,42,68,1076,92,230,-83
1005,47,54,1073,274,71,35
1006,56,51,1027,315,-3,60
1007,48,44,1041,217,-1,39
1008,38,43,1050,57,15,-24
1009,18,33,1002,-85,69,-108
1010,35,6,1008,-199,155,-213
1011,23,18,1005,-302,224,-297
1012,28,29,1018,-294,261,-295
1013,27,52,1021,-97,232,-215
1014,24,45,1035,178,120,-67
1015,14,33,1038,372,-26,52
1016,35,11,1021,387,-91,68
1017,24,28,1016,243,-61,-14
1018,33,35,1033,75,-16,-85
1019,44,31,1023,-60,25,-151
1020,27,29,1005,-136,75,-204
1021,39,18,1010,-140,150,-225
1022,30,20,1033,-132,181,-221
1023,28,31,1054,-40,118,-190
1024,33,49,1032,139,13,-106
1025,26,39,1044,272,-83,-40
1026,24,19,1024,208,-118,-47
1027,27,10,1031,40,-99,-128
1028,39,16,1023,-136,-46,-206
1029,26,7,1013,-265,-24,-247
1030,26,4,992,-226,32,-270
1031,30,-7,999,-150,110,-258
1032,18,0,1023,-50,134,-229
1033,13,31,1038,114,101,-186
1034,18,23,1065,241,17,-112
1035,13,14,1078,290,-89,-86
1036,11,7,1063,178,-155,-131
1037,8,14,1044,30,-198,-200
1038,8,11,1025,-89,-161,-249
1039,27,-3,1009,-148,-87,-290
1040,34,-5,1005,-171,-9,-325
1041,26,12,1008,-113,34,-346
1042,26,38,1017,-1,58,-294
1043,25,45,1061,176,-7,-186
1044,27,36,1046,290,-112,-114
1045,11,17,1040,219,-132,-106
1046,34,-3,1030,32,-134,-182
1047,41,18,1032,-124,-126,-258
1048,28,-11,1021,-204,-122,-288
1049,26,-7,984,-201,-102,-350
1050,25,-5,986,-208,-71,-426
1051,15,8,979,-208,-32,-475
1052,21,27,998,-187,30,-489
1053,30,39,1013,-83,19,-415
1054,47,24,1006,91,-63,-317
1055,52,8,999,192,-95,-284
1056,52,14,992,141,-83,-278
1057,53,17,1008,61,-63,-323
1058,52,44,993,8,-56,-356
1059,47,29,999,-72,-5,-379
1060,45,9,981,-152,79,-420
1061,43,2,985,-251,128,-471
1062,61,18,980,-283,175,-483
1063,51,28,1015,-230,192,-424
1064,45,44,1009,7,124,-317
1065,49,28,1018,192,48,-213
1066,30,3,1018,186,-11,-200
1067,43,15,1032,94,-22,-249
1068,41,15,1017,26,-24,-301
1069,35,13,1036,7,-48,-346
1070,27,17,989,-29,-69,-389
1071,38,14,987,-62,-38,-387
1072,42,23,987,-36,25,-395
1073,59,45,1018,-13,81,-372
1074,69,53,1033,77,56,-305
1075,45,52,1029,182,-44,-225
1076,42,35,1019,208,-85,-190
1077,32,25,1034,133,-63,-210
1078,-25,83,1048,42,-30,-256
1079,21,24,1017,-27,-20,-331
1080,26,45,1027,-83,15,-362
1081,36,32,1019,-130,54,-352
1082,38,25,997,-105,73,-346
1083,48,32,1002,-50,69,-299
1084,48,26,1020,57,3,-237
1085,39,32,1014,126,-38,-206
1086,49,32,1031,87,-5,-190
1087,36,22,1043,-7,-3,-215
1088,28,13,1032,-113,-24,-256
1089,25,0,1022,-128,-28,-317
1090,27,-2,1009,-161,-7,-364
1091,18,-6,1018,-220,40,-405
1092,12,7,1012,-275,103,-458
1093,13,17,1040,-302,140,-465
1094,27,27,1049,-265,103,-409
1095,30,23,1039,-62,-11,-311
1096,42,-4,1011,83,-118,-235
1097,40,-17,1016,32,-128,-227
1098,35,-29,983,-99,-81,-282
1099,41,-17,979,-132,7,-374
1100,32,-10,988,-150,71,-434
1101,25,0,976,-138,136,-454
1102,34,6,995,-132,239,-452
1103,17,26,1037,-142,278,-467
1104,26,32,1073,-81,177,-424
1105,22,31,1071,24,3,-370
1106,5,12,1031,26,-153,-305
1107,18,-7,1000,-27,-186,-288
1108,30,-31,963,-175,-122,-307
1109,34,-36,956,-216,-18,-399
1110,45,-35,954,-142,110,-446
1111,35,-15,960,-38,235,-469
1112,32,3,997,8,321,-463
1113,17,29,1044,77,312,-434
1114,41,37,1051,206,212,-366
1115,32,31,1073,303,28,-282
1116,17,23,1048,311,-100,-239
1117,23,14,1023,276,-114,-270
1118,17,8,1017,178,-67,-329
1119,3,7,1001,59,17,-405
1120,28,8,990,-52,101,-467
1121,16,22,998,-70,165,-504
1122,19,37,1009,-38,175,-487
1123,21,36,1008,3,153,-456
1124,21,43,1037,67,87,-403
1125,23,49,1037,153,-13,-348
1126,33,42,1028,169,-104,-333
1127,29,36,1002,122,-120,-370
1128,29,24,984,18,-75,-397
1129,28,11,978,-40,-1,-458
1130,27,34,979,-107,101,-512
1131,34,30,991,-171,200,-518
1132,22,52,1014,-158,224,-508
1133,20,53,1033,-48,183,-442
1134,13,50,1035,106,103,-360
1135,18,38,1020,155,-1,-329
1136,13,40,1014,112,-44,-327
1137,10,43,1025,20,-24,-352
1138,17,26,1022,-99,-7,-409
1139,18,16,1003,-202,42,-456
1140,18,0,990,-275,116,-491
1141,11,5,1000,-306,198,-542
1142,22,17,1004,-357,265,-544
1143,25,19,1005,-245,222,-501
1144,14,59,1015,-87,161,-424
1145,16,37,1014,124,112,-299
1146,21,24,1014,178,71,-253
1147,27,22,1017,40,48,-303
1148,35,14,999,-146,67,-366
1149,13,27,1001,-228,134,-399
1150,21,19,997,-181,175,-378
1151,-1,-1,1008,-117,206,-344
1152,3,-2,1026,-38,200,-329
1153,-11,-8,1031,44,171,-327
1154,-22,13,1031,96,142,-295
1155,8,2,1052,133,122,-251
1156,11,-9,1043,145,60,-268
1157,-3,2,1029,85,9,-309
1158,26,-3,1007,-23,-3,-352
1159,-1,8,1021,-81,-1,-372
1160,21,-13,1021,-113,64,-391
1161,-29,-2,1019,-156,89,-442
1162,-18,2,1010,-222,177,-436
1163,-19,-1,1031,-142,181,-411
1164,-19,-15,1031,81,116,-364
1165,-35,-7,1031,280,1,-354
1166,-47,11,1049,301,-32,-299
1167,-28,-12,1078,290,-89,-352
1168,-17,10,1060,165,-159,-465
1169,-30,27,1043,-15,-183,-571
1170,-26,21,1025,-134,-145,-590
1171,7,18,999,-197,-122,-631
1172,-15,15,995,-128,-91,-663
1173,13,14,1003,-115,5,-694
1174,-4,45,1020,-91,9,-710
1175,-14,59,1050,55,-42,-629
1176,0,58,1065,255,-100,-499
1177,1,49,1061,325,-188,-463
1178,-3,10,1036,237,-255,-497
1179,-41,22,1026,-25,-214,-586
1180,-14,2,995,-314,-97,-624
1181,-16,-6,990,-466,30,-649
1182,-25,17,983,-529,132,-620
1183,29,-2,1009,-527,198,-526
1184,18,22,1041,-341,200,-583
1185,30,26,1049,-101,73,-510
1186,20,25,1060,34,-79,-428
1187,-1,26,1073,16,-194,-393
1188,0,9,1042,-76,-235,-397
1189,9,0,1017,-253,-233,-434
1190,-3,-6,991,-390,-138,-526
1191,12,-2,974,-427,46,-598
1192,15,31,1011,-429,192,-622
1193,-6,51,1054,-388,243,-553
1194,-1,78,1097,-222,175,-420
1195,-4,87,1100,38,-69,-229
1196,-1,49,1090,49,-362,-28
1197,12,26,1057,20,-565,-1
1198,13,21,1000,-79,-659,-85
1199,15,20,962,-216,-602,-169
1200,17,16,944,-343,-382,-235
1201,22,-4,926,-392,-110,-319
1202,34,-2,944,-341,124,-344
1203,29,9,999,-294,235,-364
1204,20,27,1019,-300,226,-338
1205,16,75,1077,-199,112,-297
1206,22,54,1071,24,-102,-151
1207,25,33,1046,133,-300,-1
1208,34,0,1014,61,-391,23
1209,25,-15,964,-89,-366,-59
1210,23,-40,927,-156,-186,-161
1211,13,-36,915,-199,95,-245
1212,9,-54,948,-284,339,-309
1213,9,-26,972,-320,464,-370
1214,-3,41,1017,-324,609,-354
1215,18,24,1094,-206,640,-276
1216,4,55,1141,-9,368,-122
1217,25,37,1101,169,-5,-26
1218,6,17,1056,219,-313,29
1219,16,4,1005,151,-390,39
1220,32,-19,965,67,-296,11
1221,46,-4,923,20,-100,-44
1222,53,3,948,-27,118,-71
1223,44,31,969,8,317,-42
1224,30,46,1046,65,427,46
1225,40,61,1090,155,341,156
1226,34,51,1109,264,83,240
1227,12,35,1111,315,-227,279
1228,5,17,1053,190,-421,267
1229,2,-13,1006,-11,-444,160
1230,13,-50,947,-175,-288,17
1231,6,-40,944,-302,-65,-126
1232,-4,-9,952,-361,163,-155
1233,5,7,1020,-230,296,-90
1234,-2,18,1063,-25,275,21
1235,7,5,1100,159,124,130
1236,9,4,1097,233,-91,167
1237,11,6,1084,186,-266,185
1238,9,12,1065,139,-376,210
1239,15,-16,1004,26,-421,218
1240,23,-38,973,-40,-345,150
1241,10,-51,954,-115,-163,54
1242,18,-43,964,-161,58,-28
1243,14,-37,997,-177,179,-67
1244,13,-17,1032,-109,175,-51
1245,15,22,1064,-33,67,21
1246,24,5,1072,65,-106,152
1247,21,-18,1048,104,-261,249
1248,23,-26,1015,20,-311,246
1249,37,-63,989,-113,-268,160
1250,31,-57,961,-226,-159,27
1251,40,-56,952,-267,-16,-83
1252,36,-46,959,-202,107,-135
1253,25,-28,980,-120,146,-120
1254,25,-14,1003,22,91,-59
1255,27,-22,1048,169,-11,9
1256,11,-27,1031,190,-159,27
1257,10,-29,1021,69,-270,-6
1258,20,-43,976,-42,-313,-57
1259,21,-46,977,-173,-311,-129
1260,38,-57,921,-339,-218,-202
1261,79,-37,888,-367,-7,-266
1262,58,-19,914,-243,222,-274
1263,56,24,977,-138,390,-204
1264,52,44,1034,34,378,-47
1265,26,23,1066,313,191,117
1266,18,-15,1077,374,5,206
1267,6,-50,1037,153,-112,150
1268,6,-60,1005,-140,-120,11
1269,21,-55,978,-425,-56,-145
1270,23,-45,930,-570,60,-237
1271,21,-46,902,-515,224,-278
1272,25,-44,904,-411,364,-276
1273,25,-25,903,-308,382,-251
1274,31,-28,909,-249,314,-231
1275,39,-8,893,-206,214,-227
1276,32,-21,834,-218,95,-219
1277,34,-19,763,-327,56,-272
1278,39,-25,702,-605,142,-364
1279,60,-24,631,-960,304,-460
1280,43,-33,544,-1193,456,-596
1281,34,-12,467,-1367,628,-651
1282,48,-16,376,-1452,741,-620
1283,13,-23,302,-1331,734,-518
1284,-5,-40,214,-1074,706,-344
1285,-14,-54,145,-689,687,-254
1286,-15,-55,91,-308,706,-303
1287,12,14,45,-148,884,-506
1288,-7,75,-1,-415,1263,-694
1289,18,116,1,-947,1790,-811
1290,49,146,-7,-1388,2265,-852
1291,72,179,-39,-1644,2589,-795
1292,65,175,-83,-1704,2859,-635
1293,85,180,-85,-1333,3189,-378
1294,52,236,-54,-484,3653,-61
1295,-96,344,41,546,4173,246
1296,-223,397,171,1202,4765,572
1297,-275,460,340,1450,5230,714
1298,-382,550,490,1227,5614,685
1299,-433,517,607,528,5894,790
1300,-370,426,718,-386,6028,1050
1301,-452,445,767,-572,6032,1263
1302,-627,506,888,249,6189,1701
1303,-765,495,1018,1874,6310,2312
1304,-978,466,1292,3536,6257,2691
1305,-1168,457,1522,4569,6085,2443
1306,-1299,635,1698,4508,5958,1820
1307,-1301,704,1864,2776,5900,1806
1308,-1152,633,2004,428,5593,2158
1309,-1148,604,2030,-781,4819,2261
1310,-1163,653,2002,-784,3984,2548
1311,-1187,643,1985,-1,3237,3076
1312,-1196,564,1918,700,2743,3591
1313,-1244,496,1892,919,2583,3984
1314,-1328,476,1908,663,2710,4216
1315,-1369,372,2008,378,2901,4374
1316,-1468,332,2048,184,2669,4249
1317,-1571,350,2048,-136,2110,4099
1318,-1570,275,2048,-427,1396,4244
1319,-1586,146,2048,-607,562,4333
1320,-1536,86,2048,-601,-284,4189
1321,-1544,23,1965,-806,-927,3953
1322,-1534,10,1816,-1144,-1265,3705
1323,-1475,-87,1733,-1411,-1341,3533
1324,-1410,-147,1724,-1574,-1395,3359
1325,-1371,-166,1722,-1558,-1655,3089
1326,-1316,-172,1710,-1421,-2048,2939
1327,-1278,-123,1714,-1247,-2593,2749
1328,-1244,-92,1646,-1136,-3282,2650
1329,-1198,-141,1542,-1159,-3966,2572
1330,-1159,-201,1411,-1456,-4530,2292
1331,-1118,-259,1247,-1890,-4813,1960
1332,-1059,-297,1107,-2236,-4725,1617
1333,-1014,-321,1037,-2417,-4466,1292
1334,-942,-308,994,-2349,-4300,1021
1335,-888,-255,974,-2017,-4319,849
1336,-841,-223,969,-1644,-4501,822
1337,-790,-169,953,-1261,-4677,859
1338,-739,-180,937,-995,-4866,949
1339,-698,-205,880,-898,-5120,917
1340,-665,-180,743,-933,-5290,751
1341,-606,-233,628,-1118,-5184,544
1342,-538,-231,546,-1378,-4925,220
1343,-465,-217,507,-1663,-4661,-135
1344,-415,-190,455,-1753,-4497,-358
1345,-351,-108,498,-1464,-4315,-460
1346,-281,-31,570,-909,-4220,-348
1347,-230,-33,587,-493,-4335,-122
1348,-206,-34,552,-277,-4602,33
1349,-152,-47,485,-329,-4706,29
1350,-111,-13,380,-527,-4608,-81
1351,-41,-25,289,-615,-4259,-147
1352,43,-30,245,-581,-3679,-198
1353,116,4,248,-581,-3077,-301
1354,203,38,325,-605,-2491,-358
1355,213,127,455,-605,-2175,-354
1356,208,160,569,-423,-2032,-139
1357,188,136,614,-240,-2108,171
1358,184,72,615,-113,-2222,361
1359,185,8,576,-228,-2251,386
1360,210,-54,512,-466,-2130,236
1361,247,-57,482,-613,-1808,21
1362,267,-15,498,-611,-1419,-208
1363,277,-2,498,-550,-1050,-299
1364,277,12,566,-499,-733,-381
1365,243,64,611,-382,-530,-411
1366,263,91,692,-138,-536,-210
1367,246,61,740,65,-710,-22
1368,226,44,697,44,-872,1
1369,220,27,677,-197,-827,-118
1370,243,27,635,-540,-643,-254
1371,273,8,654,-730,-405,-374
1372,272,22,657,-704,-196,-463
1373,283,40,677,-546,-13,-446
1374,310,54,729,-382,120,-399
1375,304,94,775,-93,150,-294
1376,264,120,836,278,120,-116
1377,246,118,883,432,103,3
1378,254,98,924,239,52,39
1379,277,77,947,-85,-61,-88
1380,275,99,923,-431,-122,-229
1381,269,92,875,-622,-54,-266
1382,268,63,828,-576,171,-243
1383,236,59,864,-435,460,-227
1384,235,66,927,-327,677,-184
1385,213,107,967,-79,743,-129
1386,206,139,1033,149,720,66
1387,193,97,1097,231,609,289
1388,178,45,1114,167,392,279
1389,171,34,1101,-150,181,136
1390,162,45,1049,-531,58,-16
1391,155,49,1028,-790,46,-86
1392,175,15,950,-892,144,-112
1393,172,-13,935,-796,339,-100
1394,174,-11,958,-577,554,-65
1395,151,29,1021,-304,632,39
1396,132,43,1056,81,564,218
1397,101,23,1091,438,444,378
1398,87,-17,1129,479,273,415
1399,81,-35,1097,188,69,249
1400,76,-41,1066,-210,-46,9
1401,90,-41,1041,-554,-56,-184
1402,118,-27,1002,-742,-38,-299
1403,126,-38,975,-763,17,-350
1404,140,-24,952,-523,120,-327
1405,138,16,989,-177,202,-225
1406,147,18,1032,173,165,-51
1407,143,15,1041,352,42,87
1408,147,-12,1031,319,-63,99
1409,180,-28,1019,147,-110,-16
1410,155,1,990,-134,-122,-145
1411,152,13,975,-326,-42,-231
1412,142,5,969,-433,93,-253
1413,147,1,963,-439,228,-235
1414,154,11,992,-349,308,-178
1415,153,12,1015,-144,310,-40
1416,151,3,1033,174,216,128
1417,135,-16,1034,360,101,214
1418,125,-38,1044,346,64,171
1419,116,-21,1048,116,85,39
1420,115,-6,1058,-117,85,-92
1421,112,-12,1006,-283,69,-182
1422,123,-30,987,-367,99,-227
1423,123,-29,965,-349,138,-249
1424,128,3,967,-220,153,-210
1425,144,16,989,18,134,-73
1426,144,0,969,249,75,58
1427,144,-17,954,342,62,87
1428,149,-18,977,257,130,21
1429,150,8,985,102,224,-81
1430,153,22,1013,-13,269,-118
1431,153,17,1026,-70,253,-143
1432,134,28,1028,-136,196,-159
1433,141,34,998,-222,179,-157
1434,146,32,1015,-240,150,-112
1435,159,37,1022,-117,79,-14
1436,140,14,989,71,-26,70
1437,150,-5,964,155,-24,136
1438,160,-16,942,149,77,109
1439,136,-14,965,87,198,42
1440,142,-2,990,7,325,-24
1441,140,17,1017,-29,368,-51
1442,121,17,1024,-23,321,-12
1443,124,14,1043,24,261,25
1444,117,-3,1038,1,153,42
1445,112,3,1043,-31,32,23
1446,114,6,1014,16,-46,42
1447,125,11,1001,61,-16,60
1448,121,4,985,46,60,56
1449,131,-2,1003,-13,161,25
1450,117,-4,995,-93,245,-22
1451,112,-2,1004,-156,282,-71
1452,108,-9,1023,-208,308,-102
1453,105,2,1037,-353,308,-137
1454,125,32,1055,-361,210,-126
1455,116,33,1029,-142,40,-10
1456,120,-5,1005,44,-85,117
1457,118,-32,977,71,-97,146
1458,115,-41,956,-27,-1,109
1459,130,-42,957,-66,153,56
1460,118,-14,973,-25,286,21
1461,126,-22,1016,5,372,21
1462,105,-16,1044,22,382,13
1463,94,-18,1056,-15,335,-6
1464,99,-2,1094,-50,243,-24
1465,96,9,1086,-93,89,48
1466,88,-8,1045,-72,-59,97
1467,91,-27,1023,-68,-114,103
1468,81,-22,995,-187,-79,58
1469,82,-44,983,-265,-3,46
1470,107,-42,963,-171,89,54
1471,89,-62,964,-52,192,60
1472,103,-71,995,-23,296,37
1473,85,-72,1039,-21,308,-44
1474,68,-27,1043,-29,249,-114
1475,64,-6,1073,-27,179,-86
1476,72,12,1086,71,75,-26
1477,72,5,1066,173,-73,37
1478,78,-9,1058,132,-196,48
1479,82,-18,1014,-3,-214,15
1480,105,-22,1000,-77,-114,-12
1481,99,-16,978,-81,-3,-14
1482,101,-12,1009,22,93,-8
1483,99,-31,1024,89,138,-1
1484,101,-32,1033,46,122,-53
1485,87,1,1050,-50,95,-100
1486,101,39,1067,-91,56,-65
1487,100,19,1054,-11,-69,60
1488,97,-10,1031,92,-181,138
1489,83,-29,997,73,-188,171
1490,94,-40,986,3,-100,136
1491,94,-56,988,-87,-3,70
1492,73,-50,995,-85,101,-10
1493,79,-55,1012,-99,177,-42
1494,71,-51,1008,-97,189,-81
1495,72,-38,1039,-77,150,-120
1496,83,-28,1070,-33,54,-114
1497,92,-9,1059,32,-100,-75
1498,100,-7,1021,139,-243,-16
1499,102,-15,1010,161,-274,11
1500,116,-23,969,116,-194,-1
1501,110,-25,970,24,-77,-18
1502,99,-32,958,-44,36,-69
1503,108,-35,967,-46,140,-98
1504,104,-47,985,-33,214,-94
1505,97,-46,990,20,218,-108
1506,101,-15,1008,67,191,-112
1507,111,-5,1027,118,122,-63
1508,99,14,1047,174,26,-10
1509,121,4,1033,186,-67,39
1510,112,-21,1012,104,-114,39
1511,107,-28,986,-40,-81,-28
1512,112,-25,973,-175,32,-98
1513,101,-24,957,-243,150,-153
1514,107,-17,980,-214,224,-149
1515,100,-33,984,-122,222,-133
1516,89,-15,991,-31,222,-116
1517,85,-5,1025,49,198,-53
1518,84,-12,1035,132,112,-4
1519,90,-18,1019,161,15,9
1520,95,-22,1006,91,-11,-24
1521,85,-25,991,-11,21,-85
1522,95,-19,985,-77,91,-122
1523,100,-11,1001,-93,153,-135
1524,90,-13,993,-117,210,-155
1525,85,-6,1011,-144,257,-172
1526,95,10,1034,-72,265,-120
1527,88,11,1070,98,187,-14
1528,73,-8,1068,235,34,81
1529,76,-38,1043,208,-87,85
1530,66,-45,1004,91,-87,5
1531,67,-40,1004,-50,13,-79
1532,87,-40,1001,-148,122,-145
1533,91,-35,998,-197,185,-184
1534,75,-36,1005,-185,239,-200
1535,73,-24,1039,-146,278,-178
1536,76,-17,1063,-111,235,-161
1537,72,-13,1072,-60,107,-124
1538,68,-20,1071,20,-44,-71
1539,65,-35,1019,63,-106,-51
1540,57,-40,1003,36,-85,-51
1541,61,-45,987,-5,-9,-77
1542,57,-49,990,-40,89,-118
1543,66,-50,993,-87,175,-178
1544,65,-48,1011,-154,218,-210
1545,60,-35,1041,-169,218,-227
1546,58,-28,1039,-159,159,-213
1547,65,-18,1057,-118,69,-194
1548,61,-30,1054,-5,-52,-149
1549,57,-35,1025,87,-136,-106
1550,68,-38,1003,83,-140,-106
1551,62,-42,992,28,-85,-151
1552,76,-55,1001,-38,-22,-190
1553,83,-40,996,-68,15,-206
1554,83,-38,981,-29,52,-219
1555,71,-25,1013,-7,107,-204
1556,74,-37,1038,-11,128,-190
1557,72,-16,1049,-56,73,-211
1558,69,8,1063,-3,-26,-198
1559,62,-2,1050,92,-138,-116
1560,75,-36,1035,108,-233,-81
1561,61,-33,1000,18,-272,-104
1562,67,-55,981,-124,-214,-135
1563,65,-54,957,-118,-102,-178
1564,73,-52,963,-64,34,-210
1565,73,-50,988,-62,146,-260
1566,80,-33,1010,-120,192,-286
1567,82,-6,1032,-109,161,-280
1568,91,-4,1049,3,81,-217
1569,77,-3,1055,114,-56,-167
1570,73,-11,1030,108,-177,-141
1571,75,-24,1011,34,-216,-147
1572,76,-34,989,-58,-190,-165
1573,93,-51,972,-177,-99,-184
1574,90,-45,953,-163,17,-231
1575,99,-43,965,-95,144,-235
1576,87,-38,984,12,228,-217
1577,77,-41,1022,85,249,-202
1578,75,-14,1047,85,234,-211
1579,82,13,1079,106,151,-208
1580,75,-5,1076,42,19,-192
1581,70,-21,1035,-81,-99,-198
1582,81,-18,989,-140,-104,-215
1583,79,-41,961,-201,-26,-225
1584,75,-61,966,-232,62,-245
1585,76,-71,935,-245,157,-284
1586,76,-84,959,-273,257,-354
1587,76,-66,973,-265,343,-397
1588,65,-52,1008,-187,343,-405
1589,81,-44,1037,-40,267,-352
1590,73,-14,1056,73,148,-307
1591,57,-9,1054,108,15,-251
1592,85,-33,1033,18,-71,-225
1593,81,-43,1007,-95,-79,-276
1594,81,-42,985,-173,-28,-309
1595,93,-45,972,-175,50,-305
1596,85,-58,978,-97,132,-286
1597,77,-43,978,1,235,-294
1598,72,-51,1006,48,314,-292
1599,54,-29,1060,30,310,-305
1600,58,-12,1066,81,263,-274
1601,59,-22,1088,98,140,-225
1602,57,-34,1051,69,-3,-211
1603,52,-30,1057,34,-54,-241
1604,47,-27,1023,-40,-28,-256
1605,61,-54,1012,-113,48,-284
1606,49,-46,1006,-124,122,-319
1607,52,-44,996,-97,210,-325
1608,41,-58,1009,-97,275,-307
1609,41,-45,1029,-76,288,-317
1610,28,-49,1033,-79,275,-311
1611,27,-41,1036,-42,253,-286
1612,34,-36,1050,-3,210,-254
1613,32,-32,1026,48,142,-223
1614,52,-41,1016,75,101,-204
1615,48,-57,1014,63,85,-198
1616,44,-60,1008,-1,120,-274
1617,45,-56,1003,-124,171,-364
1618,48,-65,991,-271,224,-461
1619,33,-67,1017,-443,286,-557
1620,33,-45,1016,-513,339,-608
1621,42,-24,1040,-396,331,-557
1622,47,-9,1051,-111,243,-391
1623,45,-31,1059,235,69,-200
1624,38,-78,1028,383,-75,-120
1625,25,-79,1006,294,-75,-174
1626,31,-77,1003,89,50,-292
1627,35,-72,1004,-95,153,-387
1628,33,-60,1024,-152,196,-436
1629,34,-82,1025,-187,222,-477
1630,21,-90,1011,-279,253,-547
1631,35,-51,1031,-425,317,-583
1632,30,-28,1069,-253,249,-569
1633,33,-25,1062,-23,54,-415
1634,44,-44,1035,165,-138,-319
1635,36,-61,985,202,-222,-278
1636,30,-69,971,161,-130,-295
1637,36,-87,969,108,30,-327
1638,19,-74,993,89,151,-401
1639,20,-65,1010,51,196,-467
1640,22,-55,1030,-13,200,-493
1641,26,-56,1033,-33,153,-508
1642,24,-42,1036,-56,101,-532
1643,27,-29,1038,-124,36,-542
1644,36,-20,1035,-89,-54,-510
1645,33,-41,1014,-27,-120,-467
1646,28,-46,983,7,-143,-426
1647,44,-58,967,1,-75,-409
1648,47,-74,957,-21,28,-426
1649,30,-75,972,10,165,-479
1650,42,-66,1009,-23,275,-528
1651,38,-53,1011,-54,282,-563
1652,27,-28,1046,-46,214,-567
1653,45,-14,1062,-7,116,-528
1654,48,-13,1056,48,-9,-491
1655,44,-26,1023,28,-83,-467
1656,54,-22,984,-34,-67,-471
1657,61,-47,970,-62,-3,-469
1658,61,-39,958,-13,69,-461
1659,58,-50,956,44,150,-452
1660,38,-34,998,100,241,-444
1661,24,-35,1021,122,310,-426
1662,14,-23,1057,106,298,-454
1663,10,-11,1104,26,214,-461
1664,15,2,1109,-1,62,-460
1665,23,-6,1083,40,-126,-397
1666,35,-23,1036,83,-237,-340
1667,40,-51,1003,-5,-282,-309
1668,42,-73,967,-70,-186,-338
1669,13,-57,948,-27,-5,-389
1670,21,-71,978,7,210,-411
1671,12,-63,1000,-42,335,-489
1672,-11,-50,1030,-146,374,-559
1673,-7,-33,1082,-212,329,-598
1674,2,3,1108,-161,153,-532
1675,14,-7,1083,34,-97,-399
1676,7,-26,1036,171,-290,-272
1677,20,-34,1027,190,-341,-251
1678,27,-62,971,40,-308,-268
1679,33,-75,963,-91,-153,-368
1680,42,-67,976,-146,54,-460
1681,27,-56,984,-130,235,-506
1682,13,-54,1005,-111,364,-536
1683,2,-32,1062,-142,419,-557
1684,-4,-3,1095,-163,360,-536
1685,9,3,1101,-103,189,-444
1686,16,-16,1080,-50,-32,-358
1687,16,-36,1032,12,-177,-317
1688,-7,-42,1011,18,-165,-294
1689,14,-64,993,5,-91,-288
1690,-12,-84,979,-1,28,-338
1691,0,-76,996,30,161,-438
1692,1,-67,1047,-3,257,-503
1693,-7,-26,1046,42,253,-532
1694,-12,-12,1054,149,208,-473
1695,-4,1,1096,258,91,-426
1696,-1,0,1102,216,-71,-389
1697,7,-16,1060,79,-194,-393
1698,2,-28,1054,5,-231,-419
1699,-1,-38,1012,-72,-183,-444
1700,0,-37,1007,-146,-56,-503
1701,9,-36,1011,-273,73,-567
1702,10,-35,1000,-388,136,-606
1703,5,-38,1004,-449,150,-629
1704,19,-17,1015,-523,181,-614
1705,34,-24,1009,-402,107,-514
1706,31,-28,1003,-167,-38,-391
1707,33,-56,980,49,-110,-274
1708,28,-80,986,151,-110,-227
1709,21,-95,971,104,-38,-284
1710,30,-96,971,-11,112,-381
1711,24,-70,1007,-140,278,-471
1712,18,-44,1044,-224,372,-503
1713,13,-15,1088,-267,335,-454
1714,13,-21,1085,-191,206,-397
1715,6,-18,1083,7,-48,-307
1716,5,-36,1043,122,-239,-229
1717,4,-43,998,149,-308,-219
1718,7,-54,948,159,-220,-219
1719,11,-60,954,114,-71,-245
1720,-10,-50,955,38,107,-303
1721,9,-52,987,-85,269,-366
1722,3,-39,1009,-204,321,-420
1723,14,-16,1045,-273,300,-444
1724,2,-20,1073,-265,192,-411
1725,7,-28,1073,-165,21,-374
1726,4,-18,1031,18,-167,-295
1727,2,-23,980,182,-253,-215
1728,10,-48,975,272,-175,-169
1729,8,-67,958,225,-38,-215
1730,11,-64,960,75,112,-321
1731,20,-38,1013,-85,228,-432
1732,4,-5,1041,-161,235,-461
1733,23,4,1029,-105,155,-419
1734,7,11,1023,-33,52,-362
1735,14,16,1033,71,-65,-268
1736,18,-9,1005,241,-173,-178
1737,16,-23,976,282,-169,-161
1738,16,-31,952,180,-69,-196
1739,19,-23,962,44,46,-270
1740,14,-3,969,-42,161,-333
1741,28,-3,985,-128,245,-340
1742,18,-6,1016,-163,275,-342
1743,13,25,1056,-140,243,-309
1744,17,1,1076,-33,128,-225
1745,20,-7,1060,46,-20,-135
1746,24,-23,1036,46,-71,-122
1747,31,-31,1019,-58,-44,-143
1748,43,-44,987,-161,42,-186
1749,42,-60,981,-253,177,-253
1750,25,-43,998,-337,325,-305
1751,17,-61,1013,-411,442,-346
1752,-2,-76,1035,-548,515,-399
1753,-10,-66,1064,-777,554,-461
1754,-6,-69,1061,-956,554,-497
1755,-11,-64,1053,-1025,507,-489
1756,-20,-75,1078,-956,429,-461
1757,-23,-90,1053,-865,353,-413
1758,-25,-98,1030,-755,314,-397
1759,-19,-100,1016,-636,310,-374
1760,-16,-92,1009,-462,288,-315
1761,-28,-92,1018,-230,243,-202
1762,-23,-101,1029,-11,167,-104
1763,-21,-92,1016,108,62,-63
1764,-52,-86,1041,192,-28,-44
1765,-44,-76,1048,233,-77,1
1766,-30,-91,1026,276,-124,42
1767,-45,-105,1014,284,-147,52
1768,-30,-107,1016,264,-97,5
1769,-28,-95,1017,165,-30,-67
1770,-41,-98,1036,77,13,-137
1771,-50,-87,1036,-25,34,-217
1772,-37,-61,1065,-105,15,-247
1773,-39,-66,1052,16,-93,-192
1774,-31,-66,1052,98,-192,-112
1775,-12,-75,1021,118,-274,-63
1776,-3,-75,1000,161,-331,-38
1777,0,-82,976,214,-327,-34
1778,7,-82,957,212,-259,-42
1779,2,-76,969,157,-177,-75
1780,8,-50,987,53,-75,-133
1781,5,-41,985,18,-85,-135
1782,17,-34,978,141,-188,-77
1783,28,-16,981,178,-288,3
1784,37,-31,944,327,-388,119
1785,48,-38,900,526,-468,224
1786,47,-42,892,647,-487,283
1787,38,-54,870,598,-354,228
1788,73,-71,879,268,-122,85
1789,90,-66,884,-201,73,-135
1790,86,-47,875,-632,210,-342
1791,95,-29,882,-921,364,-434
1792,77,-17,886,-1031,505,-446
1793,70,-19,910,-990,597,-350
1794,51,-38,954,-816,630,-219
1795,27,-28,1017,-566,558,-98
1796,-3,-67,1030,-408,411,27
1797,-18,-124,1022,-454,335,29
1798,-38,-175,1003,-648,360,-83
1799,-35,-198,994,-894,468,-256
1800,-62,-210,993,-1031,575,-376
1801,-53,-188,1011,-1031,724,-417
1802,-70,-147,1065,-784,784,-374
1803,-81,-109,1114,-347,696,-194
1804,-83,-120,1156,192,458,66
1805,-82,-134,1161,516,173,249
1806,-71,-150,1134,508,-42,300
1807,-54,-167,1086,387,-161,246
1808,-61,-172,1071,190,-118,152
1809,-63,-172,1022,-25,19,74
1810,-73,-176,1023,-189,198,-18
1811,-66,-177,1024,-236,382,-81
1812,-89,-173,1067,-216,482,-102
1813,-93,-153,1066,-181,472,-86
1814,-89,-140,1098,-72,364,-18
1815,-91,-153,1080,102,124,56
1816,-79,-175,1023,151,-141,48
1817,-72,-180,946,14,-274,-42
1818,-72,-180,857,-201,-239,-159
1819,-58,-194,777,-435,-173,-292
1820,-72,-209,677,-552,-73,-463
1821,-71,-210,572,-554,60,-545
1822,-53,-243,481,-402,112,-561
1823,-58,-235,450,-179,163,-672
1824,-45,-169,442,108,290,-848
1825,-2,-98,428,303,333,-903
1826,11,-36,395,284,267,-895
1827,28,6,338,167,161,-840
1828,48,23,230,24,110,-840
1829,50,69,122,-134,185,-836
1830,62,79,18,-202,403,-751
1831,63,82,-72,-189,726,-606
1832,52,92,-122,-154,1126,-499
1833,55,94,-154,77,1566,-378
1834,85,79,-159,299,1980,-294
1835,82,159,-164,493,2419,-374
1836,30,266,-82,628,2927,-465
1837,35,351,-16,604,3390,-448
1838,-1,414,15,253,3808,-391
1839,-45,422,36,-167,4265,-260
1840,-115,385,62,-542,4745,-63
1841,-226,377,156,-701,5269,134
1842,-338,383,341,-503,5716,412
1843,-535,500,567,94,6151,705
1844,-700,524,796,1149,6312,1015
1845,-834,440,964,1628,6140,1333
1846,-878,361,1183,1358,5681,1402
1847,-911,440,1260,735,5107,1218
1848,-997,478,1334,163,4669,1208
1849,-1048,458,1391,-152,4609,1376
1850,-1139,455,1416,-238,4837,1591
1851,-1172,369,1432,-109,5134,1830
1852,-1238,268,1466,-64,5366,1947
1853,-1326,285,1510,-136,5564,1929
1854,-1322,311,1636,-286,5726,2132
1855,-1288,363,1815,-458,5665,2535
1856,-1311,393,1945,-554,5054,3033
1857,-1291,360,2048,-267,4337,3601
1858,-1343,329,2048,536,3437,4095
1859,-1449,271,2048,1389,2724,4458
1860,-1593,193,2048,1776,2407,4619
1861,-1757,44,2048,1391,2509,4615
1862,-1890,-125,2048,356,2663,4324
1863,-2033,-289,2048,-798,2484,3828
1864,-2048,-309,2048,-1572,1792,3339
1865,-2048,-342,2048,-2060,601,3150
1866,-2048,-421,2048,-1654,-903,3124
1867,-2048,-516,2048,-1001,-2415,3078
1868,-2003,-575,2048,-734,-3641,2861
1869,-1925,-654,2047,-794,-4450,2423
1870,-1842,-573,1858,-947,-4854,1716
1871,-1775,-420,1748,-1117,-5100,1132
1872,-1631,-333,1622,-1115,-5378,1007
1873,-1525,-306,1468,-988,-5808,982
1874,-1422,-282,1299,-818,-6296,1029
1875,-1307,-290,1144,-546,-6755,1103
1876,-1247,-254,1018,-247,-7112,1156
1877,-1199,-216,855,-238,-7309,1195
1878,-1107,-219,713,-458,-7350,1171
1879,-1006,-137,590,-708,-7259,1029
1880,-892,-142,471,-833,-7114,978
1881,-713,-99,397,-878,-6897,857
1882,-599,-6,316,-949,-6722,638
1883,-476,27,231,-1099,-6614,638
1884,-391,16,128,-1048,-6460,665
1885,-341,-37,51,-909,-6153,669
1886,-278,3,63,-681,-5612,369
1887,-235,22,46,-1025,-5183,162
1888,-155,5,11,-1318,-4847,54
1889,-69,24,-25,-1470,-4507,42
1890,3,-4,-77,-1435,-4253,203
1891,86,-28,-129,-1150,-3880,347
1892,155,-40,-150,-784,-3393,400
1893,195,-38,-151,-400,-2913,464
1894,222,-61,-131,-31,-2399,486
1895,252,-78,-49,63,-1854,326
1896,265,-16,-5,-83,-1374,107
1897,322,12,91,-210,-1018,25
1898,324,92,161,-66,-849,115
1899,340,92,177,311,-798,464
1900,346,69,182,780,-688,775
1901,340,80,253,1169,-450,951
1902,293,36,329,1333,-138,994
1903,297,-15,446,993,255,783
1904,272,5,552,411,577,374
1905,269,16,640,-165,771,72
1906,238,21,749,-431,726,-81
1907,183,69,804,-486,446,-71
1908,189,60,824,-359,179,80
1909,178,32,859,-199,25,162
1910,167,20,832,-126,-97,203
1911,139,-16,812,-77,-28,283
1912,136,-14,856,32,275,224
1913,115,-14,935,22,560,111
1914,102,-4,1012,-72,630,-6
1915,71,25,1070,-150,511,-118
1916,58,47,1091,-357,339,-116
1917,44,38,1066,-568,142,-108
1918,34,64,1052,-710,-44,-122
1919,43,47,1010,-630,-130,-61
1920,56,-13,983,-359,-61,52
1921,27,-80,937,-150,122,64
1922,39,-144,950,-83,390,-40
1923,39,-93,1017,-64,591,-264
1924,8,-4,1086,-68,655,-399
1925,-1,41,1155,-48,630,-411
1926,-3,64,1159,-159,484,-362
1927,16,49,1162,-290,267,-295
1928,39,36,1125,-322,97,-276
1929,12,45,1075,-302,-28,-239
1930,39,3,1022,-122,-34,-108
1931,36,-35,1020,145,66,-75
1932,13,-17,1021,237,212,-149
1933,30,31,1077,137,345,-219
1934,36,49,1096,40,368,-243
1935,28,70,1119,-83,265,-258
1936,34,47,1108,-326,110,-284
1937,30,46,1098,-488,-30,-354
1938,31,59,1088,-511,-184,-336
1939,22,41,1051,-384,-319,-256
1940,22,26,986,-158,-296,-176
1941,45,17,961,-11,-120,-151
1942,42,15,953,61,85,-129
1943,60,34,982,151,220,-77
1944,27,61,1031,239,271,1
1945,24,49,1082,253,241,68
1946,-8,50,1120,151,130,27
1947,27,40,1135,-40,-56,-53
1948,22,38,1085,-202,-311,-94
1949,16,18,1034,-212,-434,-94
1950,40,5,972,-220,-391,-83
1951,22,6,932,-142,-255,-122
1952,35,31,948,-70,-44,-88
1953,45,26,1001,44,101,11
1954,43,34,1010,151,161,46
1955,37,40,1046,122,177,78
1956,46,5,1072,96,79,70
1957,34,12,1066,34,-95,-18
1958,23,19,1035,-36,-235,-81
1959,32,20,1009,-54,-225,-94
1960,42,5,991,-60,-128,-116
1961,41,20,988,-81,-16,-120
1962,62,32,994,-21,25,-55
1963,59,20,1000,85,15,27
1964,34,29,983,171,5,81
1965,57,25,996,178,44,117
1966,50,34,1017,132,69,97
1967,72,15,1002,63,69,97
1968,67,-9,1012,-15,34,-14
1969,53,-11,972,-144,64,-112
1970,50,-8,969,-183,138,-155
1971,50,21,988,-103,157,-116
1972,53,49,1016,63,120,13
1973,53,60,1004,309,48,167
1974,56,26,993,454,5,283
1975,64,7,1014,356,34,249
1976,73,-8,1005,112,15,87
1977,76,4,987,-146,-38,-106
1978,70,12,972,-281,-20,-211
1979,44,11,961,-318,62,-270
1980,52,24,990,-316,192,-272
1981,45,33,997,-234,282,-221
1982,46,48,1006,-140,321,-112
1983,56,59,1038,137,263,29
1984,58,33,1061,356,151,164
1985,56,21,1036,321,54,195
1986,30,17,1019,133,19,99
1987,39,3,1004,-70,50,13
1988,34,1,994,-167,99,-49
1989,36,7,981,-195,165,-102
1990,22,4,996,-161,239,-92
1991,36,31,1029,-66,286,-47
1992,38,27,1028,102,237,54
1993,33,23,1010,243,146,146
1994,32,15,1011,260,101,150
1995,23,2,1008,141,99,87
1996,15,-8,1003,-38,120,-12
1997,25,5,1020,-212,124,-128
1998,27,-11,1004,-378,136,-241
1999,39,-8,988,-523,189,-329
2000,44,-2,987,-585,265,-387
2001,25,6,1006,-615,353,-385
2002,23,53,1028,-476,396,-313
2003,12,65,1047,-91,317,-88
2004,10,25,1038,192,185,117
2005,11,-13,1020,257,85,171
2006,7,-26,1041,89,77,80
2007,6,-32,1020,-169,54,-32
2008,9,-30,1016,-329,30,-114
2009,2,-63,982,-415,60,-190
2010,14,-59,968,-480,192,-294
2011,18,-32,991,-468,335,-370
2012,3,13,1013,-251,360,-307
2013,23,15,1039,94,316,-92
2014,9,6,1046,411,206,87
2015,-2,-17,1066,522,97,150
2016,-6,-22,1081,428,48,85
2017,-15,-6,1083,196,48,-42
2018,-4,-10,1085,-120,54,-161
2019,8,-12,1047,-318,26,-249
2020,1,-15,1024,-368,46,-266
2021,-11,-44,1005,-363,110,-278
2022,-17,-58,995,-255,198,-311
2023,-14,-44,1017,-234,275,-317
2024,-13,-41,1039,-156,296,-282
2025,-11,-18,1044,-7,247,-204
2026,-13,-37,1053,139,191,-112
2027,-32,-40,1065,202,81,-114
2028,-29,-40,1060,92,19,-178
2029,-14,-37,1054,-79,3,-262
2030,-24,-32,1040,-142,-15,-299
2031,-4,-39,1014,-64,-18,-278
2032,-19,-55,1002,57,-18,-237
2033,-20,-36,1004,155,23,-233
2034,-14,-21,1013,235,56,-180
2035,-12,-6,1033,303,79,-118
2036,-23,-3,1038,257,97,-88
2037,-13,-12,1089,143,77,-147
2038,-21,-5,1103,40,-52,-290
2039,-29,-2,1075,-91,-194,-378
2040,-22,-2,1030,-183,-268,-405
2041,-16,-13,1010,-212,-243,-411
2042,-6,-34,977,-202,-140,-424
2043,-1,-18,972,-161,-15,-430
2044,-2,13,1008,-58,64,-346
2045,-5,31,1028,157,54,-219
2046,-15,33,1038,278,5,-108
2047,-23,5,1058,247,-52,-61
2048,-6,-24,1057,219,-155,-159
2049,-5,-5,1017,92,-272,-272
2050,-13,10,1003,-56,-302,-360
2051,10,-5,979,-118,-241,-381
2052,14,16,944,-62,-161,-391
2053,10,22,963,59,-59,-335
2054,5,31,998,217,26,-231
2055,13,25,1012,317,40,-139
2056,2,33,1035,364,15,-116
2057,-10,29,1048,274,13,-133
2058,18,17,1058,114,-15,-196
2059,11,8,1051,-52,-87,-311
2060,6,2,1009,-193,-116,-391
2061,11,-19,974,-257,-77,-426
2062,11,-27,951,-294,19,-479
2063,5,-15,944,-275,153,-493
2064,-4,-19,966,-210,304,-467
2065,-15,21,976,-158,450,-450
2066,-20,44,1019,-31,554,-297
2067,-9,46,1046,133,577,-153
2068,-5,25,1079,192,528,-79
2069,7,-3,1106,133,345,-83
2070,2,-27,1100,44,54,-200
2071,-28,-7,1027,-68,-194,-321
2072,-13,-4,993,-118,-235,-354
2073,-9,-24,975,-117,-165,-346
2074,-14,-25,960,-99,-77,-370
2075,-11,-41,959,-44,25,-405
2076,-14,-2,991,-11,124,-417
2077,-4,17,1004,-9,202,-352
2078,15,6,1045,73,177,-276
2079,-9,24,1048,196,69,-204
2080,-21,29,1064,299,7,-147
2081,5,-8,1049,239,-32,-116
2082,-23,-30,1033,87,-83,-200
2083,-20,-25,1045,-87,-75,-280
2084,-17,-25,1029,-163,-28,-315
2085,-23,-37,1016,-152,3,-329
2086,-23,-32,1010,-111,38,-319
2087,-23,-31,1019,-122,77,-305
2088,-14,-26,1039,-40,64,-315
2089,-21,-4,1044,106,-7,-340
2090,-18,4,1068,171,-93,-331
2091,-7,-9,1044,71,-169,-344
2092,-1,-1,1015,-17,-218,-364
2093,10,-3,1006,-118,-225,-335
2094,10,1,980,-142,-196,-321
2095,-4,8,974,-122,-112,-290
2096,11,-18,992,-97,-18,-239
2097,-1,-25,999,-52,73,-264
2098,-11,-18,998,-13,155,-319
2099,-11,-32,1006,-33,202,-376
2100,-30,-21,1046,-74,183,-461
2101,-20,12,1048,-148,79,-508
2102,-6,15,1033,-130,-85,-471
2103,-6,1,1024,-40,-233,-428
2104,-4,8,990,-7,-309,-362
2105,11,-3,955,83,-255,-317
2106,7,-11,941,194,-167,-288
2107,5,-36,953,284,-44,-294
2108,1,-17,984,292,109,-362
2109,0,2,1016,180,234,-446
2110,-2,20,1046,16,239,-508
2111,-4,36,1087,-56,150,-499
2112,-11,48,1070,-60,3,-473
2113,-9,33,1061,-91,-128,-432
2114,-3,21,1014,-87,-194,-376
2115,-6,3,1003,-111,-224,-311
2116,8,-14,975,-25,-169,-303
2117,2,-18,977,77,-59,-307
2118,6,-42,958,108,64,-362
2119,-4,-40,985,63,151,-432
2120,-1,-29,982,8,218,-504
2121,-2,-11,1014,-38,222,-545
2122,-7,0,1036,-81,204,-532
2123,-7,29,1044,-144,175,-512
2124,-11,34,1030,-95,128,-444
2125,-2,13,1038,36,46,-360
2126,-19,-8,992,124,17,-309
2127,-13,-30,996,73,112,-338
2128,-10,-41,988,-31,228,-430
2129,-17,-29,981,-105,278,-503
2130,-32,-19,1003,-111,286,-526
2131,-18,0,1015,-60,292,-501
2132,-15,15,1040,46,249,-448
2133,-6,12,1053,106,155,-413
2134,-17,17,1046,149,26,-389
2135,-19,24,1039,151,-75,-362
2136,-7,25,1004,196,-102,-346
2137,-11,14,1003,180,-63,-342
2138,-26,-1,995,89,26,-391
2139,-27,12,1002,-13,142,-467
2140,-34,25,1025,-93,210,-522
2141,-39,44,1056,-126,261,-514
2142,-24,43,1083,-122,204,-456
2143,-28,37,1087,-66,36,-383
2144,-40,42,1059,59,-120,-270
2145,-25,17,1041,141,-227,-167
2146,-17,13,1025,180,-311,-161
2147,-12,10,992,180,-321,-182
2148,-16,-7,975,126,-235,-231
2149,-7,-6,970,126,-50,-317
2150,-18,-4,1004,108,161,-403
2151,-20,29,1046,3,282,-467
2152,-32,60,1094,-68,267,-465
2153,-28,68,1084,-29,153,-397
2154,-6,46,1092,44,-32,-297
2155,-21,26,1042,91,-220,-253
2156,-13,18,1006,57,-296,-254
2157,-9,15,981,-48,-290,-256
2158,-16,26,962,-66,-231,-299
2159,-8,7,944,-34,-75,-317
2160,-9,2,966,-27,120,-358
2161,-18,-2,981,-79,275,-403
2162,-25,6,1013,-197,378,-403
2163,-26,35,1056,-224,400,-352
2164,-21,31,1080,-130,286,-251
2165,-20,14,1091,1,19,-180
2166,-38,4,1042,110,-239,-172
2167,-27,-8,1000,79,-308,-170
2168,-13,-19,970,-7,-263,-200
2169,-13,-24,946,-48,-126,-303
2170,6,-16,935,-115,97,-389
2171,2,-1,978,-204,286,-452
2172,-16,6,981,-232,421,-473
2173,-12,20,1040,-253,468,-440
2174,-37,51,1051,-232,417,-336
2175,-38,48,1103,-138,321,-184
2176,-29,25,1130,-31,146,-36
2177,-59,-5,1108,-48,-77,-6
2178,-41,-26,1081,-126,-214,-85
2179,-68,-33,1017,-247,-261,-198
2180,-55,-41,978,-339,-188,-294
2181,-50,-45,945,-339,-24,-362
2182,-42,-46,937,-245,181,-401
2183,-62,-29,970,-130,314,-397
2184,-58,-7,1032,-85,368,-374
2185,-63,25,1081,-70,317,-333
2186,-55,36,1100,-5,167,-225
2187,-36,15,1096,133,-95,-120
2188,-57,4,1047,247,-360,-81
2189,-48,-9,1011,251,-444,-100
2190,-33,-36,974,108,-395,-141
2191,-33,-29,952,40,-239,-262
2192,-44,-7,951,44,-34,-352
2193,-41,10,992,75,155,-379
2194,-36,45,1047,71,216,-307
2195,-23,58,1078,132,151,-223
2196,-30,58,1114,165,-22,-169
2197,-16,47,1101,116,-196,-139
2198,-23,36,1039,44,-323,-133
2199,-28,12,1029,-15,-407,-155
2200,-27,9,998,-126,-425,-178
2201,-15,13,967,-142,-339,-223
2202,4,16,942,-138,-196,-266
2203,-1,10,935,-134,-34,-274
2204,4,25,986,-124,112,-239
2205,6,43,998,-29,153,-172
2206,-10,52,1035,75,99,-100
2207,-8,51,1045,116,-13,-34
2208,-9,48,1023,114,-147,21
2209,-10,30,1006,116,-245,35
2210,-9,14,962,73,-263,9
2211,-11,-14,955,-111,-231,-28
2212,-9,-7,936,-204,-128,-110
2213,8,-2,969,-179,25,-163
2214,-7,22,952,-101,140,-147
2215,-1,18,999,3,218,-77
2216,-1,39,1017,167,194,-1
2217,-22,24,1051,231,134,58
2218,-18,6,1059,106,56,37
2219,-19,8,1037,-107,-56,-75
2220,-8,17,1021,-281,-100,-137
2221,3,3,1003,-392,-112,-108
2222,5,-25,978,-365,-110,-114
2223,-1,-31,938,-267,-24,-139
2224,-7,-33,928,-163,150,-157
2225,-4,-7,976,-154,325,-180
2226,11,21,1024,-156,400,-120
2227,8,23,1054,22,304,5
2228,7,-1,1053,157,151,124
2229,4,-32,1041,171,5,119
2230,-11,-41,1007,40,-75,27
2231,-19,-32,980,-134,-30,-69
2232,-21,-43,971,-236,91,-131
2233,-21,-38,983,-234,214,-163
2234,-25,-13,991,-161,282,-172
2235,-34,8,1019,-93,314,-102
2236,-19,21,1044,3,271,-6
2237,-3,5,1066,155,134,91
2238,-1,-3,1059,169,-36,124
2239,-28,-1,1024,104,-134,136
2240,-27,-18,1028,-19,-126,134
2241,-24,-51,974,-167,-59,91
2242,-28,-51,946,-189,110,-14
2243,-39,-53,964,-202,314,-104
2244,-37,-34,1013,-230,456,-135
2245,-69,-27,1036,-224,493,-108
2246,-51,1,1059,-165,450,-61
2247,-47,6,1091,-34,335,37
2248,-49,8,1110,81,105,117
2249,-37,-18,1082,122,-97,154
2250,-58,-42,1035,3,-198,130
2251,-54,-48,1011,-124,-136,76
2252,-50,-79,996,-288,-30,27
2253,-49,-64,976,-292,118,-63
2254,-60,-55,993,-197,288,-61
2255,-69,-54,1036,-52,374,-16
2256,-63,-33,1083,20,378,25
2257,-61,-31,1129,65,273,39
2258,-73,-12,1152,94,15,42
2259,-67,-6,1117,65,-225,76
2260,-75,-28,1061,57,-362,117
2261,-62,-43,1027,-31,-349,124
2262,-58,-65,997,-161,-251,81
2263,-69,-58,983,-165,-99,5
2264,-54,-47,1021,-118,67,-40
2265,-60,-48,1020,-91,142,-79
2266,-75,-44,1029,-142,153,-120
2267,-67,-29,1036,-181,116,-161
2268,-71,-8,1060,-238,25,-149
2269,-57,-12,1058,-179,-134,-65
2270,-51,-19,988,-87,-292,23
2271,-29,-31,957,-93,-341,76
2272,-24,-63,909,-72,-311,72
2273,-24,-70,884,5,-206,21
2274,-35,-83,863,46,-36,-57
2275,-40,-79,874,22,153,-147
2276,-39,-48,892,-25,286,-229
2277,-38,-37,916,-72,329,-299
2278,-48,-1,902,-122,310,-311
2279,-46,2,893,-148,204,-309
2280,-59,12,841,-165,40,-311
2281,-66,-2,752,-218,-48,-348
2282,-73,-5,651,-331,-38,-413
2283,-87,-17,555,-536,25,-506
2284,-83,-23,453,-742,142,-628
2285,-74,-37,388,-837,308,-725
2286,-44,-26,302,-837,489,-836
2287,-58,5,245,-835,691,-917
2288,-38,18,219,-923,942,-991
2289,-50,60,199,-933,1202,-1045
2290,-20,141,212,-1009,1484,-1086
2291,-13,256,288,-1161,1860,-1100
2292,69,339,335,-1300,2173,-1044
2293,120,377,358,-1429,2269,-803
2294,149,387,373,-1378,2265,-350
2295,198,364,416,-732,2286,185
2296,186,297,477,253,2349,835
2297,88,264,547,1237,2554,1328
2298,-28,274,657,1870,3019,1497
2299,-177,345,845,1858,3593,1382
2300,-278,410,1025,1397,4153,1121
2301,-301,396,1199,716,4374,988
2302,-274,354,1348,-331,4304,1115
2303,-303,362,1388,-882,3878,1294
2304,-399,341,1379,-501,3343,1695
2305,-458,280,1381,264,2978,2306
2306,-545,232,1381,1102,2839,2820
2307,-625,193,1427,1725,2923,3117
2308,-738,171,1532,1852,3226,3175
2309,-809,120,1614,1442,3566,3093
2310,-828,63,1789,807,3749,2882
2311,-916,118,1928,159,3538,2482
2312,-989,196,2027,-484,3052,2277
2313,-961,193,2048,-798,2394,2507
2314,-1006,166,2048,-454,1501,2857
2315,-1006,80,2030,155,589,3273
2316,-990,-50,1938,466,-163,3539
2317,-1015,-153,1838,329,-595,3480
2318,-1025,-204,1773,-95,-641,3164
2319,-1012,-217,1797,-566,-509,2830
2320,-1038,-172,1877,-615,-599,2644
2321,-1078,-122,1907,-132,-1015,2808
2322,-1054,-217,1917,591,-1683,3302
2323,-1073,-321,1873,1296,-2515,3533
2324,-1033,-350,1790,1192,-3083,3347
2325,-985,-375,1687,462,-3321,2792
2326,-953,-296,1582,-388,-3421,2076
2327,-865,-221,1498,-1036,-3513,1558
2328,-818,-233,1381,-1128,-3653,1294
2329,-730,-276,1266,-980,-3765,1132
2330,-678,-291,1181,-935,-3827,898
2331,-659,-257,1108,-898,-3925,656
2332,-614,-174,1040,-845,-4040,556
2333,-577,-186,918,-763,-4212,603
2334,-491,-200,809,-646,-4325,580
2335,-445,-194,723,-583,-4345,382
2336,-393,-180,620,-677,-4294,173
2337,-304,-188,519,-859,-4169,-96
2338,-217,-158,390,-1011,-3979,-424
2339,-97,-144,274,-1091,-3657,-684
2340,-7,-58,197,-1074,-3196,-903
2341,121,48,195,-861,-2696,-819
2342,245,86,264,-318,-2339,-518
2343,254,114,325,454,-2253,-251
2344,218,143,367,905,-2241,21
2345,227,102,461,891,-2165,214
2346,183,89,498,587,-2058,117
2347,142,90,497,126,-1923,-55
2348,138,56,495,-245,-1710,-161
2349,173,45,543,-347,-1399,-249
2350,141,63,586,-124,-1253,-155
2351,181,46,621,307,-1266,97
2352,224,70,647,731,-1319,318
2353,222,107,694,1137,-1382,572
2354,209,104,707,1430,-1333,806
2355,202,113,767,1348,-1038,806
2356,183,131,849,858,-673,667
2357,176,115,894,219,-431,507
2358,146,66,864,-292,-268,343
2359,135,-4,803,-640,-71,177
2360,137,-73,782,-870,132,-10
2361,164,-35,806,-915,343,-198
2362,148,30,877,-734,464,-245
2363,133,78,970,-378,497,-120
2364,141,91,1032,24,396,109
2365,129,83,1092,282,259,285
2366,96,97,1126,331,140,279
2367,85,104,1132,69,40,193
2368,71,91,1076,-361,-79,113
2369,48,44,976,-646,-134,21
2370,51,17,914,-726,52,-65
2371,43,-16,898,-747,351,-122
2372,59,20,974,-640,614,-128
2373,54,31,1015,-79,536,1
2374,59,31,1011,507,280,199
2375,34,12,1002,930,7,318
2376,21,12,1015,1008,-155,279
2377,30,35,1024,905,-280,134
2378,65,75,1057,645,-388,-16
2379,-3,112,1031,436,-460,-73
2380,75,108,995,376,-372,-18
2381,96,87,955,298,-282,66
2382,101,78,926,290,-183,115
2383,106,62,919,307,-32,146
2384,119,60,955,303,91,128
2385,111,83,1009,317,159,21
2386,98,130,1060,325,124,-61
2387,73,155,1091,278,19,-18
2388,77,156,1122,307,-138,64
2389,53,143,1085,255,-231,60
2390,94,108,1073,8,-227,9
2391,57,111,1013,-300,-200,-53
2392,95,97,976,-452,-77,-59
2393,79,94,972,-435,38,-102
2394,80,95,971,-380,192,-110
2395,81,80,988,-294,257,-116
2396,78,98,1029,-183,218,-65
2397,85,98,1029,124,23,64
2398,80,70,1030,372,-171,146
2399,61,73,990,333,-255,107
2400,61,93,984,87,-192,3
2401,69,124,993,-126,-79,-51
2402,82,118,984,-156,26,-42
2403,85,110,981,-74,79,17
2404,83,90,996,-21,128,39
2405,67,89,1025,-5,181,11
2406,65,100,1042,-130,204,-53
2407,84,108,1063,-284,177,-108
2408,110,99,1058,-386,32,-126
2409,109,97,1022,-368,-147,-126
2410,111,91,977,-288,-229,-75
2411,117,68,951,-208,-186,-4
2412,116,50,942,-144,-46,13
2413,99,64,962,-118,138,-44
2414,104,82,1006,-109,247,-44
2415,98,93,1048,-124,271,11
2416,85,85,1053,-189,239,56
2417,101,68,1058,-290,171,78
2418,97,70,1067,-367,38,58
2419,72,60,1054,-351,-161,121
2420,82,37,1013,-191,-319,167
2421,69,5,965,-46,-329,142
2422,57,-9,934,-46,-190,21
2423,63,1,917,-126,25,-129
2424,67,18,945,-210,218,-235
2425,77,26,979,-257,321,-295
2426,75,55,1010,-240,351,-319
2427,75,93,1029,-132,269,-229
2428,102,60,1050,-21,95,-83
2429,104,57,1041,165,-126,-6
2430,90,54,991,208,-290,33
2431,105,42,949,132,-247,21
2432,118,45,934,46,-87,-34
2433,112,49,943,22,132,-108
2434,95,46,950,-5,300,-157
2435,85,62,995,-111,411,-206
2436,75,52,1013,-197,450,-245
2437,69,65,1052,-199,360,-264
2438,64,36,1073,-195,144,-268
2439,63,45,1041,-210,-110,-297
2440,91,39,1018,-224,-268,-295
2441,89,54,954,-132,-337,-297
2442,96,56,941,-74,-247,-278
2443,112,68,931,-70,-71,-270
2444,97,80,936,-68,150,-206
2445,97,65,964,-44,357,-94
2446,93,48,1008,44,411,-12
2447,76,61,1056,171,349,21
2448,55,66,1077,282,220,64
2449,45,46,1088,321,71,85
2450,27,59,1092,223,-48,13
2451,41,63,1075,24,-122,-79
2452,45,56,1037,-150,-138,-170
2453,57,41,983,-263,-85,-243
2454,72,56,952,-316,40,-290
2455,78,43,958,-304,206,-264
2456,91,61,973,-238,335,-204
2457,69,61,1015,-52,339,-137
2458,66,68,1023,79,288,-36
2459,72,45,1051,130,234,-4
2460,60,53,1055,46,181,-75
2461,61,74,1063,-124,150,-135
2462,67,59,1047,-197,77,-174
2463,54,49,1014,-150,15,-190
2464,58,27,985,-126,46,-174
2465,51,30,969,-77,101,-167
2466,30,14,978,-58,183,-186
2467,52,32,991,-89,249,-206
2468,50,57,1032,-58,243,-215
2469,59,72,1034,-3,189,-192
2470,65,55,1042,-3,67,-176
2471,67,46,1016,-36,-52,-196
2472,68,34,1001,-130,-61,-237
2473,69,25,973,-232,-24,-297
2474,58,44,964,-292,75,-325
2475,58,33,948,-302,226,-313
2476,58,4,976,-298,335,-319
2477,49,56,993,-263,407,-325
2478,40,90,1051,-52,368,-190
2479,26,89,1085,305,228,37
2480,28,45,1122,424,87,146
2481,24,43,1114,258,-59,7
2482,30,48,1089,-115,-167,-200
2483,27,58,1030,-388,-202,-327
2484,57,56,1009,-484,-165,-358
2485,48,39,981,-378,-71,-340
2486,39,29,947,-238,60,-317
2487,34,57,994,-171,185,-280
2488,47,61,997,-34,210,-180
2489,41,48,1012,79,177,-85
2490,45,45,1041,157,109,-57
2491,39,41,1045,106,60,-85
2492,35,30,1061,-54,25,-135
2493,42,29,1033,-181,-26,-227
2494,28,44,1003,-265,-26,-299
2495,48,25,985,-314,28,-336
2496,47,19,976,-302,101,-370
2497,47,32,970,-275,210,-389
2498,43,50,992,-150,304,-348
2499,32,46,1030,87,374,-264
2500,35,61,1059,270,374,-202
2501,27,78,1082,206,276,-147
2502,32,66,1111,42,101,-116
2503,27,45,1066,-76,-106,-122
2504,24,34,1027,-189,-190,-167
2505,42,12,979,-333,-165,-225
2506,44,10,952,-400,-75,-276
2507,41,-1,939,-376,46,-278
2508,45,-4,924,-173,177,-254
2509,39,-7,973,3,288,-217
2510,31,2,1011,63,337,-213
2511,21,39,1033,128,310,-206
2512,26,61,1078,157,241,-161
2513,17,45,1100,63,134,-143
2514,14,44,1087,-42,-9,-149
2515,25,32,1064,-85,-134,-153
2516,28,13,1030,-120,-202,-176
2517,17,-3,1012,-183,-173,-215
2518,23,-11,980,-208,-79,-245
2519,19,4,973,-117,30,-280
2520,30,16,1001,-40,122,-292
2521,33,31,1023,12,132,-235
2522,25,47,1040,128,58,-147
2523,30,41,1041,247,-26,-51
2524,22,23,1042,214,-93,-55
2525,8,6,1027,-29,-110,-174
2526,26,-2,1003,-290,-67,-305
2527,39,-6,983,-404,17,-385
2528,23,-18,988,-361,116,-399
2529,16,2,985,-193,175,-376
2530,0,27,1035,57,214,-325
2531,16,54,1058,174,212,-235
2532,25,68,1091,204,120,-167
2533,38,61,1076,200,-52,-120
2534,31,35,1045,61,-175,-141
2535,38,9,1003,-120,-224,-225
2536,27,-2,967,-271,-184,-305
2537,32,-3,945,-335,-61,-366
2538,36,-25,944,-294,79,-378
2539,17,-16,963,-171,196,-387
2540,10,12,997,-66,278,-360
2541,12,43,1040,63,284,-280
2542,19,54,1081,171,165,-170
2543,28,45,1067,208,-22,-110
2544,23,37,1069,51,-138,-128
2545,26,25,1023,-146,-177,-200
2546,36,7,996,-302,-124,-235
2547,35,-18,976,-331,-48,-258
2548,13,-15,961,-222,67,-313
2549,24,-31,960,-195,222,-360
2550,9,-31,961,-214,329,-430
2551,13,-7,1012,-238,396,-504
2552,4,41,1056,-146,360,-473
2553,3,63,1095,65,200,-338
2554,10,47,1100,169,-15,-170
2555,28,-1,1071,116,-208,-137
2556,25,-15,1007,-34,-274,-229
2557,26,-9,967,-226,-204,-307
2558,31,-25,963,-329,-75,-348
2559,26,-43,965,-253,67,-387
2560,19,-46,960,-175,204,-432
2561,17,-41,967,-179,339,-481
2562,11,14,993,-113,411,-491
2563,16,50,1045,149,392,-350
2564,22,49,1069,424,241,-139
2565,26,24,1086,403,69,-32
2566,15,4,1076,214,-42,-83
2567,0,-9,1041,-21,-99,-200
2568,-4,-28,1019,-228,-100,-315
2569,10,-25,980,-378,-61,-434
2570,16,-35,946,-431,26,-504
2571,6,-26,947,-320,181,-522
2572,7,-35,964,-134,286,-483
2573,5,0,1019,59,339,-422
2574,-10,34,1064,260,271,-333
2575,-8,29,1079,374,99,-229
2576,5,23,1078,358,-48,-190
2577,11,6,1060,169,-138,-258
2578,5,5,1032,-64,-132,-370
2579,16,3,1022,-245,-67,-463
2580,22,17,984,-365,-5,-510
2581,19,24,981,-337,89,-499
2582,9,-11,985,-253,214,-450
2583,10,-10,991,-159,325,-448
2584,-17,24,1047,-152,382,-463
2585,-19,53,1093,-13,314,-360
2586,-9,65,1127,161,130,-215
2587,-28,31,1122,233,-102,-126
2588,-16,1,1053,151,-261,-161
2589,-7,-14,1029,-19,-284,-266
2590,-7,-27,991,-218,-214,-379
2591,8,-28,978,-367,-91,-454
2592,-12,-11,969,-363,64,-493
2593,-11,-16,979,-296,196,-444
2594,-4,-31,997,-242,257,-399
2595,-25,-32,1029,-201,232,-420
2596,-16,-22,1056,-201,175,-436
2597,-17,20,1095,-144,67,-411
2598,-17,22,1079,16,-108,-295
2599,-9,-9,1040,114,-266,-188
2600,-1,-28,1001,91,-349,-192
2601,-3,-23,947,75,-278,-278
2602,2,-26,960,55,-118,-336
2603,6,-29,974,14,42,-374
2604,-1,-25,994,-25,144,-432
2605,-11,1,1021,-52,196,-461
2606,-11,19,1068,-56,202,-446
2607,-17,22,1075,-74,110,-428
2608,2,29,1090,-46,-58,-389
2609,11,23,1042,46,-239,-335
2610,6,-1,998,73,-306,-299
2611,18,-17,974,65,-255,-292
2612,7,-16,952,36,-136,-315
2613,2,-30,953,8,5,-362
2614,4,-9,972,-5,103,-403
2615,0,-7,1019,-1,181,-422
2616,7,8,1044,1,167,-399
2617,-6,22,1061,44,50,-364
2618,-6,31,1056,89,-110,-325
2619,-2,18,1042,132,-251,-260
2620,-8,19,1030,79,-276,-260
2621,0,11,1001,-54,-237,-270
2622,24,-3,971,-199,-179,-301
2623,11,13,956,-197,-91,-348
2624,8,10,954,-105,30,-366
2625,30,9,982,-21,146,-352
2626,13,17,1004,-3,165,-370
2627,22,42,1029,-9,146,-358
2628,17,56,1048,44,85,-272
2629,14,35,1057,186,-24,-165
2630,13,11,1062,217,-116,-139
2631,-6,1,1040,83,-130,-180
2632,-1,4,1042,-79,-42,-256
2633,5,-12,1035,-222,77,-333
2634,4,-10,1028,-359,155,-397
2635,-7,4,1036,-445,200,-454
2636,-8,-5,1032,-503,222,-454
2637,6,2,1056,-437,171,-413
2638,-8,-13,1045,-335,60,-381
2639,-4,-32,1034,-277,3,-325
2640,4,-38,1029,-210,-42,-282
2641,10,-54,1012,-142,-54,-262
2642,-6,-48,1005,-120,-16,-266
2643,-8,-41,1016,-118,69,-307
2644,-3,-35,1017,-177,177,-307
2645,-8,-17,1057,-177,226,-313
2646,-22,-7,1072,-72,138,-288
2647,-16,-3,1073,69,-61,-211
2648,-21,-1,1053,216,-280,-129
2649,-20,-18,1012,298,-393,-79
2650,-5,-20,980,368,-399,-53
2651,-15,-24,967,344,-333,-75
2652,7,-40,964,255,-224,-151
2653,22,-36,977,118,-95,-260
2654,13,-12,994,-44,46,-366
2655,14,-1,1024,-128,144,-432
2656,-12,22,1077,-177,146,-448
2657,-12,49,1071,-218,101,-426
2658,7,62,1102,-103,-40,-319
2659,2,50,1088,120,-229,-151
2660,-1,45,1079,268,-364,-34
2661,13,8,1050,329,-436,29
2662,-13,-12,1050,255,-458,21
2663,11,-19,1022,42,-427,-51
2664,4,-22,1022,-85,-341,-161
2665,18,-10,1011,-191,-222,-249
2666,16,-4,1020,-261,-97,-329
2667,15,42,1055,-302,-65,-340
2668,12,59,1060,-210,-149,-245
2669,24,55,1043,10,-276,-75
2670,22,35,1035,182,-370,91
2671,30,15,1033,237,-390,134
2672,11,10,1049,91,-382,111
2673,13,-7,1039,-85,-360,64
2674,21,-4,1011,-195,-325,1
2675,17,-8,996,-204,-292,-45
2676,43,-18,980,-109,-239,-131
2677,42,6,971,-17,-200,-169
2678,58,11,981,3,-145,-139
2679,61,37,1024,22,-104,-75
2680,57,30,1052,118,-140,17
2681,51,8,1047,149,-212,76
2682,31,-5,1036,40,-249,52
2683,36,-12,1025,-144,-251,-26
2684,34,-33,1002,-283,-216,-90
2685,31,-34,989,-376,-149,-172
2686,36,-38,965,-437,-67,-241
2687,34,-16,974,-359,-1,-249
2688,41,-6,1002,-177,-1,-163
2689,34,-15,1015,42,-77,-38
2690,37,-5,1016,165,-120,23
2691,45,1,1029,126,-181,64
2692,62,-12,1032,34,-278,95
2693,74,-27,1005,-29,-399,76
2694,69,-37,974,-107,-485,37
2695,65,-28,953,-128,-458,-4
2696,83,-38,936,-44,-325,-28
2697,62,-36,936,40,-147,-86
2698,84,-35,957,26,17,-124
2699,85,-3,995,-33,107,-147
2700,92,7,1029,-44,107,-114
2701,64,17,1044,16,-15,-38
2702,63,8,1045,46,-145,64
2703,67,-16,1022,3,-247,103
2704,43,-45,998,-126,-276,76
2705,64,-51,962,-300,-229,7
2706,72,-70,934,-458,-149,-114
2707,82,-64,918,-476,-40,-215
2708,102,-67,913,-361,60,-241
2709,110,-61,906,-191,107,-217
2710,104,-35,928,-72,122,-167
2711,112,-26,947,40,85,-102
2712,101,2,939,126,-26,-36
2713,104,5,942,120,-141,31
2714,121,-24,859,63,-241,64
2715,147,-44,800,-91,-204,7
2716,175,-55,778,-339,-58,-63
2717,209,-57,726,-456,134,-167
2718,209,-65,695,-517,351,-254
2719,202,-48,687,-533,554,-321
2720,167,-50,686,-501,759,-346
2721,153,-54,693,-495,913,-336
2722,136,-79,699,-468,952,-329
2723,102,-56,674,-478,917,-331
2724,74,-96,639,-437,923,-317
2725,50,-124,583,-355,901,-329
2726,35,-147,516,-417,900,-391
2727,29,-160,459,-454,946,-530
2728,59,-167,416,-449,1050,-667
2729,82,-147,365,-433,1177,-807
2730,77,-103,338,-286,1290,-876
2731,90,-32,339,-130,1433,-897
2732,73,4,327,-15,1661,-907
2733,67,45,333,-132,1878,-936
2734,30,61,282,-390,2062,-1024
2735,13,73,248,-609,2265,-1030
2736,7,46,198,-701,2464,-999
2737,6,38,108,-671,2698,-952
2738,-4,17,40,-441,2991,-944
2739,-8,118,66,-72,3474,-985
2740,-74,235,143,374,4128,-944
2741,-14,302,286,733,4638,-721
2742,-157,365,394,1030,4878,-684
2743,-231,423,453,1094,5064,-610
2744,-283,462,525,821,5124,-577
2745,-368,507,586,360,5087,-612
2746,-436,593,591,48,4993,-608
2747,-450,641,581,-316,4997,-383
2748,-536,665,576,-546,5109,39
2749,-589,679,623,-470,5403,673
2750,-668,591,674,-52,5603,1314
2751,-778,504,734,360,5556,1746
2752,-933,456,749,450,5425,1761
2753,-1064,335,785,110,5292,1548
2754,-1159,297,826,-454,5136,1111
2755,-1218,256,785,-1189,5067,714
2756,-1264,243,772,-2036,5253,691
2757,-1319,261,816,-2306,5657,914
2758,-1315,259,925,-1398,5993,1597
2759,-1388,255,1047,370,6005,2357
2760,-1503,217,1295,2239,5728,2929
2761,-1636,274,1541,3454,5200,3138
2762,-1776,270,1673,3116,4530,3238
2763,-1784,135,1727,1477,3985,3144
2764,-1779,46,1673,-745,3620,2609
2765,-1684,44,1614,-2747,3599,2081
2766,-1655,83,1571,-3659,3778,1701
2767,-1623,168,1639,-3312,3859,1787
2768,-1588,213,1795,-1943,3704,2099
2769,-1604,376,2013,-701,3116,2474
2770,-1601,403,2048,-351,2136,3025
2771,-1575,324,2048,-691,1099,3484
2772,-1555,308,2048,-1355,185,3537
2773,-1547,280,2000,-1835,-440,3523
2774,-1524,209,1895,-2245,-835,3636
2775,-1547,157,1758,-2343,-1128,3746
2776,-1593,88,1644,-1995,-1317,3970
2777,-1615,-55,1604,-1271,-1380,4230
2778,-1641,-210,1581,-810,-1542,4265
2779,-1675,-332,1616,-529,-1815,3955
2780,-1707,-376,1665,-695,-2241,3328
2781,-1749,-244,1659,-1134,-2813,2753
2782,-1685,-197,1614,-1566,-3405,2621
2783,-1623,-250,1516,-1636,-4050,2753
2784,-1560,-267,1386,-1267,-4630,2785
2785,-1501,-318,1230,-863,-5044,2828
2786,-1439,-403,1106,-722,-5214,2685
2787,-1431,-336,1070,-784,-5071,2275
2788,-1364,-284,1079,-995,-4878,1990
2789,-1281,-258,1053,-1046,-4809,1785
2790,-1261,-221,1017,-945,-4850,1576
2791,-1192,-186,1016,-937,-4866,1439
2792,-1144,-192,1028,-943,-4972,1341
2793,-1143,-193,950,-947,-5257,1105
2794,-1052,-195,898,-1029,-5452,857
2795,-989,-225,841,-1048,-5530,556
2796,-956,-224,769,-1089,-5456,244
2797,-953,-258,683,-1122,-5302,-129
2798,-978,-260,649,-1329,-5149,-534
2799,-965,-307,677,-1519,-5081,-961
2800,-962,-276,708,-1589,-5239,-1452
2801,-921,-254,635,-1888,-5663,-1741
2802,-836,-246,550,-2370,-6089,-1792
2803,-783,-159,396,-2550,-6372,-1719
2804,-662,-159,236,-2503,-6403,-1461
2805,-487,-184,91,-2195,-6216,-1299
2806,-329,-157,-48,-1992,-5907,-1458
2807,-181,-90,-148,-1865,-5452,-1641
2808,-8,-26,-183,-1617,-4972,-1688
2809,98,44,-194,-1359,-4501,-1651
2810,223,109,-173,-1113,-3960,-1503
2811,300,149,-117,-767,-3456,-1274
2812,314,246,-60,-296,-3110,-909
2813,366,244,-18,280,-2761,-331
2814,393,215,51,932,-2438,228
2815,404,182,119,1348,-2177,523
2816,394,150,165,1432,-1936,525
2817,376,183,204,1303,-1753,335
2818,388,212,275,1049,-1485,154
2819,375,267,338,932,-1259,-34
2820,358,315,385,870,-1099,-24
2821,384,287,415,780,-933,158
2822,381,280,438,548,-725,400
2823,400,226,475,260,-452,542
2824,382,208,497,61,-265,533
2825,351,149,526,-163,-140,486
2826,332,113,539,-302,13,292
2827,316,103,576,-417,235,64
2828,275,185,659,-509,575,-67
2829,270,230,756,-337,882,81
2830,261,243,847,106,927,451
2831,222,225,889,403,780,845
2832,203,123,882,346,628,1095
2833,201,37,885,85,480,1019
2834,201,-5,834,-242,325,708
2835,177,-22,800,-499,300,326
2836,193,-9,799,-640,511,-10
2837,157,23,804,-654,776,-217
2838,154,34,851,-538,1069,-247
2839,113,84,942,-255,1269,-192
2840,109,116,1068,106,1243,99
2841,77,98,1150,493,935,386
2842,76,54,1189,600,487,494
2843,61,18,1183,346,38,400
2844,78,2,1117,-117,-249,158
2845,78,8,990,-478,-304,-120
2846,96,7,909,-540,-48,-307
2847,114,6,916,-431,425,-405
2848,111,26,965,-357,841,-463
2849,88,88,1036,-290,1048,-436
2850,83,136,1117,-220,1003,-170
2851,66,99,1157,71,708,156
2852,48,40,1139,356,319,353
2853,52,-2,1129,411,9,353
2854,32,-17,1069,190,-130,206
2855,32,-25,1003,-85,-69,9
2856,32,-20,1006,-144,150,-141
2857,11,14,1013,-117,421,-243
2858,29,9,1032,-210,622,-215
2859,2,25,1095,-263,692,-180
2860,-3,47,1139,-284,648,-114
2861,0,36,1178,-271,458,25
2862,1,30,1175,-17,140,128
2863,-16,12,1147,221,-251,203
2864,-32,-24,1104,241,-440,175
2865,-7,-64,1034,26,-401,25
2866,9,-82,990,-251,-184,-196
2867,15,-44,985,-388,77,-415
2868,37,-23,1003,-417,308,-518
2869,15,31,1006,-390,396,-542
2870,34,93,1062,-359,394,-368
2871,34,99,1069,-159,243,-110
2872,52,69,1069,96,-3,171
2873,65,20,1043,294,-251,347
2874,60,-19,1020,380,-403,296
2875,60,-27,947,255,-401,124
2876,68,-34,915,65,-214,-114
2877,66,-15,920,-66,79,-374
2878,68,7,923,-240,325,-561
2879,69,25,964,-326,456,-645
2880,43,63,1006,-292,484,-629
2881,41,98,1048,-179,441,-444
2882,70,80,1070,3,261,-215
2883,64,47,1045,216,5,-53
2884,57,5,1002,280,-87,5
2885,44,-16,967,151,-11,-77
2886,44,-25,970,-48,157,-219
2887,40,-19,969,-253,339,-356
2888,49,-2,960,-347,493,-448
2889,21,21,986,-304,630,-479
2890,35,19,1013,-259,747,-399
2891,14,46,1060,-259,755,-278
2892,33,26,1118,-130,597,-131
2893,31,2,1130,92,267,-42
2894,5,37,1098,311,-26,44
2895,-10,14,1057,415,-75,109
2896,-16,-28,1036,307,21,93
2897,1,-57,1001,110,212,-45
2898,8,-68,1007,-109,368,-206
2899,-14,-42,1017,-185,501,-329
2900,-9,-8,1044,-159,569,-311
2901,-26,15,1053,-103,528,-208
2902,-27,12,1091,12,396,-45
2903,-25,5,1132,374,177,7
2904,-16,3,1118,630,-145,-28
2905,-5,18,1079,645,-399,-110
2906,5,25,1015,393,-460,-223
2907,16,35,969,165,-366,-329
2908,28,37,954,67,-198,-395
2909,29,64,958,85,9,-391
2910,15,82,981,157,165,-333
2911,8,112,1012,214,267,-227
2912,11,97,1050,85,259,-100
2913,13,90,1085,46,110,-137
2914,15,77,1079,-38,-102,-247
2915,19,74,1034,-238,-323,-405
2916,31,71,965,-408,-384,-534
2917,49,84,895,-497,-274,-622
2918,44,79,855,-490,-22,-663
2919,47,83,883,-390,265,-631
2920,32,94,914,-220,497,-598
2921,20,104,969,-11,650,-518
2922,8,116,1031,198,665,-378
2923,-16,112,1097,325,503,-227
2924,-7,104,1127,303,237,-106
2925,-16,92,1097,182,-38,-86
2926,-1,93,1062,49,-208,-120
2927,-9,85,1023,-25,-247,-145
2928,6,74,984,-56,-145,-151
2929,6,48,971,-87,-26,-176
2930,1,51,981,-115,99,-235
2931,9,65,1005,-126,235,-235
2932,-7,54,1036,-134,282,-196
2933,-8,52,1040,-126,265,-174
2934,-15,44,1054,-159,210,-167
2935,-24,46,1060,-300,132,-196
2936,-26,33,1066,-433,93,-211
2937,-9,32,1037,-497,89,-213
2938,0,-2,1018,-484,52,-231
2939,4,-18,987,-382,64,-233
2940,2,-15,956,-238,128,-243
2941,2,-24,978,-103,204,-251
2942,-15,-6,1008,-44,243,-256
2943,-11,0,989,-46,249,-256
2944,-14,20,1019,-29,232,-266
2945,-20,23,1030,-72,210,-272
2946,-1,28,1053,-134,146,-268
2947,-10,40,1036,-118,26,-260
2948,-15,51,1026,-74,-5,-196
2949,-16,48,1017,-3,17,-106
2950,-20,18,1000,67,26,-63
2951,-22,17,1005,92,50,-86
2952,-26,16,1020,44,95,-157
2953,-29,36,1033,-76,138,-170
2954,-36,48,1056,-124,114,-137
2955,-24,34,1053,-183,36,-110
2956,-33,37,1029,-216,-91,-151
2957,-30,44,1019,-193,-151,-153
2958,-10,18,1005,-171,-149,-86
2959,-21,11,987,-89,-100,-75
2960,-8,-15,998,46,46,-159
2961,-13,1,1024,22,122,-235
2962,-32,5,1006,-44,175,-307
2963,-53,38,1031,-48,206,-344
2964,-38,74,1085,-38,189,-292
2965,-20,64,1084,-29,52,-137
2966,-32,35,1067,104,-169,-20
2967,-25,11,1000,190,-270,50
2968,-33,-20,965,165,-235,50
2969,-24,-36,973,110,-102,-34
2970,-42,-51,993,44,62,-161
2971,-33,-31,1030,-54,192,-297
2972,-19,-4,1058,-216,192,-436
2973,-14,16,1062,-368,107,-514
2974,-27,48,1039,-437,-7,-485
2975,-16,35,1024,-343,-77,-331
2976,-4,26,1023,-152,-167,-157
2977,-23,20,970,44,-268,9
2978,-17,4,944,194,-216,162
2979,1,-40,957,268,-30,203
2980,-13,-47,954,286,194,85
2981,-18,-41,974,130,388,-98
2982,-29,-53,1021,-93,480,-274
2983,-19,-24,1052,-214,425,-475
2984,-36,12,1069,-359,282,-563
2985,-20,43,1107,-445,107,-483
2986,-44,55,1072,-402,-128,-356
2987,-31,44,1062,-394,-292,-145
2988,-26,11,996,-253,-386,3
2989,-14,-28,961,-70,-350,52
2990,-6,-52,943,53,-171,13
2991,-16,-71,938,87,83,-94
2992,-11,-53,962,77,319,-268
2993,-12,-33,979,-38,497,-407
2994,-40,-3,1016,-126,585,-467
2995,-41,51,1070,-142,560,-419
2996,-61,34,1112,-161,394,-247
2997,-52,5,1096,-66,153,-108
2998,-42,-17,1064,75,-52,-28
2999,-47,-33,1018,143,-192,-6
3000,-30,-63,975,157,-210,-51
3001,-36,-60,940,186,-95,-159
3002,-43,-44,945,149,93,-282
3003,-41,-25,973,91,280,-381
3004,-39,15,1028,61,374,-422
3005,-39,37,1051,73,359,-419
3006,-35,31,1096,63,198,-356
3007,-25,20,1072,36,-42,-346
3008,-22,46,1022,48,-200,-338
3009,-18,36,1004,65,-261,-274
3010,-24,22,984,104,-239,-243
3011,-18,13,965,165,-85,-268
3012,-16,3,962,128,120,-307
3013,-36,33,989,79,294,-364
3014,-30,41,1031,24,403,-374
3015,-45,63,1086,36,407,-335
3016,-40,56,1120,-34,239,-264
3017,-42,50,1106,-50,-15,-227
3018,-54,54,1071,-70,-204,-188
3019,-37,35,1035,-64,-323,-129
3020,-32,5,1001,-54,-395,-129
3021,-43,-13,945,-17,-329,-186
3022,-24,-31,913,-33,-120,-260
3023,-29,-27,933,-50,101,-346
3024,-36,2,960,-52,282,-399
3025,-43,28,976,-34,421,-393
3026,-38,31,1020,-1,468,-360
3027,-44,5,1039,-13,403,-311
3028,-36,-10,1054,-146,296,-313
3029,-36,-8,1035,-298,200,-381
3030,-40,3,1020,-355,112,-415
3031,-21,-4,1011,-257,28,-395
3032,-48,-5,984,-97,-32,-354
3033,-55,-9,979,8,19,-282
3034,-35,-33,993,40,110,-251
3035,-56,-28,998,42,146,-264
3036,-67,-28,995,57,175,-288
3037,-49,-11,1037,34,192,-276
3038,-46,-18,1055,-7,155,-237
3039,-67,-23,1048,7,48,-249
3040,-48,-27,1036,1,-38,-280
3041,-66,-27,1030,-11,-81,-317
3042,-68,-31,1012,-36,-83,-374
3043,-64,-46,1014,-81,-67,-438
3044,-88,-28,1004,-103,-18,-485
3045,-63,-33,991,-132,83,-510
3046,-77,-19,1001,-191,192,-506
3047,-60,-19,1065,-214,235,-483
3048,-71,-30,1056,-189,150,-477
3049,-67,-10,1045,-159,30,-465
3050,-66,-11,1023,-144,-73,-428
3051,-57,-28,1019,-136,-153,-366
3052,-36,-54,998,-142,-224,-358
3053,-30,-61,980,-124,-231,-446
3054,-48,-57,958,-97,-165,-559
3055,-38,-35,964,-99,3,-596
3056,-69,-35,979,-74,175,-637
3057,-66,-34,1012,-89,304,-670
3058,-70,-22,1035,-126,331,-694
3059,-54,5,1078,-159,275,-649
3060,-53,9,1084,-201,159,-553
3061,-50,-2,1081,-138,-9,-473
3062,-57,-2,1049,-9,-155,-397
3063,-52,-4,1029,40,-253,-333
3064,-63,-22,1017,-9,-276,-327
3065,-55,-34,987,-115,-202,-385
3066,-52,-48,962,-201,-75,-438
3067,-39,-46,949,-202,73,-471
3068,-49,-38,972,-146,206,-460
3069,-54,-45,1001,-56,286,-387
3070,-57,-53,1040,67,290,-336
3071,-72,-39,1082,151,212,-331
3072,-81,-38,1090,132,101,-315
3073,-80,-60,1096,69,-15,-333
3074,-71,-62,1051,7,-161,-413
3075,-62,-72,1004,-81,-229,-497
3076,-74,-61,987,-115,-204,-538
3077,-70,-56,942,-54,-102,-549
3078,-70,-62,956,34,15,-547
3079,-78,-37,996,71,130,-547
3080,-76,-44,1024,14,189,-577
3081,-59,-41,1051,-77,177,-622
3082,-57,-24,1051,-167,71,-657
3083,-54,-18,1040,-193,-61,-653
3084,-50,-25,1022,-118,-141,-612
3085,-46,-35,991,-34,-200,-577
3086,-45,-26,989,7,-214,-579
3087,-47,-15,979,7,-171,-577
3088,-34,-18,978,-33,-81,-557
3089,-32,-10,984,10,-15,-534
3090,-33,-4,994,91,36,-489
3091,-54,18,1014,155,91,-415
3092,-68,-20,1039,258,-5,-393
3093,-48,12,1069,169,-83,-368
3094,-43,-5,1079,-17,-153,-387
3095,-40,-13,1050,-202,-229,-407
3096,-45,-18,1011,-269,-296,-456
3097,-51,-12,985,-240,-294,-452
3098,-48,-7,965,-154,-173,-430
3099,-40,-18,991,-74,-22,-397
3100,-45,-2,1003,-38,77,-393
3101,-27,2,1029,-50,118,-370
3102,-31,-3,1047,-42,89,-346
3103,-37,-11,1058,22,28,-323
3104,-50,-3,1075,48,-48,-309
3105,-68,3,1086,18,-136,-280
3106,-45,-22,1069,-83,-229,-251
3107,-45,-26,1063,-154,-362,-264
3108,-54,-29,1019,-208,-423,-288
3109,-60,-27,976,-243,-393,-319
3110,-57,-29,958,-218,-288,-354
3111,-57,-51,960,-144,-120,-387
3112,-72,-15,978,-48,67,-346
3113,-31,-21,1030,57,142,-295
3114,-38,-27,1041,112,66,-288
3115,-64,-7,1043,128,-52,-297
3116,-35,0,1065,104,-114,-217
3117,-36,1,1095,106,-255,-137
3118,-49,-11,1086,87,-388,-147
3119,-35,-26,1049,-33,-483,-184
3120,-50,-33,1035,-179,-505,-260
3121,-52,-27,999,-271,-393,-333
3122,-41,-38,985,-253,-194,-364
3123,-40,-35,1001,-140,-15,-342
3124,-53,-18,1035,-11,75,-301
3125,-57,14,1070,69,64,-178
3126,-44,12,1100,214,-50,-18
3127,-46,-2,1075,366,-229,119
3128,-42,-22,1091,341,-427,167
3129,-36,-18,1069,239,-604,85
3130,-33,-35,1016,26,-722,-30
3131,-15,-36,983,-165,-720,-163
3132,-21,-28,955,-322,-632,-286
3133,-3,-27,928,-367,-425,-356
3134,-13,4,931,-288,-181,-342
3135,1,10,980,-118,28,-241
3136,-9,9,1012,34,107,-157
3137,5,12,1038,67,91,-100
3138,8,-12,1027,63,21,-36
3139,7,-5,1043,57,-85,-14
3140,5,-18,1029,5,-175,-12
3141,10,-32,1032,-97,-257,-44
3142,-12,-31,994,-201,-308,-94
3143,6,-33,973,-236,-265,-133
3144,9,-42,963,-214,-153,-165
3145,6,-40,954,-167,-15,-184
3146,5,-26,967,-124,112,-165
3147,1,-4,1017,-81,198,-100
3148,1,23,1032,-29,175,13
3149,10,-6,1054,69,69,146
3150,6,-22,1047,120,-97,171
3151,11,-33,1042,42,-259,167
3152,21,-65,1012,-107,-362,103
3153,13,-66,989,-208,-370,-6
3154,19,-58,935,-249,-245,-126
3155,26,-54,929,-240,-32,-210
3156,13,-40,967,-204,177,-227
3157,9,-22,974,-220,335,-192
3158,10,-15,1020,-222,382,-116
3159,6,-13,1011,-169,351,-26
3160,22,-8,1050,-95,253,78
3161,25,-36,1055,-15,83,152
3162,19,-54,1050,77,-83,162
3163,19,-53,1026,77,-149,136
3164,-3,-60,1015,3,-122,85
3165,-3,-71,1009,-54,-24,3
3166,1,-64,996,-105,124,-49
3167,-11,-51,1035,-124,239,-65
3168,-11,-47,1069,-118,253,-16
3169,-10,-34,1073,-50,175,60
3170,-11,-42,1078,-23,69,158
3171,-4,-59,1075,-1,-48,218
3172,-13,-66,1064,-13,-169,195
3173,-8,-79,1043,-95,-268,146
3174,-20,-95,1011,-132,-294,58
3175,-9,-107,967,-140,-210,-26
3176,14,-99,959,-117,-48,-81
3177,-3,-74,981,-46,124,-120
3178,-2,-27,1019,-21,247,-79
3179,28,-15,1079,40,261,58
3180,2,-8,1098,167,134,167
3181,-2,-28,1111,212,-40,271
3182,-20,-48,1098,165,-253,263
3183,-16,-72,1071,83,-382,210
3184,-3,-103,1016,-79,-456,117
3185,-20,-125,979,-263,-407,-28
3186,-10,-114,945,-363,-210,-180
3187,-14,-75,964,-337,38,-235
3188,-2,-57,999,-259,232,-182
3189,1,-66,1048,-201,271,-112
3190,-22,-63,1065,-158,171,-100
3191,-12,-63,1070,-197,25,-94
3192,-9,-85,1049,-294,-147,-114
3193,21,-82,1002,-402,-300,-157
3194,17,-87,943,-456,-391,-176
3195,44,-93,888,-435,-339,-163
3196,33,-101,850,-253,-210,-153
3197,36,-101,831,-46,-7,-135
3198,41,-110,837,18,245,-137
3199,45,-66,861,-56,472,-178
3200,27,-51,884,-163,634,-163
3201,53,-46,925,-279,653,-116
3202,48,-66,914,-359,489,-118
3203,72,-90,879,-400,261,-172
3204,62,-87,813,-462,54,-241
3205,79,-94,759,-468,-67,-305
3206,44,-87,686,-558,-112,-368
3207,65,-114,622,-615,11,-440
3208,68,-108,543,-757,155,-549
3209,77,-118,459,-1033,275,-686
3210,84,-104,402,-1300,421,-780
3211,120,-70,354,-1456,593,-758
3212,146,-41,285,-1292,687,-629
3213,137,-50,225,-784,810,-426
3214,130,-23,218,-54,1122,-184
3215,130,0,261,532,1560,5
3216,141,4,334,669,1962,189
3217,84,-27,352,424,2226,224
3218,79,-50,364,-7,2442,64
3219,74,-49,370,-493,2667,-188
3220,38,-9,366,-708,2857,-434
3221,6,26,372,-665,3099,-586
3222,-58,111,444,-419,3401,-544
3223,-109,176,530,-154,3675,-303
3224,-123,143,582,89,3753,95
3225,-144,109,580,399,3618,386
3226,-125,95,588,768,3466,511
3227,-236,130,602,1077,3437,540
3228,-347,131,622,1382,3640,615
3229,-424,152,705,1514,4011,615
3230,-489,165,792,1395,4446,578
3231,-544,172,914,981,4765,593
3232,-611,153,969,421,4872,533
3233,-657,135,1001,-191,4819,486
3234,-698,146,1034,-533,4722,542
3235,-778,181,1053,-167,4552,669
3236,-858,161,1107,532,4276,910
3237,-930,179,1177,1229,4067,1154
3238,-970,172,1224,1553,3950,1384
3239,-908,116,1251,1380,3853,1535
3240,-887,128,1238,839,3569,1507
3241,-904,156,1157,309,3310,1376
3242,-914,174,1136,130,3263,1328
3243,-960,237,1164,198,3349,1349
3244,-1007,293,1202,292,3542,1490
3245,-1019,277,1250,403,3771,1724
3246,-1030,223,1311,184,3870,2017
3247,-1003,156,1387,-142,3673,2189
3248,-1024,160,1432,-199,3276,2150
3249,-1040,201,1456,-17,2692,2113
3250,-1112,246,1475,143,2183,2164
3251,-1172,273,1444,151,1831,2230
3252,-1169,228,1428,22,1634,2271
3253,-1164,176,1400,-331,1439,2220
3254,-1116,97,1342,-851,1275,2117
3255,-1046,95,1302,-1146,1171,2009
3256,-1100,166,1284,-1210,1112,2037
3257,-1088,167,1328,-1107,1124,2308
3258,-1103,152,1383,-845,1015,2535
3259,-1158,181,1463,-529,747,2578
3260,-1188,157,1483,-384,421,2621
3261,-1166,71,1486,-533,58,2564
3262,-1164,31,1469,-1001,-401,2453
3263,-1147,-25,1420,-1406,-934,2267
3264,-1175,-17,1367,-1531,-1319,2105
3265,-1176,7,1306,-1503,-1567,2064
3266,-1172,-24,1293,-1226,-1696,2160
3267,-1175,-71,1297,-949,-1874,2220
3268,-1152,-110,1274,-831,-2108,2191
3269,-1138,-120,1275,-767,-2380,2093
3270,-1111,-122,1249,-995,-2604,1997
3271,-1077,-143,1232,-1255,-2854,1861
3272,-1067,-149,1205,-1331,-3141,1664
3273,-1022,-117,1132,-1447,-3347,1501
3274,-1002,-133,1083,-1363,-3501,1359
3275,-990,-138,1029,-1306,-3563,1289
3276,-940,-151,1004,-1257,-3493,1226
3277,-893,-172,960,-1185,-3442,1097
3278,-873,-185,928,-1117,-3475,915
3279,-834,-167,925,-1130,-3528,767
3280,-805,-147,923,-1238,-3571,656
3281,-748,-135,922,-1286,-3641,576
3282,-712,-146,899,-1273,-3811,480
3283,-674,-162,842,-1273,-4016,392
3284,-653,-186,816,-1243,-4145,253
3285,-654,-156,798,-1140,-4069,42
3286,-582,-157,796,-1138,-3849,-118
3287,-575,-176,825,-1206,-3645,-321
3288,-523,-189,843,-1335,-3579,-577
3289,-497,-161,811,-1472,-3640,-860
3290,-438,-118,780,-1589,-3770,-878
3291,-411,-128,771,-1451,-3934,-772
3292,-411,-129,753,-1068,-4052,-708
3293,-392,-122,707,-851,-4173,-653
3294,-351,-138,691,-734,-4151,-612
3295,-318,-160,644,-720,-4050,-639
3296,-253,-169,593,-781,-3925,-754
3297,-195,-146,551,-804,-3802,-901
3298,-126,-104,528,-667,-3694,-979
3299,-101,-56,506,-476,-3554,-1020
3300,-30,14,516,-372,-3302,-868
3301,-2,70,517,-199,-3126,-729
3302,49,99,515,-64,-2919,-454
3303,94,84,504,190,-2755,-170
3304,144,63,503,337,-2612,17
3305,171,53,484,383,-2386,21
3306,195,53,480,239,-2112,-16
3307,213,66,485,147,-1811,-49
3308,207,62,492,169,-1540,-63
3309,221,82,518,247,-1304,-32
3310,215,128,554,337,-1065,33
3311,230,153,592,315,-847,97
3312,249,129,651,268,-737,242
3313,245,106,665,219,-655,296
3314,248,66,659,40,-554,257
3315,249,20,707,-152,-487,167
3316,241,27,747,-331,-405,-1
3317,191,34,775,-476,-349,-106
3318,176,25,794,-372,-333,-178
3319,147,30,772,-253,-331,-96
3320,122,29,777,-15,-220,103
3321,160,-2,809,255,-11,285
3322,148,-37,828,389,85,361
3323,121,-35,860,399,83,310
3324,112,-47,859,270,97,218
3325,119,-58,863,110,161,99
3326,110,-52,904,-29,243,-22
3327,67,-4,919,-40,288,-79
3328,72,-17,960,32,278,11
3329,95,-35,962,120,198,85
3330,102,-60,936,167,91,85
3331,100,-53,926,200,79,7
3332,100,-22,937,216,173,-40
3333,109,2,984,202,259,-42
3334,94,1,989,227,294,-38
3335,100,-6,1000,161,341,-44
3336,101,-15,1019,5,390,-124
3337,93,8,1022,-179,429,-192
3338,85,-2,1024,-318,417,-215
3339,77,-6,1025,-333,360,-213
3340,44,-6,1020,-286,321,-221
3341,26,11,1035,-212,364,-237
3342,19,18,1072,-169,437,-210
3343,54,11,1079,-132,353,-147
3344,61,1,1061,51,192,-81
3345,47,-23,1004,214,93,-18
3346,42,-14,1010,278,75,11
3347,48,-7,1027,219,116,33
3348,42,3,1033,149,155,-8
3349,47,24,1037,32,196,-61
3350,32,26,1045,-85,235,-75
3351,41,24,1053,-161,253,-61
3352,40,15,1060,-128,232,-30
3353,19,5,1037,-31,175,11
3354,2,-11,1027,87,124,54
3355,12,-11,1008,124,114,66
3356,21,-21,1020,94,126,39
3357,13,12,1032,55,192,-4
3358,14,7,1044,-56,243,-16
3359,31,3,1054,-128,210,-30
3360,29,19,1064,-171,157,-40
3361,25,8,1033,-144,118,-16
3362,31,-21,1000,-136,73,7
3363,30,-34,1000,-113,46,-36
3364,36,-28,975,-83,42,-77
3365,39,-6,965,-25,75,-75
3366,23,2,979,75,112,-24
3367,35,-4,988,155,140,5
3368,33,5,1015,116,177,21
3369,24,-2,1021,24,179,21
3370,38,3,1064,-40,157,-18
3371,40,10,1045,-91,132,-8
3372,35,-7,1039,-77,95,15
3373,21,-19,1022,-64,83,7
3374,25,-31,1006,-109,112,-16
3375,22,-46,1001,-177,165,-55
3376,14,-31,996,-195,228,-108
3377,21,-8,1024,-187,282,-124
3378,24,29,1049,-99,269,-63
3379,18,25,1066,98,173,64
3380,24,1,1064,200,71,171
3381,28,-23,1036,190,-3,177
3382,23,-24,1028,87,-5,136
3383,35,-34,1025,-17,21,85
3384,14,-25,1032,-60,71,3
3385,5,-19,1004,-126,155,-24
3386,13,-41,1020,-138,232,-34
3387,0,-17,1030,-122,253,-40
3388,-1,-26,1038,-64,239,1
3389,5,-15,1064,8,163,58
3390,4,-10,1058,188,28,130
3391,4,-14,1069,329,-95,218
3392,2,-18,1058,329,-165,210
3393,7,-37,1033,174,-188,128
3394,11,-30,985,-7,-118,7
3395,13,-21,973,-150,25,-83
3396,35,-27,979,-204,175,-104
3397,10,-19,1004,-175,245,-106
3398,0,3,1023,-126,286,-24
3399,0,-13,1035,-36,218,39
3400,-5,-16,1046,28,103,66
3401,10,-5,1036,14,-1,56
3402,13,-23,1014,-29,-89,1
3403,34,-28,974,-103,-132,-63
3404,32,-27,954,-171,-100,-116
3405,39,-18,958,-183,-9,-135
3406,24,-4,955,-130,132,-92
3407,30,1,988,-7,278,3
3408,27,-6,1029,133,349,85
3409,5,2,1027,159,284,124
3410,4,-5,1009,128,200,150
3411,-2,-13,1016,94,140,124
3412,6,-51,1029,-5,81,52
3413,7,-52,998,-111,40,-47
3414,1,-50,979,-173,56,-122
3415,7,-46,983,-187,128,-153
3416,0,-36,979,-124,214,-147
3417,-2,-19,998,-91,292,-112
3418,7,-4,1019,-21,317,-26
3419,10,0,1052,87,263,52
3420,4,-11,1054,182,165,134
3421,-4,-30,1035,214,48,195
3422,-3,-55,1031,178,-7,162
3423,7,-78,999,65,17,60
3424,-14,-67,1006,-52,67,-75
3425,-24,-52,1010,-128,175,-167
3426,-28,-39,1015,-144,282,-202
3427,-23,-23,1025,-136,374,-208
3428,-21,-15,1067,-111,400,-170
3429,-17,-10,1074,-54,347,-98
3430,-19,-5,1072,-31,247,-22
3431,-13,-19,1059,-46,103,21
3432,-16,-27,1026,-70,-26,21
3433,-17,-34,1009,-120,-56,13
3434,-27,-72,947,-193,25,-30
3435,-22,-85,953,-275,153,-85
3436,-40,-88,963,-296,296,-163
3437,-45,-95,981,-290,425,-178
3438,-42,-94,1040,-222,478,-170
3439,-44,-70,1072,-62,415,-131
3440,-44,-66,1091,161,271,-45
3441,-63,-60,1088,288,112,-10
3442,-60,-69,1090,243,-36,-38
3443,-44,-66,1045,139,-130,-122
3444,-45,-70,1029,42,-165,-208
3445,-54,-48,1014,-25,-108,-284
3446,-44,-53,999,-64,3,-331
3447,-39,-49,1008,-74,89,-331
3448,-28,-44,1013,-15,116,-303
3449,-41,-23,1020,85,116,-256
3450,-34,-14,1027,192,120,-190
3451,-42,-18,1059,253,69,-153
3452,-42,-29,1076,212,-32,-167
3453,-47,-40,1060,120,-130,-208
3454,-40,-44,1024,14,-171,-280
3455,-37,-40,996,-122,-159,-378
3456,-28,-42,977,-290,-95,-458
3457,-16,-43,969,-367,34,-481
3458,-34,-52,958,-404,175,-504
3459,-35,-48,977,-441,351,-503
3460,-24,-54,1006,-419,442,-483
3461,-35,-23,1027,-290,403,-424
3462,-48,-38,1064,-5,239,-301
3463,-53,-81,1061,231,21,-188
3464,-44,-99,1039,294,-165,-221
3465,-54,-95,1027,186,-243,-333
3466,-24,-73,1005,48,-202,-438
3467,-35,-62,1012,-40,-114,-477
3468,-38,-35,1020,-11,-20,-499
3469,-40,-36,1001,26,75,-456
3470,-49,-55,1021,-3,128,-430
3471,-44,-50,1034,-44,150,-456
3472,-31,-49,1060,-83,107,-454
3473,-26,-38,1029,-62,-20,-436
3474,-15,-27,1006,1,-134,-413
3475,-18,-26,1018,28,-184,-352
3476,-11,-45,976,89,-161,-323
3477,-20,-45,976,157,-100,-342
3478,-27,-43,980,182,38,-370
3479,-41,-42,1015,102,183,-409
3480,-43,-31,1030,48,228,-428
3481,-54,-31,1052,63,194,-407
3482,-52,-32,1051,102,91,-383
3483,-45,-40,1045,132,-54,-372
3484,-46,-49,1023,114,-155,-391
3485,-43,-48,1009,67,-179,-426
3486,-37,-32,994,51,-124,-454
3487,-25,-7,984,71,-52,-446
3488,-26,-20,1015,91,26,-413
3489,-19,-21,1014,106,71,-393
3490,-27,-25,1014,77,116,-420
3491,-27,-30,1035,42,142,-407
3492,-35,-20,1021,34,146,-389
3493,-30,-29,1036,48,116,-372
3494,-43,-29,1033,40,62,-376
3495,-39,-25,1025,-25,3,-376
3496,-27,-33,1018,-60,-59,-387
3497,-41,-37,976,-76,-91,-399
3498,-17,-52,969,-31,-69,-438
3499,-30,-50,980,18,19,-473
3500,-29,-36,983,-3,138,-495
3501,-21,-37,1007,-70,232,-497
3502,-20,-29,1030,-81,232,-471
3503,-28,-31,1023,-48,196,-426
3504,-34,-51,1035,-36,146,-389
3505,-36,-69,1014,-54,110,-393
3506,-37,-70,999,-76,89,-465
3507,-30,-73,1001,-113,67,-555
3508,-28,-56,987,-111,81,-606
3509,-35,-60,984,-97,124,-628
3510,-44,-44,967,-70,196,-626
3511,-38,-23,991,-87,282,-592
3512,-41,-25,1035,-56,321,-526
3513,-37,-12,1050,69,280,-479
3514,-59,-19,1059,118,216,-415
3515,-23,-42,1039,16,132,-438
3516,-51,-55,1034,-42,67,-491
3517,-43,-56,1022,-251,50,-567
3518,-43,-43,988,-298,69,-612
3519,-51,-48,971,-257,136,-598
3520,-54,-53,1000,-150,218,-555
3521,-60,-48,1004,-72,286,-510
3522,-69,-43,1038,12,308,-463
3523,-76,-40,1061,92,280,-393
3524,-76,-57,1069,116,194,-338
3525,-72,-60,1080,85,75,-329
3526,-69,-86,1057,-11,-38,-397
3527,-65,-79,1035,-101,-130,-501
3528,-61,-77,1006,-191,-151,-557
3529,-55,-61,963,-189,-97,-616
3530,-51,-59,946,-81,30,-626
3531,-55,-36,966,106,194,-569
3532,-61,-27,1005,296,316,-495
3533,-57,-28,1038,321,349,-440
3534,-61,-5,1075,266,284,-415
3535,-53,4,1100,173,155,-346
3536,-43,-14,1085,98,-34,-303
3537,-45,-36,1069,61,-249,-317
3538,-55,-44,1015,-31,-386,-374
3539,-61,-55,963,-85,-391,-434
3540,-64,-58,925,-81,-245,-504
3541,-49,-44,916,48,3,-567
3542,-52,-19,953,153,234,-590
3543,-54,0,1005,110,353,-563
3544,-34,8,1049,79,345,-520
3545,-52,23,1086,116,216,-473
3546,-49,5,1087,102,36,-422
3547,-58,1,1057,48,-120,-430
3548,-69,-9,1040,-52,-210,-460
3549,-60,-27,1000,-144,-225,-485
3550,-49,-42,960,-236,-218,-512
3551,-55,-37,958,-210,-126,-520
3552,-57,-43,950,-52,17,-469
3553,-54,-24,971,149,187,-374
3554,-70,-21,1033,305,323,-264
3555,-57,-32,1079,382,359,-208
3556,-71,-25,1099,364,273,-217
3557,-81,-31,1112,221,155,-282
3558,-66,-39,1119,-31,32,-383
3559,-83,-31,1075,-253,-122,-493
3560,-79,-38,1012,-365,-151,-536
3561,-60,-41,991,-384,-89,-512
3562,-53,-44,964,-292,50,-465
3563,-50,-45,969,-77,185,-419
3564,-77,-27,996,102,276,-305
3565,-63,-31,1031,288,294,-180
3566,-85,-18,1062,407,228,-77
3567,-89,-44,1082,389,138,-47
3568,-71,-58,1103,292,15,-145
3569,-93,-35,1078,108,-138,-319
3570,-91,-19,1038,-111,-218,-403
3571,-80,-27,1037,-253,-224,-442
3572,-74,-26,1008,-384,-241,-448
3573,-74,-36,984,-335,-227,-461
3574,-72,-28,957,-163,-173,-442
3575,-81,-33,981,22,-118,-378
3576,-57,-31,1002,190,-97,-292
3577,-70,-31,1005,298,-130,-239
3578,-65,-27,1041,368,-120,-243
3579,-68,-19,1057,286,-118,-299
3580,-78,-18,1094,83,-151,-387
3581,-65,-7,1094,-189,-202,-495
3582,-59,14,1058,-382,-249,-542
3583,-61,17,1054,-462,-349,-514
3584,-54,13,1023,-415,-421,-434
3585,-49,1,983,-267,-446,-319
3586,-35,3,972,-23,-382,-217
3587,-27,10,965,276,-280,-129
3588,-38,31,998,454,-196,-28
3589,-28,16,1032,454,-184,33
3590,-26,20,1060,325,-255,1
3591,-37,18,1025,135,-333,-67
3592,-18,10,1006,-27,-368,-153
3593,-11,12,974,-177,-388,-221
3594,-12,17,936,-228,-349,-266
3595,-6,15,913,-158,-218,-284
3596,-1,34,908,-33,-15,-264
3597,-4,53,940,81,212,-174
3598,-9,49,984,171,370,-55
3599,-10,50,1020,239,431,-1
3600,-12,38,1056,171,401,46
3601,-6,8,1071,-40,292,37
3602,-2,-23,1054,-240,136,-24
3603,-11,-41,1025,-310,-1,-106
3604,-25,-47,994,-318,-87,-170
3605,-22,-52,992,-326,-63,-174
3606,-32,-55,980,-296,7,-186
3607,-35,-65,971,-290,114,-196
3608,-41,-51,1006,-279,239,-241
3609,-43,-23,1017,-327,317,-210
3610,-29,-28,1063,-306,314,-153
3611,-31,-45,1054,-165,157,-94
3612,-46,-61,1044,-62,-26,-26
3613,-37,-76,998,-21,-140,-4
3614,-40,-89,986,10,-169,3
3615,-47,-101,955,22,-134,-4
3616,-62,-93,958,73,-15,-32
3617,-81,-93,970,108,191,-83
3618,-67,-73,1017,36,351,-184
3619,-99,-68,1039,-179,400,-333
3620,-52,-27,1083,-326,437,-338
3621,-23,-47,1090,-357,218,-288
3622,-50,-45,1057,-189,-67,-200
3623,-50,-62,1027,-23,-171,-131
3624,-44,-80,989,61,-159,-79
3625,-44,-84,996,22,-102,-133
3626,-55,-77,1001,-62,13,-210
3627,-52,-76,1022,-159,93,-251
3628,-16,-48,1035,-171,116,-245
3629,-69,-45,1057,-95,46,-219
3630,-51,-34,1049,-13,11,-169
3631,-54,-45,1065,26,-116,-141
3632,-53,-38,1045,120,-208,-96
3633,-50,-40,1037,130,-266,-53
3634,-60,-41,1016,75,-268,-32
3635,-55,-44,993,38,-200,-28
3636,-62,-28,988,89,-79,-24
3637,-44,-38,1000,102,23,-4
3638,-25,-47,991,92,28,-32
3639,-28,-19,1006,104,-24,-47
3640,-33,-5,1019,212,-75,-14
3641,-41,-4,1025,298,-134,39
3642,-34,2,1035,272,-175,52
3643,-38,8,1016,178,-216,17
3644,-34,29,1003,49,-216,1
3645,-23,25,1000,12,-183,29
3646,0,-7,996,40,-153,113
3647,7,-24,982,57,-157,158
3648,-5,-24,977,128,-104,124
3649,-2,-14,1006,73,1,91
3650,1,-26,1016,-60,64,74
3651,-32,-30,1039,-142,79,17
3652,-43,-12,1057,-226,50,13
3653,-39,-30,1059,-261,-3,50
3654,-52,-65,1037,-243,-85,66
3655,-49,-75,1022,-329,-143,64
3656,-38,-122,1016,-413,-175,46
3657,-47,-122,988,-343,-165,-4
3658,-21,-119,968,-249,-69,-53
3659,-37,-115,972,-189,28,-110
3660,-41,-107,962,-199,161,-170
3661,-28,-102,998,-292,286,-223
3662,-52,-64,1013,-382,317,-256
3663,-38,-58,1057,-376,292,-170
3664,-50,-57,1083,-197,153,-63
3665,-44,-77,1056,-15,-30,52
3666,-57,-105,1028,69,-177,99
3667,-43,-112,990,85,-190,74
3668,-23,-127,976,36,-77,21
3669,-35,-128,973,-19,52,-85
3670,-44,-109,978,-74,171,-178
3671,-17,-81,1019,-103,222,-215
3672,-49,-54,1042,-87,214,-186
3673,-17,-46,1066,-50,138,-102
3674,-24,-51,1047,18,-20,-34
3675,-45,-46,1039,65,-134,-14
3676,-32,-62,1032,48,-169,11
3677,-29,-76,982,10,-190,23
3678,-13,-95,953,38,-128,21
3679,-25,-101,957,75,5,-28
3680,-30,-91,965,112,157,-73
3681,-37,-58,1008,116,245,-100
3682,-40,-39,1049,128,276,-83
3683,-50,-12,1082,128,245,-36
3684,-31,-17,1093,122,62,35
3685,-38,-42,1059,87,-151,80
3686,-30,-46,995,108,-261,87
3687,-25,-57,968,165,-239,115
3688,-21,-91,970,219,-102,113
3689,-50,-93,982,225,85,50
3690,-53,-71,1015,120,247,-28
3691,-56,-41,1059,-1,317,-92
3692,-58,3,1086,-33,278,-96
3693,-49,-23,1100,-33,114,5
3694,-42,-32,1090,-27,-126,87
3695,-40,-47,1038,-54,-329,93
3696,-43,-68,1000,-68,-423,93
3697,-23,-98,948,-124,-405,85
3698,-39,-101,909,-44,-259,37
3699,-36,-110,932,30,-30,-40
3700,-32,-113,960,-29,175,-133
3701,-35,-98,992,-171,275,-231
3702,-47,-83,1022,-257,286,-297
3703,-43,-84,1039,-300,196,-319
3704,-46,-84,1042,-326,3,-325
3705,-37,-97,978,-322,-222,-329
3706,-30,-108,927,-300,-380,-354
3707,-26,-122,839,-408,-440,-417
3708,-15,-139,772,-495,-382,-524
3709,-6,-164,717,-611,-237,-688
3710,-4,-180,647,-796,-93,-864
3711,-15,-186,568,-1009,11,-1045
3712,11,-200,479,-1238,46,-1219
3713,1,-171,358,-1443,56,-1383
3714,35,-139,251,-1529,77,-1479
3715,60,-130,142,-1302,107,-1510
3716,91,-89,67,-833,314,-1497
3717,125,-18,29,-341,790,-1465
3718,132,16,20,-85,1355,-1419
3719,140,64,43,-148,1921,-1442
3720,117,132,44,-341,2413,-1467
3721,87,171,52,-495,2782,-1479
3722,108,234,66,-646,3110,-1397
3723,161,256,66,-613,3357,-1180
3724,174,270,76,-165,3599,-821
3725,90,364,144,663,3997,-391
3726,13,419,250,1551,4433,240
3727,-124,441,344,2471,4780,841
3728,-231,471,486,2981,5091,1242
3729,-362,513,608,2930,5378,1343
3730,-435,479,698,2303,5593,1304
3731,-439,454,751,1344,5726,1269
3732,-517,461,800,520,5837,1203
3733,-587,459,857,73,5991,1246
3734,-650,530,1032,85,6044,1482
3735,-787,681,1207,993,5718,2070
3736,-942,677,1295,2667,5077,3013
3737,-992,527,1317,3710,4476,3779
3738,-1089,346,1285,3548,4185,3900
3739,-1146,251,1255,2620,4202,3382
3740,-1256,267,1241,1417,4452,2550
3741,-1264,364,1216,188,4851,2093
3742,-1208,386,1254,-427,5118,1982
3743,-1276,446,1328,-413,5151,1951
3744,-1294,490,1409,-396,4999,2066
3745,-1234,475,1513,-433,4618,2406
3746,-1227,452,1573,-349,3972,2855
3747,-1209,369,1594,-316,3222,3164
3748,-1243,332,1549,-337,2511,3277
3749,-1301,275,1458,-476,2019,3216
3750,-1333,254,1370,-783,1864,3050
3751,-1355,236,1374,-1038,1929,2828
3752,-1350,198,1369,-1437,1962,2572
3753,-1260,101,1389,-1878,1843,2369
3754,-1204,71,1435,-2077,1497,2146
3755,-1187,152,1455,-1904,966,2046
3756,-1239,273,1484,-1556,407,2306
3757,-1253,283,1507,-1007,-73,2833
3758,-1286,218,1516,-417,-475,3240
3759,-1303,166,1507,-326,-694,3328
3760,-1267,85,1476,-861,-802,3152
3761,-1226,52,1475,-1509,-921,2820
3762,-1180,9,1450,-2056,-1184,2453
3763,-1199,42,1420,-2368,-1610,2099
3764,-1208,68,1358,-2484,-2061,1898
3765,-1209,71,1299,-2417,-2493,1849
3766,-1203,37,1226,-2173,-2823,1833
3767,-1168,-26,1163,-1859,-3032,1847
3768,-1127,-105,1110,-1699,-3165,1855
3769,-1106,-129,1052,-1665,-3290,1701
3770,-1097,-38,1055,-1788,-3356,1556
3771,-1013,-43,1080,-1867,-3454,1550
3772,-962,-46,1049,-1679,-3636,1492
3773,-915,-45,1032,-1581,-3806,1359
3774,-866,-57,987,-1577,-3913,1251
3775,-835,-30,955,-1574,-3997,1081
3776,-799,-28,919,-1443,-4015,947
3777,-765,-17,891,-1288,-3987,831
3778,-688,-20,872,-1202,-3942,796
3779,-666,-25,869,-1165,-3917,755
3780,-664,46,880,-1146,-3837,685
3781,-610,46,857,-1345,-3806,830
3782,-561,-35,822,-1312,-3890,904
3783,-563,-50,776,-1216,-3866,763
3784,-546,-99,734,-1472,-3731,529
3785,-517,-171,704,-1808,-3536,206
3786,-494,-200,685,-2074,-3372,-262
3787,-449,-241,672,-2216,-3294,-700
3788,-458,-215,633,-2208,-3311,-1151
3789,-451,-142,617,-2253,-3282,-1342
3790,-388,-166,583,-2111,-3259,-1284
3791,-358,-135,556,-1638,-3229,-1151
3792,-308,-147,566,-1234,-3134,-960
3793,-220,-154,586,-894,-2913,-860
3794,-175,-163,619,-665,-2829,-905
3795,-114,-160,626,-648,-2891,-1042
3796,-85,-161,613,-792,-2997,-1206
3797,-55,-100,595,-833,-3085,-1348
3798,-49,-42,564,-761,-3011,-1428
3799,-17,35,560,-714,-2792,-1393
3800,57,79,578,-609,-2552,-1235
3801,128,86,594,-482,-2339,-1090
3802,187,97,556,-488,-2224,-1030
3803,214,145,504,-556,-2099,-938
3804,277,174,464,-507,-1913,-682
3805,301,173,407,-132,-1753,-329
3806,349,169,392,354,-1505,124
3807,329,147,394,674,-1128,417
3808,305,114,439,796,-706,468
3809,293,95,511,579,-186,349
3810,281,77,598,122,263,167
3811,239,48,622,-357,489,-65
3812,208,23,672,-730,548,-309
3813,189,59,715,-900,528,-436
3814,167,138,770,-667,507,-340
3815,157,128,833,-93,421,21
3816,158,61,867,489,224,400
3817,141,13,883,780,163,468
3818,115,2,930,524,220,310
3819,101,-31,957,-11,257,27
3820,76,-9,981,-493,222,-274
3821,72,32,996,-829,253,-506
3822,45,89,1020,-1033,304,-508
3823,48,69,1036,-929,189,-231
3824,72,9,985,-566,-26,91
3825,66,-48,916,-118,-102,296
3826,56,-67,902,235,54,417
3827,15,-56,951,403,359,404
3828,6,-34,1047,339,626,328
3829,-2,-33,1086,120,739,185
3830,-23,-23,1105,-85,712,42
3831,-36,-29,1103,-286,610,17
3832,-26,-53,1096,-259,425,74
3833,-32,-32,1067,-31,232,136
3834,-42,-23,1060,184,91,253
3835,-20,-23,1027,462,-18,374
3836,-10,-35,1006,630,-61,447
3837,-17,-57,1004,635,42,386
3838,-21,-57,1016,493,200,228
3839,-20,-35,1048,239,333,46
3840,-21,6,1075,24,442,-88
3841,-6,21,1095,-165,454,-92
3842,-5,-14,1089,-206,325,-30
3843,-16,-26,1047,-70,144,11
3844,-25,-16,1036,63,69,56
3845,-30,-27,1021,221,71,99
3846,-18,-9,1028,249,109,74
3847,-7,6,1008,167,194,17
3848,22,-5,1011,38,278,-45
3849,-13,23,1018,-58,396,-92
3850,-1,17,1023,-191,485,-40
3851,-19,-16,1065,-189,442,44
3852,-40,-14,1099,-60,257,97
3853,-69,-19,1071,122,28,193
3854,-75,-47,1076,350,-120,275
3855,-96,-64,1062,401,-165,242
3856,-100,-81,1037,264,-138,109
3857,-92,-83,1019,132,-58,-86
3858,-70,-55,1015,-27,-18,-253
3859,-59,-33,977,-226,56,-346
3860,-51,-23,985,-437,200,-329
3861,-49,-22,1028,-329,282,-264
3862,-59,-29,1016,-113,196,-155
3863,-80,-48,1027,91,62,-53
3864,-56,-77,1007,214,-18,-30
3865,-51,-93,1001,212,-75,-98
3866,-45,-75,990,133,-40,-221
3867,-40,-46,990,118,69,-305
3868,-21,-27,1006,143,155,-329
3869,-26,-6,1022,112,216,-309
3870,-24,-8,1053,24,226,-297
3871,-16,18,1061,-64,247,-297
3872,0,1,1059,-113,214,-235
3873,-19,-26,1039,-109,122,-198
3874,-21,-43,1036,-85,25,-208
3875,-29,-53,1005,-38,-75,-249
3876,-29,-55,1001,42,-128,-256
3877,-38,-47,981,98,-91,-282
3878,-31,-46,960,73,34,-303
3879,-37,-54,984,-1,189,-333
3880,-45,-35,990,-103,304,-385
3881,-32,0,1029,-95,360,-428
3882,-46,22,1065,-109,317,-415
3883,-21,23,1091,-277,157,-335
3884,0,-3,1040,-202,-114,-258
3885,-28,-36,992,-38,-345,-170
3886,-30,-57,926,-15,-366,-120
3887,-33,-70,889,48,-194,-165
3888,-34,-76,896,112,48,-239
3889,-41,-56,933,112,327,-348
3890,-23,-42,976,-105,528,-458
3891,-49,-6,1017,-257,609,-545
3892,-56,17,1051,-269,612,-522
