sequence,AccelerometerX,AccelerometerY,AccelerometerZ,GyroscopeX,GyroscopeY,GyroscopeZ
0,279,-36,969,16,-30,-87
1,262,-46,992,3,-47,-89
2,271,-27,1000,-9,-31,-85
3,282,-27,977,-21,-12,-99
4,273,-26,986,-23,-31,-105
5,273,-26,973,-13,-28,-89
6,279,-32,967,-1,-16,-74
7,276,-41,985,18,-2,-79
8,266,-31,977,36,13,-85
9,274,-29,972,36,33,-81
10,279,-31,970,36,35,-81
11,279,-25,982,34,10,-66
12,276,-26,988,24,-20,-54
13,271,-31,996,16,-30,-60
14,260,-25,978,24,-35,-46
15,266,-16,983,34,-22,-34
16,266,-16,973,18,0,-31
17,262,-22,982,40,8,-21
18,277,-27,965,40,19,-1
19,264,-36,977,28,29,-3
20,271,-29,980,12,25,-19
21,268,-27,980,-15,19,-11
22,277,-22,984,-19,31,-17
23,280,-17,992,28,35,-40
24,264,-14,993,100,8,-48
25,279,-17,1011,161,-30,-50
26,256,-24,1008,190,-39,-44
27,249,-34,1014,174,-39,-31
28,253,-52,990,100,-49,18
29,273,-41,984,16,-71,61
30,270,-33,983,-46,-74,67
31,265,-24,963,-23,-14,67
32,262,-31,967,98,54,38
33,273,-5,964,227,131,-27
34,297,-4,968,346,156,-144
35,291,-19,962,342,177,-224
36,339,-29,1057,331,49,-152
37,279,-32,980,108,-121,49
38,266,-28,995,98,-285,48
39,259,-38,960,36,-190,-5
40,254,-46,955,-21,-61,-89
41,260,-55,959,-122,39,-154
42,251,-60,958,-236,125,-206
43,249,-42,955,-283,176,-177
44,246,-9,977,-195,207,-185
45,280,0,988,-38,318,-228
46,313,-9,998,124,328,-230
47,305,-9,996,235,250,-165
48,309,3,993,243,138,-74
49,290,-2,994,178,27,5
50,272,1,980,83,-67,55
51,275,2,960,65,-82,63
52,260,-7,976,87,-82,65
53,271,-27,985,96,-65,24
54,286,-31,968,81,-41,-42
55,259,-34,961,91,-47,-79
56,253,-27,971,98,-26,-101
57,243,-21,975,85,41,-115
58,253,-7,984,26,117,-115
59,273,-12,980,-19,177,-138
60,285,-15,971,-19,179,-126
61,282,-14,984,34,138,-79
62,273,-8,970,55,76,-68
63,274,-16,987,48,4,-60
64,285,-6,967,36,-8,-27
65,268,-2,970,46,-10,10
66,272,-3,980,46,25,18
67,267,-6,990,46,8,10
68,270,-24,1017,36,-22,-23
69,276,-11,984,14,43,-77
70,266,0,986,-1,86,-95
71,275,-16,1000,14,90,-101
72,282,-6,1003,30,68,-101
73,281,-17,1000,44,68,-89
74,272,-27,996,49,62,-72
75,267,-14,994,32,60,-42
76,268,-11,1008,-13,64,-34
77,280,-11,1014,-21,78,-31
78,288,-3,1006,-1,68,-3
79,285,-1,1029,20,62,3
80,290,-25,1035,18,41,-7
81,286,-32,1038,-1,15,-9
82,282,-47,1049,-40,17,-50
83,299,-47,1049,-93,6,-97
84,288,-37,1060,-111,0,-134
85,293,-24,1092,-77,39,-171
86,301,-18,1129,-27,80,-201
87,320,-17,1145,55,136,-263
88,332,17,1178,157,213,-312
89,338,17,1223,249,234,-331
90,363,10,1266,350,217,-324
91,366,-5,1291,411,135,-257
92,368,-12,1331,460,74,-197
93,397,-62,1364,473,-30,-240
94,432,-81,1423,483,-78,-318
95,461,-77,1545,462,-33,-464
96,505,-63,1722,481,15,-728
97,572,-26,1912,493,37,-1019
98,634,72,2048,530,0,-1361
99,665,152,2048,688,-114,-1509
100,672,198,2048,917,-219,-1361
101,665,217,2048,1264,-305,-1077
102,677,176,2048,1628,-682,-714
103,681,113,2048,1831,-1467,-298
104,620,7,2048,1774,-2619,126
105,475,-113,2048,1483,-3750,450
106,381,-213,2048,1087,-4537,647
107,314,-276,2048,633,-4979,772
108,242,-294,1985,155,-5270,741
109,203,-303,1836,-210,-5469,505
110,164,-289,1718,-300,-5696,135
111,104,-274,1581,-72,-5934,-283
112,64,-269,1459,315,-6108,-640
113,24,-260,1349,653,-6203,-941
114,5,-209,1239,854,-6246,-1245
115,-33,-151,1135,784,-6338,-1419
116,-71,-81,971,458,-6494,-1290
117,-109,-3,747,-5,-6653,-1079
118,-147,56,512,-534,-6696,-902
119,-196,56,304,-827,-6397,-849
120,-199,117,114,-763,-5918,-974
121,-159,215,-41,-642,-5315,-1201
122,-114,286,-156,-423,-4729,-1382
123,-89,345,-276,-118,-4188,-1355
124,-60,360,-353,264,-3627,-1165
125,0,371,-361,696,-2992,-894
126,69,381,-393,1190,-2354,-738
127,127,353,-400,1624,-1807,-659
128,168,321,-369,1960,-1405,-570
129,209,285,-360,2139,-1074,-513
130,239,259,-353,2159,-805,-497
131,264,207,-321,2057,-600,-466
132,312,181,-318,1794,-365,-476
133,358,161,-297,1421,-155,-415
134,387,171,-281,1036,-4,-355
135,415,201,-253,700,101,-298
136,467,241,-195,475,191,-269
137,508,298,-139,356,295,-249
138,538,348,-82,393,381,-230
139,577,389,-17,692,392,-240
140,589,425,56,1141,377,-232
141,592,409,139,1678,424,-150
142,624,380,199,2139,539,-48
143,639,331,238,2376,629,57
144,671,257,294,2450,666,161
145,694,192,357,2352,666,253
146,728,184,382,2030,615,247
147,753,191,402,1495,496,53
148,766,251,416,858,396,-226
149,758,334,431,360,371,-388
150,753,434,438,196,431,-449
151,724,485,443,282,508,-515
152,742,536,490,528,646,-515
153,778,611,515,870,756,-503
154,775,632,540,1194,777,-447
155,748,635,529,1378,720,-247
156,721,648,527,1426,677,79
157,718,641,555,1288,701,303
158,727,643,558,1005,781,501
159,696,658,603,667,847,653
160,669,718,599,290,945,751
161,655,777,660,-74,943,809
162,631,871,686,-378,849,844
163,604,1008,652,-626,697,856
164,582,1130,617,-689,504,938
165,532,1239,561,-429,322,1188
166,475,1303,538,67,302,1616
167,420,1274,460,606,345,2280
168,358,1178,434,1124,349,3014
169,286,1051,365,1557,353,3610
170,260,936,272,1755,381,4061
171,256,779,204,1844,539,4532
172,226,659,184,1962,834,4967
173,178,508,193,2184,1308,5202
174,133,334,275,2411,1857,5231
175,120,175,343,2682,2314,5098
176,120,43,420,2882,2623,4758
177,159,-53,496,3046,2916,4313
178,187,-126,553,3159,3138,3944
179,220,-176,605,3120,3265,3749
180,285,-247,666,2966,3267,3716
181,344,-276,680,2710,3142,3657
182,345,-312,702,2352,3010,3549
183,319,-332,717,1934,2838,3405
184,296,-347,742,1651,2787,3133
185,321,-323,695,1591,2922,2876
186,346,-343,693,1659,3049,2700
187,353,-351,722,1784,3127,2544
188,324,-353,801,1913,3250,2413
189,350,-374,866,2143,3402,2270
190,411,-399,896,2364,3504,2071
191,481,-437,950,2497,3453,1782
192,539,-418,937,2421,3273,1493
193,547,-420,934,2126,3072,1335
194,509,-372,984,1757,2922,1258
195,459,-336,1018,1438,2840,1225
196,440,-288,1078,1280,2900,1128
197,442,-249,1116,1356,3023,897
198,460,-244,1148,1649,3049,704
199,500,-269,1127,1928,2937,522
200,564,-292,1033,1958,2580,368
201,613,-262,926,1530,2172,350
202,548,-215,870,815,1998,411
203,448,-187,862,317,2088,479
204,368,-187,909,325,2316,458
205,347,-215,960,721,2486,315
206,321,-335,986,1329,2570,87
207,383,-343,993,1637,2551,-335
208,411,-360,1052,1507,2840,-845
209,465,-354,1100,1163,3023,-1054
210,502,-326,1160,626,3010,-1003
211,499,-303,1212,94,2861,-824
212,451,-340,1203,-150,2517,-605
213,365,-442,1146,-195,2047,-390
214,268,-596,1128,-154,1615,-251
215,328,-665,1070,-165,1285,-443
216,397,-618,1039,-470,1578,-1292
217,345,-601,1075,-673,2181,-2085
218,291,-597,1142,-667,2465,-2333
219,248,-623,1205,-843,2435,-2335
220,231,-736,1244,-761,2396,-2271
221,251,-852,1326,-490,2054,-2384
222,324,-793,1410,-572,1715,-3017
223,313,-681,1483,-988,1814,-3906
224,255,-582,1575,-1488,1795,-4355
225,180,-463,1624,-1898,1595,-4294
226,113,-407,1589,-2017,1193,-3986
227,33,-418,1495,-1681,642,-3699
228,-62,-573,1338,-966,70,-3601
229,-68,-697,1256,-484,-397,-3755
230,-55,-715,1300,-816,-356,-4294
231,-86,-607,1402,-1898,183,-5099
232,-159,-443,1460,-3339,709,-5603
233,-265,-324,1531,-4501,912,-5661
234,-331,-132,1572,-5058,959,-5419
235,-375,-64,1576,-4929,967,-5040
236,-297,-95,1566,-4208,720,-4868
237,-253,-80,1603,-3251,353,-5165
238,-271,21,1668,-1876,301,-6107
239,-353,262,1709,-296,386,-7488
240,-394,583,1716,755,377,-8355
241,-363,914,1631,790,185,-8261
242,-344,1261,1444,-171,-170,-7611
243,-322,1569,1196,-1839,-848,-6390
244,-254,1924,1046,-3743,-1492,-4818
245,-273,2048,1011,-4966,-1471,-3243
246,-285,2048,1090,-4693,-983,-1718
247,-238,1982,1148,-2915,-360,-566
248,-164,1710,1158,-658,-10,53
249,-139,1326,1139,1376,121,251
250,-142,978,1169,2723,-131,235
251,-176,668,1153,3051,-422,130
252,-193,416,1116,2540,-381,-56
253,-132,288,1063,1676,-196,-238
254,-109,281,1067,739,29,-392
255,-99,284,1063,-34,140,-460
256,-52,286,1086,-456,189,-474
257,-7,299,1094,-626,115,-513
258,17,319,1093,-693,-100,-576
259,2,325,1115,-800,-403,-462
260,4,272,1089,-603,-696,-226
261,17,212,1059,-17,-739,-126
262,51,161,999,628,-612,-185
263,73,124,984,1087,-510,-378
264,91,126,968,1301,-344,-523
265,120,129,988,1257,-172,-515
266,135,106,1001,1110,-33,-404
267,130,119,1021,844,-55,-226
268,129,116,992,405,-198,-27
269,125,135,955,-81,-373,149
270,114,169,903,-523,-461,299
271,99,192,860,-837,-444,407
272,96,207,835,-992,-323,579
273,105,179,849,-868,-119,760
274,119,133,867,-400,62,762
275,144,79,891,278,174,549
276,147,36,945,862,269,251
277,140,15,1003,1212,402,10
278,147,-42,1034,1239,410,-136
279,175,-51,1065,1055,418,-87
280,170,-80,1107,682,277,-34
281,178,-42,1112,296,103,-33
282,170,4,1085,-187,-82,-21
283,147,26,1046,-554,-201,96
284,135,56,1048,-658,-203,157
285,134,77,1018,-562,-164,124
286,142,83,1022,-370,-114,85
287,138,88,1025,-171,-63,18
288,150,76,1044,1,-51,-38
289,162,49,1048,190,-39,-68
290,151,40,1069,307,-2,-136
291,146,58,1064,321,10,-187
292,146,67,1053,223,-61,-177
293,129,59,1055,28,-170,-109
294,132,63,1022,-158,-188,10
295,130,60,1001,-322,-217,53
296,130,57,973,-400,-188,48
297,140,68,980,-409,-129,-1
298,131,79,973,-327,-69,-87
299,132,95,984,-216,-47,-132
300,141,108,997,-113,-45,-154
301,153,113,982,-15,-57,-159
302,166,114,990,40,-92,-138
303,158,111,1005,48,-88,-124
304,152,96,1024,65,-61,-76
305,157,84,1024,40,-49,-19
306,169,70,1010,-29,-57,12
307,161,44,1011,-91,-57,32
308,152,41,987,-173,-41,32
309,143,2,982,-247,-51,7
310,148,-6,973,-347,-61,-34
311,144,-11,1007,-415,-39,-109
312,151,24,1040,-347,27,-286
313,169,69,1058,-220,47,-404
314,186,107,1064,-77,-14,-351
315,185,120,1041,57,-115,-228
316,167,99,1018,112,-254,-89
317,129,103,977,100,-281,5
318,113,88,977,57,-194,22
319,151,91,962,32,-33,5
320,149,90,977,7,52,-11
321,149,85,1001,14,80,-1
322,146,84,994,18,25,10
323,143,81,995,-23,-30,22
324,136,53,1013,-34,-45,10
325,161,64,1009,12,-53,-29
326,161,79,1054,161,-71,-77
327,154,73,1053,380,-115,-126
328,160,83,1053,534,-137,-230
329,164,83,1031,479,-170,-318
330,159,94,1002,243,-190,-253
331,147,116,991,-66,-178,-70
332,132,95,973,-312,-156,85
333,133,111,947,-429,-90,163
334,129,109,927,-396,-14,145
335,130,120,933,-253,47,81
336,147,119,969,-50,68,40
337,160,115,971,192,29,14
338,141,95,981,383,-14,-5
339,143,68,980,426,-6,10
340,139,33,994,372,62,20
341,141,17,1021,247,99,32
342,155,27,1030,44,107,55
343,166,50,1021,-201,84,46
344,176,72,1023,-386,4,69
345,145,93,1000,-464,-73,151
346,134,80,995,-400,-88,208
347,141,66,966,-220,-51,178
348,165,60,984,-9,-4,110
349,155,55,996,174,41,32
350,161,48,988,221,49,5
351,163,33,1001,124,39,-5
352,170,36,1024,-70,0,32
353,164,36,1015,-267,-24,75
354,159,31,1017,-388,-12,96
355,168,49,1027,-408,25,69
356,182,71,1016,-343,51,-7
357,176,97,1028,-226,51,-77
358,187,115,1051,-64,47,-101
359,191,116,1029,61,13,-105
360,170,105,1028,204,-45,-52
361,152,95,1034,290,-86,32
362,158,64,1004,305,-74,77
363,151,28,999,223,-61,106
364,141,5,1004,79,-26,145
365,142,8,994,-68,21,106
366,153,16,986,-216,31,-1
367,143,50,987,-331,27,-95
368,149,84,991,-359,37,-138
369,153,106,1003,-275,41,-158
370,160,130,1019,-83,35,-177
371,160,131,1008,110,29,-159
372,164,109,1012,233,2,-118
373,156,82,980,272,-30,-36
374,161,77,980,190,-20,26
375,153,69,981,22,-20,71
376,160,56,988,-109,11,124
377,148,56,1014,-148,49,118
378,145,58,1001,-103,60,57
379,150,63,1003,-27,33,18
380,151,42,1005,24,-28,-1
381,138,51,1001,8,-33,-11
382,154,55,1000,-34,-33,-5
383,161,48,1000,-66,-51,-1
384,161,77,1002,-70,-74,-31
385,150,83,993,-46,-80,-27
386,157,84,998,-5,-41,1
387,142,98,981,32,13,-3
388,158,99,990,67,33,-29
389,151,110,1006,67,54,-11
390,146,83,1024,55,80,49
391,158,69,1016,36,86,110
392,170,49,1039,-54,70,135
393,177,62,1037,-154,25,135
394,150,55,1038,-148,-53,114
395,150,62,1015,-72,-108,92
396,152,60,1017,18,-104,55
397,158,48,1005,40,-80,-9
398,146,51,987,8,-71,-3
399,152,59,992,-50,-47,3
400,156,58,990,-77,-6,3
401,159,59,1020,-31,25,18
402,158,68,1014,69,27,7
403,161,66,1017,135,21,-50
404,170,67,1015,94,-14,-36
405,164,75,1004,-42,-98,61
406,148,56,989,-202,-133,157
407,153,39,966,-300,-108,171
408,144,31,956,-357,-24,128
409,171,39,978,-339,58,57
410,177,46,1019,-281,76,10
411,189,83,1042,-173,10,-29
412,169,93,1053,-19,-112,-33
413,179,73,1077,153,-176,-11
414,180,54,1044,255,-172,-5
415,179,32,1035,239,-137,-17
416,164,40,1038,161,-108,-48
417,171,48,1025,42,-112,-17
418,151,25,996,-85,-147,38
419,153,11,966,-159,-129,71
420,158,-1,955,-202,-90,59
421,152,6,968,-220,-28,3
422,152,31,960,-187,84,-89
423,155,40,977,-111,176,-171
424,169,68,1005,-29,193,-199
425,166,85,1018,81,140,-144
426,183,86,1027,186,17,-66
427,183,77,1015,198,-73,-11
428,167,64,1029,198,-96,12
429,151,64,1027,196,-88,22
430,157,61,1018,194,-65,28
431,157,31,1033,176,-45,57
432,151,13,1011,94,-45,26
433,161,17,998,-33,-49,-36
434,159,36,988,-191,-41,-52
435,157,51,983,-281,-10,-54
436,163,57,998,-249,11,-76
437,176,73,1025,-163,0,-115
438,169,81,1030,-60,-51,-142
439,169,85,1053,51,-76,-113
440,181,91,1059,135,-100,-68
441,192,82,1041,163,-137,-27
442,166,70,1034,132,-192,22
443,164,65,1010,36,-205,53
444,162,45,979,-29,-192,67
445,161,49,959,-50,-164,75
446,160,56,971,-68,-129,28
447,161,55,958,-50,-59,-33
448,154,64,978,18,15,-56
449,158,70,988,96,74,-81
450,164,52,1005,161,117,-81
451,175,63,1010,171,131,-85
452,173,59,1033,161,125,-83
453,186,69,1047,132,78,-48
454,191,81,1036,67,8,-21
455,186,75,1031,-46,-74,20
456,159,65,1012,-105,-108,71
457,164,79,1030,-74,-80,77
458,176,64,1008,46,-35,14
459,176,70,1015,202,6,-50
460,179,84,1029,342,43,-87
461,197,67,1057,467,94,-122
462,217,80,1071,569,119,-171
463,222,63,1096,678,179,-218
464,248,65,1150,768,230,-257
465,260,85,1211,792,306,-345
466,277,118,1326,774,439,-409
467,305,161,1441,751,636,-468
468,346,188,1609,735,789,-452
469,388,171,1761,821,861,-335
470,412,138,1909,924,720,-197
471,458,28,2048,1016,414,-21
472,452,-19,2048,1151,88,7
473,466,-60,2048,1233,-479,-105
474,453,-56,2048,1200,-1129,-279
475,473,-23,2048,1042,-1698,-552
476,458,20,2048,714,-2260,-697
477,394,83,2048,391,-2688,-646
478,334,164,2048,204,-2965,-540
479,333,221,2048,223,-3082,-529
480,328,276,2048,534,-3117,-613
481,309,319,2048,966,-3237,-638
482,269,307,2048,1301,-3489,-572
483,233,287,2048,1534,-3998,-347
484,183,239,2048,1499,-4627,-58
485,109,137,1971,1305,-5258,188
486,62,136,1839,985,-5635,296
487,10,123,1697,548,-5949,290
488,-43,123,1539,251,-6227,372
489,-92,145,1413,51,-6469,401
490,-133,164,1254,-85,-6688,303
491,-160,216,1110,-163,-6905,178
492,-183,272,935,-128,-7024,34
493,-205,290,796,94,-7129,-62
494,-247,344,636,409,-7115,-111
495,-238,389,450,594,-7104,-136
496,-248,382,270,555,-7092,77
497,-267,313,76,567,-6992,471
498,-296,257,-125,559,-6680,753
499,-297,169,-347,419,-6137,948
500,-278,85,-499,268,-5276,1059
501,-254,5,-644,294,-4170,1008
502,-201,2,-799,448,-2985,784
503,-126,18,-808,671,-2063,479
504,9,36,-837,905,-1385,151
505,89,72,-804,1233,-963,-70
506,158,83,-763,1604,-703,-218
507,229,70,-681,1872,-496,-345
508,266,26,-552,2087,-133,-376
509,319,10,-447,2188,285,-421
510,426,40,-309,2063,517,-505
511,534,65,-168,1776,650,-558
512,602,69,-87,1452,703,-560
513,644,137,-31,1091,539,-527
514,635,203,11,725,281,-423
515,626,233,74,567,220,-286
516,651,257,135,674,299,-206
517,700,277,194,880,414,-243
518,726,250,250,1065,461,-316
519,742,239,336,1098,420,-329
520,759,260,373,942,345,-327
521,775,345,398,624,332,-376
522,756,447,406,180,316,-466
523,760,560,446,-201,390,-445
524,765,638,511,-294,662,-353
525,779,709,579,-87,1019,-249
526,809,751,664,292,1295,-199
527,834,767,727,792,1484,-117
528,856,774,797,1301,1463,-54
529,858,787,804,1561,1164,32
530,808,827,798,1483,703,143
531,752,875,729,1157,207,333
532,696,973,641,665,-219,522
533,609,1051,563,216,-502,801
534,567,1067,518,-23,-545,1245
535,535,1060,458,12,-324,1729
536,522,1016,440,350,45,2079
537,510,926,464,903,459,2280
538,479,861,494,1507,793,2329
539,473,835,551,1883,978,2260
540,457,815,591,1917,1095,2284
541,485,811,602,1710,1123,2475
542,498,827,571,1378,935,2749
543,483,828,528,942,619,3116
544,401,828,485,553,367,3518
545,351,819,471,352,256,3854
546,309,814,408,346,207,4178
547,248,781,371,592,164,4493
548,186,719,331,1087,113,4758
549,141,600,265,1753,152,4977
550,141,408,189,2464,271,5089
551,168,295,127,2907,529,4969
552,163,216,92,2950,1035,4657
553,97,159,114,2858,1674,4399
554,41,155,147,2690,2217,4389
555,5,103,211,2399,2599,4583
556,8,62,235,2143,2937,4919
557,-24,-14,269,1989,3123,5214
558,-46,-155,315,2089,3215,5522
559,39,-378,342,2385,3246,5674
560,104,-559,369,2667,3291,5518
561,107,-702,356,2747,3197,5157
562,70,-861,405,2653,3088,4700
563,30,-968,453,2591,3164,4098
564,10,-1000,500,2579,3469,3323
565,19,-1032,558,2653,3984,2587
566,56,-1024,649,2714,4494,2024
567,142,-1023,687,2651,4867,1598
568,290,-1017,704,2249,5076,1329
569,329,-1011,798,1587,5129,1225
570,293,-965,851,1092,4890,1231
571,298,-934,921,850,4572,1174
572,288,-953,996,1038,4449,950
573,282,-1003,1050,1555,4511,567
574,283,-1109,1133,1948,4459,124
575,255,-1217,1159,2040,4273,-146
576,272,-1250,1150,1727,4002,-368
577,308,-1273,1185,1014,3789,-798
578,313,-1234,1228,292,3900,-1345
579,305,-1160,1299,-163,4084,-1829
580,298,-1050,1357,-513,4164,-2189
581,226,-983,1473,-658,4133,-2390
582,237,-956,1536,-595,3775,-2540
583,287,-904,1609,-601,3572,-2747
584,304,-906,1704,-324,3605,-3015
585,280,-945,1775,124,3482,-3357
586,251,-951,1830,364,3111,-3667
587,199,-960,1839,442,2652,-4017
588,142,-930,1871,112,2152,-4456
589,77,-842,1864,-497,1847,-4886
590,-21,-803,1913,-1005,1621,-5054
591,-28,-713,1872,-1351,1388,-5089
592,-41,-630,1813,-1581,1136,-5202
593,-44,-566,1799,-1618,787,-5425
594,-83,-421,1794,-1593,564,-5783
595,-190,-308,1802,-1374,576,-6126
596,-266,-272,1800,-890,515,-6259
597,-329,-229,1756,-542,289,-6320
598,-385,-225,1669,-427,-41,-6324
599,-356,-155,1627,-579,-311,-6265
600,-290,12,1649,-1066,-315,-6357
601,-377,194,1738,-1365,103,-6595
602,-395,380,1834,-1214,566,-6800
603,-320,551,1887,-853,834,-6966
604,-290,677,1854,-486,636,-6958
605,-282,737,1782,-89,-158,-6593
606,-283,757,1628,186,-1319,-5988
607,-330,764,1463,169,-2239,-5505
608,-364,801,1359,-15,-2701,-5238
609,-337,913,1255,-314,-2690,-5074
610,-315,1029,1135,-759,-2356,-4783
611,-277,1103,1064,-1156,-1990,-4265
612,-249,1222,992,-1544,-1709,-3685
613,-223,1390,875,-2109,-1559,-3197
614,-211,1462,764,-2671,-1436,-2576
615,-171,1495,687,-2925,-1270,-1841
616,-148,1520,623,-2792,-992,-1197
617,-152,1460,637,-2183,-596,-704
618,-135,1334,634,-1056,-155,-402
619,-129,1159,643,317,234,-251
620,-115,957,674,1579,578,-226
621,-80,777,755,2462,910,-404
622,-49,660,822,2700,1189,-704
623,-16,578,874,2315,1263,-786
624,-8,520,951,1532,1156,-472
625,-19,489,989,618,910,63
626,21,459,987,-167,605,620
627,44,426,943,-726,304,967
628,36,381,935,-976,150,1171
629,46,345,979,-820,203,1290
630,94,234,1011,-269,201,1227
631,109,152,1028,479,228,1079
632,153,50,1035,1116,138,772
633,160,9,1034,1481,11,411
634,147,-31,1056,1489,-18,124
635,153,-37,1058,1290,80,83
636,201,-8,1059,876,144,169
637,215,0,1054,333,78,389
638,213,7,1067,-130,-16,674
639,205,7,1042,-363,-16,813
640,217,18,1048,-433,4,801
641,223,26,1028,-429,41,760
642,232,11,1040,-290,47,743
643,223,-27,1012,-52,-35,694
644,222,-69,1006,126,-102,624
645,228,-96,980,233,-108,526
646,201,-100,967,298,-73,380
647,202,-95,990,266,31,182
648,206,-44,984,149,123,10
649,197,-15,991,-17,162,-7
650,201,14,992,-193,133,106
651,203,41,990,-279,111,174
652,208,41,985,-234,54,208
653,211,37,998,-122,-12,233
654,194,25,1010,-9,-31,196
655,178,36,1044,96,-8,114
656,188,26,1049,167,37,16
657,194,35,1051,174,56,-66
658,198,57,1032,65,8,-89
659,186,62,993,-163,-129,-70
660,165,88,943,-402,-242,28
661,149,104,918,-495,-235,104
662,136,112,914,-417,-92,77
663,140,112,948,-126,82,-25
664,143,114,987,204,199,-158
665,171,128,1013,428,256,-249
666,183,105,1032,514,234,-251
667,180,101,1038,442,170,-181
668,188,91,1038,264,109,-79
669,199,114,1053,8,47,28
670,188,118,1039,-214,-43,130
671,175,113,1040,-300,-108,200
672,168,109,1028,-300,-139,225
673,147,98,993,-253,-162,182
674,166,83,958,-243,-145,102
675,148,70,923,-234,-65,55
676,143,72,936,-150,47,49
677,161,77,949,-33,193,-11
678,175,71,1004,65,314,-109
679,187,92,1026,85,359,-165
680,189,111,1055,48,340,-148
681,193,131,1096,110,306,-97
682,205,130,1081,182,158,-36
683,201,113,1089,165,-78,71
684,191,97,1045,55,-280,157
685,154,61,983,-142,-373,171
686,138,59,967,-242,-377,196
687,123,59,940,-277,-305,196
688,130,49,945,-243,-145,100
689,151,30,953,-132,64,-40
690,163,55,975,-34,211,-161
691,178,75,1002,8,275,-224
692,185,114,1022,22,283,-247
693,187,141,1045,7,232,-218
694,199,157,1049,-27,113,-103
695,195,151,1034,-31,-53,55
696,174,132,1012,-9,-176,141
697,167,112,979,22,-194,139
698,159,110,969,30,-147,135
699,164,94,962,22,-69,130
700,150,100,975,7,13,67
701,154,106,975,63,62,-3
702,169,111,971,132,82,-42
703,159,120,981,219,92,-50
704,166,134,988,333,97,-48
705,163,129,1000,403,101,-42
706,164,138,1002,460,99,3
707,156,111,1006,536,97,32
708,155,99,1019,649,66,26
709,170,91,999,667,41,1
710,166,88,992,555,-6,-15
711,172,76,1003,350,-63,14
712,161,85,965,102,-55,75
713,139,105,977,-165,-24,128
714,154,108,982,-402,37,196
715,170,121,982,-517,90,233
716,161,127,1002,-493,68,225
717,169,127,1008,-347,31,188
718,161,110,1000,-54,19,87
719,161,97,1005,192,19,-5
720,152,88,1010,313,37,-68
721,156,94,1003,260,21,-85
722,168,92,994,71,13,-11
723,149,89,996,-118,29,71
724,166,108,995,-204,62,87
725,169,119,1007,-181,76,85
726,171,136,1005,-87,94,71
727,155,111,1004,14,133,49
728,176,104,1005,118,164,61
729,174,85,1036,100,140,53
730,175,69,1029,42,94,55
731,172,67,1012,-7,62,48
732,184,81,1015,-34,60,10
733,176,104,1027,-81,72,-34
734,178,94,1043,-60,64,-60
735,183,108,1046,16,33,-68
736,185,106,1032,139,-31,-87
737,184,117,1039,255,-114,-52
738,171,123,1012,331,-166,-50
739,160,100,983,366,-145,-50
740,163,90,989,354,-76,-33
741,163,70,1003,260,-14,-9
742,175,80,1004,106,6,18
743,167,85,1000,-87,4,28
744,173,88,1002,-269,-24,48
745,158,100,994,-367,-53,79
746,161,120,995,-314,-51,75
747,157,118,986,-193,-28,34
748,172,120,1014,-48,-18,7
749,178,124,1005,126,-12,-44
750,176,119,1023,258,-35,-93
751,177,108,1021,284,-47,-113
752,166,110,1004,169,-47,-77
753,177,104,988,-7,-76,32
754,162,105,970,-181,-119,141
755,149,93,955,-267,-125,161
756,143,100,943,-240,-67,114
757,146,94,980,-117,43,32
758,167,96,996,14,123,-64
759,174,103,1016,63,138,-101
760,174,109,1037,59,86,-97
761,173,106,1035,32,21,-64
762,180,118,1017,-25,-49,-29
763,171,121,992,-79,-94,10
764,170,120,990,-87,-131,32
765,163,116,991,-33,-141,32
766,154,112,963,46,-115,3
767,140,119,969,137,-74,-34
768,154,113,986,225,-41,-74
769,158,108,980,276,-24,-103
770,178,92,995,237,-59,-113
771,177,84,1000,208,-121,-120
772,176,94,990,118,-170,-103
773,166,99,998,38,-151,-101
774,172,119,983,-1,-104,-120
775,171,145,999,-13,-63,-93
776,162,152,987,-9,-28,-34
777,171,153,991,-38,11,34
778,160,145,1004,-52,27,120
779,165,126,981,-44,10,178
780,158,94,995,-42,35,163
781,165,95,999,-3,107,106
782,173,97,1005,16,146,48
783,174,102,1024,40,138,-33
784,177,107,1029,61,84,-76
785,170,112,1038,46,13,-62
786,177,102,1036,-5,-24,-29
787,195,126,1041,-23,-28,-17
788,192,134,1025,-60,-49,-19
789,191,155,1026,-66,-74,-1
790,176,149,1007,-40,-108,53
791,153,140,1003,-5,-143,102
792,149,120,977,22,-112,126
793,150,93,953,42,-61,104
794,142,78,959,51,-8,81
795,149,82,972,42,68,48
796,165,73,977,32,146,-27
797,184,93,1030,49,168,-99
798,194,124,1030,57,95,-152
799,191,129,1032,48,6,-150
800,184,149,1035,34,-74,-83
801,168,155,981,-1,-119,3
802,163,132,985,-44,-145,108
803,158,114,942,-56,-115,161
804,149,106,944,-25,-45,124
805,155,103,937,20,33,69
806,158,111,960,42,111,32
807,169,123,990,3,172,-3
808,167,120,993,-76,189,10
809,167,134,1011,-109,154,49
810,174,136,1009,-70,113,65
811,176,120,1009,26,62,61
812,172,109,1017,132,27,40
813,166,113,1013,184,37,-1
814,162,108,1028,186,41,-3
815,168,93,998,174,39,7
816,168,85,1005,83,27,1
817,154,85,989,-33,43,7
818,177,121,957,-132,121,81
819,177,119,975,-230,90,61
820,178,139,993,-204,56,79
821,175,150,999,-91,68,61
822,182,140,1004,55,90,36
823,164,133,1014,165,82,16
824,162,111,1031,206,64,14
825,160,110,1021,141,49,32
826,159,102,1011,22,29,75
827,158,86,993,-103,10,118
828,159,102,992,-187,19,122
829,157,102,1000,-195,25,79
830,150,101,1005,-117,15,53
831,165,106,1001,1,47,-1
832,173,109,1005,79,52,-56
833,174,112,1019,96,74,-15
834,187,111,1007,51,64,-15
835,182,105,1003,-13,6,-1
836,166,117,1008,-68,0,42
837,167,104,993,-81,4,69
838,179,110,986,-50,10,55
839,165,101,1014,-5,31,38
840,161,112,1001,18,62,14
841,166,107,1031,40,95,-7
842,170,93,1033,46,107,-5
843,168,100,1047,51,84,-1
844,172,95,1050,67,45,-33
845,183,116,1039,77,23,-83
846,193,129,1028,79,-6,-83
847,192,129,1025,51,-26,-29
848,197,127,1043,51,8,18
849,196,155,1077,143,140,16
850,203,179,1168,342,332,-144
851,208,205,1276,600,556,-240
852,239,217,1411,823,806,-259
853,300,197,1574,967,1011,-324
854,365,212,1758,950,1027,-390
855,425,251,1920,768,810,-363
856,449,247,2048,553,486,-273
857,467,274,2048,467,164,-146
858,439,298,2048,516,-221,-17
859,431,287,2048,741,-547,22
860,409,276,2048,1030,-893,32
861,382,252,2048,1182,-1309,106
862,350,218,2048,1210,-1781,208
863,307,193,2048,1133,-2293,282
864,254,166,2048,956,-2918,424
865,237,141,2048,723,-3649,555
866,178,130,2048,561,-4387,510
867,117,154,2048,508,-5057,397
868,43,167,2048,573,-5633,337
869,-26,168,2048,630,-6133,315
870,-95,179,1934,573,-6643,350
871,-152,213,1731,350,-7135,372
872,-223,223,1524,26,-7555,364
873,-278,255,1285,-318,-7799,442
874,-296,315,1047,-642,-7854,446
875,-343,353,831,-820,-7676,415
876,-394,364,607,-771,-7397,553
877,-404,348,384,-542,-7006,727
878,-393,270,180,-257,-6574,862
879,-381,168,1,100,-6061,942
880,-352,123,-175,458,-5500,798
881,-323,46,-321,774,-4873,501
882,-295,-12,-453,1114,-4172,204
883,-254,-39,-583,1403,-3420,-144
884,-151,-38,-722,1481,-2569,-411
885,-62,-57,-785,1301,-1891,-515
886,30,-27,-803,1003,-1500,-433
887,117,-9,-747,817,-1301,-331
888,163,32,-677,872,-1231,-253
889,215,75,-640,1108,-1121,-220
890,279,113,-578,1432,-998,-228
891,345,150,-507,1745,-750,-273
892,393,151,-404,2067,-358,-288
893,465,141,-258,2350,6,-308
894,550,132,-161,2440,277,-345
895,594,130,-56,2286,445,-390
896,608,149,53,1919,443,-421
897,603,210,108,1393,363,-347
898,623,295,152,825,248,-261
899,650,397,169,335,105,-148
900,672,528,257,40,-26,-95
901,697,716,311,30,-125,-97
902,714,880,394,233,-33,-85
903,707,1005,470,727,285,-23
904,702,1053,526,1344,627,108
905,717,1088,553,1755,765,247
906,706,1128,539,1749,646,397
907,638,1190,504,1342,420,598
908,511,1309,424,665,199,942
909,451,1423,320,-31,-20,1522
910,487,1478,240,-521,-8,2362
911,485,1451,205,-579,271,3120
912,391,1376,203,-150,545,3610
913,300,1286,219,565,740,3848
914,265,1185,200,1243,994,3962
915,202,1053,181,1901,1269,4126
916,112,900,194,2434,1404,4272
917,41,728,252,2842,1543,4428
918,55,561,262,3130,1709,4538
919,107,411,284,3231,1988,4591
920,127,271,315,3120,2256,4591
921,83,196,355,2805,2404,4524
922,69,118,399,2383,2513,4524
923,78,44,407,2014,2633,4544
924,85,-24,443,1801,2785,4561
925,91,-119,477,1760,2967,4604
926,111,-186,504,1782,3066,4628
927,163,-268,520,1764,3080,4577
928,178,-334,545,1698,3027,4483
929,152,-406,572,1565,2912,4329
930,151,-413,564,1493,2955,4116
931,136,-433,578,1434,3006,3841
932,110,-441,585,1434,3051,3618
933,129,-494,552,1536,3066,3497
934,167,-571,513,1788,3150,3403
935,144,-655,484,2040,3269,3251
936,74,-758,513,2278,3386,3073
937,31,-845,573,2548,3476,2758
938,34,-929,610,2719,3623,2251
939,57,-995,680,2801,3924,1655
940,145,-1045,733,2708,4197,1139
941,228,-1069,785,2309,4390,817
942,232,-1057,870,1680,4564,561
943,178,-1017,957,1106,4717,290
944,134,-961,1051,807,4775,-9
945,153,-949,1139,874,4760,-298
946,213,-1009,1227,1206,4537,-681
947,256,-1027,1255,1364,4320,-1001
948,284,-1047,1385,1053,3982,-1154
949,250,-1074,1474,716,3765,-1259
950,214,-1124,1545,442,3631,-1552
951,188,-1153,1616,303,3513,-2009
952,193,-1137,1616,288,3394,-2552
953,221,-1068,1602,91,3230,-3091
954,189,-928,1675,-417,3226,-3665
955,133,-806,1724,-993,3320,-4005
956,110,-699,1804,-1513,3285,-4118
957,94,-604,1902,-1771,3179,-4218
958,93,-576,1938,-1730,2709,-4195
959,117,-520,1960,-1607,1984,-4195
960,61,-453,1985,-1283,1601,-4388
961,-17,-462,2002,-701,1396,-4611
962,-24,-439,1996,-222,1099,-4851
963,-75,-408,1938,32,851,-5234
964,-146,-390,1904,174,513,-5574
965,-238,-333,1825,38,62,-5812
966,-300,-307,1752,-441,-531,-5894
967,-292,-181,1664,-1087,-965,-5984
968,-325,-3,1676,-1615,-742,-6320
969,-367,146,1735,-1736,-203,-6628
970,-372,293,1716,-1486,193,-6626
971,-414,367,1655,-1156,248,-6411
972,-440,352,1578,-740,-114,-6007
973,-387,312,1497,-472,-698,-5669
974,-386,365,1421,-544,-893,-5742
975,-404,456,1372,-710,-862,-5908
976,-374,587,1335,-960,-899,-5794
977,-332,757,1301,-1060,-803,-5622
978,-341,881,1285,-855,-688,-5589
979,-305,1000,1242,-376,-584,-5441
980,-286,1162,1239,-66,-543,-5376
981,-253,1343,1168,-195,-512,-5183
982,-210,1487,1112,-659,-590,-4583
983,-155,1556,1040,-1312,-842,-3394
984,-131,1514,952,-1880,-1248,-1837
985,-154,1423,908,-2005,-1549,-589
986,-181,1254,863,-1624,-1555,61
987,-191,1065,806,-827,-1211,333
988,-197,879,773,7,-731,397
989,-182,675,786,503,-346,325
990,-162,493,795,616,-31,247
991,-152,382,810,399,295,169
992,-148,292,832,75,605,108
993,-140,226,909,-175,865,-3
994,-117,201,1007,-222,1105,-222
995,-32,247,1053,-117,1176,-622
996,70,343,1053,-95,855,-1013
997,96,402,1079,-212,308,-1132
998,72,470,1038,-443,-199,-734
999,80,473,993,-572,-553,-105
1000,54,426,955,-421,-688,372
1001,39,360,943,-21,-727,534
1002,63,286,905,503,-629,501
1003,55,204,891,983,-416,346
1004,49,155,875,1182,-215,208
1005,64,102,895,1067,-61,200
1006,60,86,920,782,105,286
1007,73,64,944,548,230,346
1008,108,65,1028,471,224,329
1009,138,40,1064,485,131,231
1010,136,47,1077,497,10,151
1011,124,65,1106,477,-74,126
1012,123,74,1108,452,-125,108
1013,144,100,1080,264,-119,106
1014,147,110,1043,-77,-145,243
1015,137,102,1000,-411,-201,514
1016,126,65,969,-601,-196,731
1017,116,29,931,-654,-151,792
1018,116,-14,912,-663,-51,760
1019,121,-16,959,-634,125,637
1020,137,1,973,-408,289,450
1021,136,24,1015,-34,412,243
1022,128,29,1049,374,508,75
1023,130,34,1039,704,535,-19
1024,159,20,1041,792,504,-54
1025,172,27,1060,694,406,-44
1026,172,40,1074,475,203,12
1027,136,44,1064,198,27,110
1028,103,43,1066,7,-45,174
1029,102,29,1060,-81,-65,204
1030,105,34,1044,-113,-53,182
1031,105,50,1024,-128,-55,167
1032,102,34,994,-118,-67,157
1033,100,35,991,-87,-80,114
1034,102,25,972,-31,-73,79
1035,96,12,955,38,-74,24
1036,102,14,966,71,-104,-77
1037,105,37,958,67,-96,-159
1038,104,53,970,22,-47,-224
1039,107,97,969,-77,11,-238
1040,111,113,979,-177,52,-152
1041,107,111,1001,-257,52,-40
1042,108,88,984,-238,39,14
1043,109,88,964,-161,-14,18
1044,101,63,943,-99,-55,-21
1045,106,61,953,-56,-20,-91
1046,108,72,975,3,74,-163
1047,112,88,1002,67,187,-234
1048,111,108,1030,133,250,-283
1049,129,108,1057,147,228,-257
1050,123,97,1053,46,107,-156
1051,123,113,1059,-101,-31,-52
1052,123,121,1036,-261,-145,10
1053,96,137,1013,-329,-201,49
1054,104,138,1032,-253,-186,75
1055,85,106,1004,-91,-131,55
1056,77,75,1014,87,-61,24
1057,88,59,1005,165,8,-23
1058,85,43,1007,100,72,-81
1059,88,59,1018,-95,125,-101
1060,95,75,1030,-337,164,-56
1061,111,101,1056,-495,140,-3
1062,130,126,1045,-521,90,26
1063,119,140,1052,-417,4,32
1064,127,154,1034,-265,-90,48
1065,112,146,1025,-138,-110,67
1066,100,128,1001,-13,-96,75
1067,110,117,995,67,-76,61
1068,117,116,1005,34,-55,36
1069,114,89,1010,-64,-20,53
1070,125,86,1038,-204,-35,92
1071,124,63,1039,-392,-90,161
1072,108,59,1034,-521,-174,247
1073,127,59,1001,-552,-252,272
1074,95,86,1009,-476,-240,208
1075,90,84,1007,-218,-184,174
1076,99,75,993,132,-96,126
1077,93,60,987,352,8,67
1078,109,48,994,460,31,-9
1079,99,48,984,417,74,-54
1080,110,68,996,274,115,-60
1081,122,74,1006,112,117,-40
1082,121,103,1015,-19,52,5
1083,113,119,1024,-111,-37,46
1084,115,128,989,-120,-88,96
1085,98,120,989,-60,-57,106
1086,100,90,993,75,-6,102
1087,99,64,993,231,43,75
1088,98,43,1011,282,58,24
1089,107,41,1021,229,52,-5
1090,111,35,1023,132,49,-9
1091,114,50,1039,8,47,-11
1092,133,65,1025,-107,-4,-1
1093,134,93,1022,-230,-69,22
1094,116,108,1011,-345,-119,98
1095,98,103,998,-343,-151,169
1096,93,97,971,-243,-147,182
1097,98,79,957,-93,-114,161
1098,87,63,957,53,-18,108
1099,100,69,958,147,113,32
1100,108,37,963,137,199,-25
1101,111,50,1019,98,230,-27
1102,133,36,1028,22,201,-33
1103,130,40,1032,-66,150,-58
1104,126,52,1053,-193,84,-66
1105,130,83,1047,-324,33,-56
1106,128,104,1040,-413,-18,3
1107,127,114,1017,-386,-80,96
1108,118,113,1014,-230,-119,139
1109,111,112,1008,-38,-104,87
1110,105,97,1019,108,-12,18
1111,115,85,1005,176,56,10
1112,112,64,1002,171,76,67
1113,109,62,1000,126,64,114
1114,103,54,970,59,60,120
1115,109,50,985,-23,90,118
1116,102,43,980,-74,158,98
1117,115,50,1035,-60,219,20
1118,121,85,1059,-5,193,-66
1119,127,91,1051,28,107,-85
1120,119,88,1053,42,27,-44
1121,107,79,1022,16,-45,34
1122,104,77,1007,-48,-84,104
1123,106,80,995,-97,-61,120
1124,106,69,997,-56,-30,114
1125,98,81,990,44,31,92
1126,97,72,1003,92,103,24
1127,116,58,1024,124,164,-23
1128,106,64,1049,132,174,-19
1129,119,61,1041,71,131,-3
1130,123,73,1047,-21,90,26
1131,107,66,1046,-54,41,48
1132,115,93,1051,-21,4,48
1133,110,97,1035,40,-31,40
1134,109,98,1030,92,-65,24
1135,94,81,1028,114,-98,26
1136,89,78,998,77,-98,49
1137,95,55,993,7,-67,79
1138,107,46,978,-81,-63,110
1139,103,40,974,-175,-67,110
1140,90,64,994,-189,4,61
1141,99,79,1006,-103,62,12
1142,99,86,1006,3,82,3
1143,114,91,1027,104,76,-11
1144,106,93,1030,153,45,-23
1145,123,82,1033,130,-18,12
1146,110,67,1006,65,-92,71
1147,96,52,1009,1,-117,108
1148,99,33,1013,-40,-84,98
1149,107,36,986,-40,-30,48
1150,99,42,989,-60,58,-1
1151,100,44,992,-62,111,-23
1152,109,62,1019,-68,123,-29
1153,109,73,1016,-99,97,-33
1154,104,84,1019,-89,64,14
1155,119,88,1018,-1,49,38
1156,110,73,1036,104,43,14
1157,116,61,1045,214,49,-29
1158,118,69,1058,266,33,-66
1159,125,59,1042,235,6,-70
1160,117,55,1048,130,-20,-25
1161,117,62,1036,-15,-33,28
1162,108,76,1021,-148,-33,61
1163,93,73,1024,-206,-43,85
1164,108,73,1012,-165,-45,98
1165,95,65,989,-72,-47,59
1166,96,52,986,20,-51,3
1167,100,54,981,55,-47,-44
1168,91,56,974,26,-24,-76
1169,101,62,969,-3,25,-31
1170,116,88,971,-64,113,16
1171,111,86,1020,-101,92,-5
1172,103,88,1031,-31,94,-9
1173,117,93,1042,40,47,-11
1174,120,94,1028,65,-26,-15
1175,111,78,1018,28,-92,32
1176,100,72,1004,-13,-104,75
1177,92,59,987,8,-65,67
1178,98,66,986,73,-4,32
1179,96,59,1007,137,58,-29
1180,115,68,1020,165,103,-70
1181,105,67,1023,137,94,-89
1182,107,74,1027,77,33,-72
1183,119,85,1024,-21,-30,-34
1184,108,78,1003,-118,-67,46
1185,98,71,999,-140,-76,106
1186,96,72,996,-77,-37,92
1187,89,73,998,57,4,32
1188,92,55,1004,192,41,-44
1189,105,53,1015,210,43,-97
1190,107,51,993,155,37,-81
1191,103,47,996,51,29,-33
1192,108,44,1025,-48,31,-23
1193,104,57,1026,-68,31,-70
1194,103,74,1034,-17,15,-115
1195,113,93,1039,65,-6,-165
1196,118,102,1043,143,-31,-173
1197,110,114,1035,186,-76,-120
1198,121,104,1015,216,-121,-54
1199,118,92,1011,255,-121,-44
1200,91,77,1004,258,-78,-33
1201,93,67,1001,216,-10,-27
1202,103,60,1015,110,49,-38
1203,94,63,1018,-5,74,-33
1204,104,71,1026,-122,70,7
1205,98,72,1017,-199,62,28
1206,102,87,1047,-193,56,22
1207,111,97,1025,-124,49,5
1208,115,101,1041,16,11,-27
1209,117,95,1036,130,-45,-40
1210,97,93,1016,176,-74,-33
1211,95,78,1008,153,-71,-3
1212,99,61,1016,114,-24,12
1213,96,44,1021,98,17,-11
1214,106,56,1042,51,11,-62
1215,111,75,1018,-17,13,-87
1216,98,92,1007,-91,-10,-70
1217,114,93,1018,-111,-35,-11
1218,108,117,1014,-62,-61,-5
1219,101,99,1013,24,-69,-11
1220,98,99,1019,118,-47,-15
1221,98,94,1029,190,-35,-34
1222,109,80,1009,212,-26,-44
1223,110,77,1015,141,-24,-19
1224,95,71,1019,34,10,16
1225,95,69,1020,-27,47,16
1226,110,84,1047,-36,78,-17
1227,110,99,1065,-3,78,-50
1228,125,110,1073,91,49,-66
1229,118,99,1067,208,-6,-64
1230,121,96,1080,305,-45,-46
1231,121,92,1064,337,-41,-70
1232,119,88,1123,309,-16,-77
1233,134,82,1108,290,43,-56
1234,137,85,1131,217,10,-68
1235,129,112,1147,200,-22,-58
1236,159,119,1155,186,-71,-60
1237,150,127,1172,204,-108,-52
1238,150,130,1180,258,-104,-50
1239,158,136,1227,341,-55,-101
1240,174,166,1299,407,10,-187
1241,171,176,1370,442,82,-197
1242,197,177,1469,446,113,-134
1243,218,160,1541,421,23,-40
1244,234,149,1602,380,-135,28
1245,235,126,1656,415,-289,28
1246,228,128,1716,526,-448,-40
1247,206,112,1789,637,-586,-163
1248,193,157,1842,770,-735,-210
1249,233,140,1852,887,-973,-201
1250,227,158,1877,1030,-1196,-240
1251,240,195,1899,1094,-1399,-304
1252,234,226,1933,1114,-1635,-329
1253,214,253,1983,1161,-1897,-300
1254,209,277,1999,1208,-2145,-275
1255,222,283,1983,1233,-2485,-161
1256,175,304,1990,1186,-2865,-1
1257,165,304,1989,1192,-3184,106
1258,174,313,1980,1219,-3387,104
1259,180,334,1980,1167,-3518,61
1260,150,374,2030,1130,-3649,18
1261,133,405,2031,1106,-3830,92
1262,124,407,2048,1091,-4030,235
1263,109,405,2042,1044,-4375,428
1264,66,364,1987,858,-4869,704
1265,18,328,1880,563,-5662,1057
1266,-59,285,1759,194,-6516,1311
1267,-109,261,1580,-62,-7192,1530
1268,-164,224,1400,-253,-7598,1706
1269,-235,176,1195,-431,-7852,1694
1270,-309,97,963,-599,-7992,1684
1271,-344,-21,706,-689,-7721,1632
1272,-353,-93,421,-671,-7063,1356
1273,-386,-149,145,-554,-6151,825
1274,-382,-158,-43,-314,-5326,221
1275,-299,-62,-237,69,-4672,-267
1276,-179,47,-425,370,-4073,-419
1277,-101,122,-596,643,-3631,-304
1278,-68,173,-764,862,-3291,-60
1279,-29,165,-934,1051,-2920,192
1280,43,79,-1040,1296,-2442,311
1281,140,33,-1108,1602,-1899,299
1282,175,-14,-1120,1889,-1272,167
1283,168,-28,-996,2126,-692,-161
1284,225,58,-838,2217,-69,-451
1285,332,145,-677,2051,535,-650
1286,427,255,-488,1674,828,-675
1287,506,344,-334,1366,875,-443
1288,559,427,-184,1253,787,-199
1289,580,480,-90,1270,605,-34
1290,591,542,-2,1358,424,75
1291,586,567,72,1512,414,243
1292,631,529,137,1653,552,454
1293,684,513,167,1661,549,596
1294,706,504,178,1522,410,676
1295,680,506,196,1344,220,749
1296,643,540,235,1251,39,839
1297,637,633,267,1151,-155,848
1298,643,750,258,948,-291,813
1299,629,891,238,725,-256,792
1300,593,969,233,569,-106,928
1301,552,1036,219,561,95,1258
1302,508,1001,228,704,398,1747
1303,470,943,266,1112,775,2141
1304,472,881,322,1716,1107,2329
1305,487,824,321,2301,1447,2280
1306,424,825,295,2456,1601,2321
1307,464,804,305,2612,1619,2188
1308,359,878,270,2046,1584,2575
1309,332,905,244,1583,1635,2913
1310,274,900,213,1235,1689,3350
1311,200,833,196,1157,1730,3815
1312,171,759,192,1339,1717,4219
1313,158,643,145,1659,1777,4456
1314,164,508,96,2057,2000,4546
1315,137,406,102,2378,2336,4546
1316,94,324,85,2534,2693,4434
1317,14,239,128,2456,2988,4368
1318,-9,163,167,2299,3302,4374
1319,-34,52,208,2106,3615,4497
1320,-50,-102,266,1860,3875,4714
1321,-110,-262,318,1469,4115,5003
1322,-174,-410,363,915,4189,5362
1323,-242,-600,372,546,4148,5633
1324,-275,-803,367,698,4031,5587
1325,-243,-1026,388,1417,3900,5083
1326,-227,-1257,478,2473,4135,4057
1327,-216,-1396,597,3466,4754,2614
1328,-183,-1481,787,3911,5467,1147
1329,-152,-1531,1016,3633,6015,96
1330,-102,-1541,1218,2755,6338,-435
1331,10,-1456,1397,1485,6586,-683
1332,152,-1402,1570,282,6724,-857
1333,314,-1379,1767,-400,6478,-1105
1334,425,-1302,1888,-810,5791,-1279
1335,436,-1228,1860,-1193,4453,-1359
1336,306,-1207,1816,-1357,3076,-1449
1337,237,-1109,1758,-1367,2244,-1693
1338,213,-1030,1732,-1404,2222,-2083
1339,215,-1003,1722,-1322,2652,-2507
1340,223,-941,1829,-1242,3027,-2925
1341,207,-903,1935,-1220,3164,-3243
1342,216,-884,1949,-1107,3010,-3507
1343,177,-828,1978,-1009,2662,-3751
1344,126,-773,1969,-982,2334,-4048
1345,112,-698,1939,-913,2082,-4302
1346,113,-561,1960,-970,1974,-4595
1347,83,-464,1943,-1034,1939,-4851
1348,18,-401,1935,-952,1760,-4964
1349,-39,-346,1918,-851,1445,-5038
1350,-107,-283,1846,-851,1113,-5132
1351,-176,-289,1723,-900,631,-5062
1352,-154,-275,1571,-1085,17,-4800
1353,-164,-164,1540,-1419,-160,-4833
1354,-237,-80,1529,-1451,183,-5130
1355,-261,70,1560,-1306,543,-5400
1356,-281,192,1538,-1177,812,-5517
1357,-254,264,1505,-1040,851,-5376
1358,-265,382,1453,-925,765,-5283
1359,-275,475,1434,-806,699,-5189
1360,-268,586,1421,-595,658,-5118
1361,-224,775,1380,-566,609,-5046
1362,-207,911,1353,-699,576,-4853
1363,-199,973,1296,-859,463,-4452
1364,-139,1033,1210,-1060,219,-3822
1365,-148,1064,1106,-1243,-24,-3234
1366,-191,990,1043,-1169,-244,-2763
1367,-213,943,1046,-826,-299,-2443
1368,-204,899,1015,-404,-112,-2361
1369,-186,834,996,-70,84,-2240
1370,-179,767,1022,153,246,-2076
1371,-169,745,1069,342,388,-2087
1372,-168,776,1103,436,556,-2136
1373,-110,835,1126,489,746,-2146
1374,-54,915,1137,442,808,-2206
1375,-46,946,1147,266,529,-1886
1376,-35,935,1150,79,11,-1154
1377,-48,842,1077,-99,-559,-378
1378,-100,726,1006,-226,-905,161
1379,-88,625,942,-171,-1049,432
1380,-92,515,878,-56,-963,540
1381,-98,427,857,108,-639,450
1382,-81,367,870,331,-158,243
1383,-60,315,906,518,332,71
1384,-42,282,955,532,652,32
1385,4,212,964,356,808,110
1386,43,169,1025,124,754,251
1387,84,153,1057,-36,519,415
1388,108,146,1063,-122,267,536
1389,102,146,1062,7,33,555
1390,73,134,1057,258,-117,526
1391,59,92,1031,538,-139,501
1392,47,19,1023,704,-78,536
1393,63,-52,1024,708,11,561
1394,75,-104,1017,505,72,510
1395,83,-119,1035,104,115,458
1396,114,-113,1030,-349,138,415
1397,118,-71,1014,-784,133,424
1398,119,-25,1010,-990,101,442
1399,121,21,1011,-849,90,382
1400,112,34,1010,-462,117,264
1401,98,43,1046,26,177,153
1402,116,38,1075,428,191,71
1403,102,43,1076,587,152,42
1404,89,24,1077,518,70,92
1405,99,17,1049,276,-16,178
1406,103,6,1022,5,-123,294
1407,89,-10,966,-234,-211,423
1408,64,-34,961,-349,-176,454
1409,40,-27,958,-326,-51,364
1410,29,-26,989,-187,115,212
1411,38,13,1017,30,301,32
1412,67,51,1056,153,435,-202
1413,81,51,1061,186,482,-329
1414,86,71,1094,96,453,-281
1415,92,79,1088,-62,318,-142
1416,103,92,1106,-177,119,3
1417,83,78,1072,-179,-98,114
1418,55,75,1048,-62,-237,153
1419,39,56,1030,98,-250,114
1420,56,47,1013,208,-221,69
1421,58,30,1013,202,-186,26
1422,41,25,993,81,-168,20
1423,49,39,986,-44,-129,71
1424,39,33,996,-171,-67,100
1425,47,39,988,-210,-33,92
1426,65,42,1006,-146,-22,34
1427,83,54,1017,-77,-24,-58
1428,92,71,1035,-58,-33,-99
1429,91,65,1030,-54,-63,-58
1430,92,72,1015,-56,-121,-1
1431,67,62,986,-68,-194,71
1432,55,22,960,-56,-227,122
1433,41,15,950,-44,-174,118
1434,52,15,955,-31,-61,69
1435,52,20,978,46,76,-23
1436,65,37,1006,165,164,-89
1437,86,45,1027,235,174,-115
1438,72,35,1013,180,115,-99
1439,64,15,1019,77,52,-70
1440,77,33,1018,-56,-47,-42
1441,66,39,1010,-232,-119,-15
1442,54,69,1024,-316,-137,-7
1443,44,62,994,-294,-94,10
1444,66,89,999,-214,-16,3
1445,59,81,998,-117,25,-5
1446,48,66,1011,10,35,12
1447,45,60,992,96,74,-17
1448,66,52,1030,135,103,-68
1449,69,45,1041,98,117,-87
1450,66,71,1049,46,86,-76
1451,79,72,1081,1,35,-44
1452,72,65,1066,16,-30,-3
1453,65,56,1056,57,-104,7
1454,65,65,1021,55,-160,-15
1455,51,68,998,18,-182,-19
1456,45,68,982,-17,-151,7
1457,50,59,982,-42,-90,7
1458,71,68,971,-87,-51,-9
1459,61,75,959,-148,-14,12
1460,48,72,989,-122,37,42
1461,73,58,986,-31,84,32
1462,70,60,1022,77,117,-33
1463,77,65,1015,96,103,-68
1464,78,75,1049,38,54,-27
1465,74,84,1060,-85,4,14
1466,62,97,1044,-171,-28,77
1467,67,84,1042,-120,-88,141
1468,49,72,1014,16,-117,128
1469,57,61,1008,178,-96,63
1470,59,53,994,219,-57,32
1471,59,32,975,151,-24,40
1472,55,28,969,36,-12,65
1473,56,36,990,-83,21,79
1474,49,43,983,-130,90,49
1475,53,55,1014,-72,140,10
1476,83,61,1052,36,160,-3
1477,87,77,1064,104,113,-15
1478,98,63,1068,79,41,-9
1479,84,67,1070,-17,-47,3
1480,90,84,1043,-152,-117,71
1481,74,82,1015,-226,-166,161
1482,64,72,991,-208,-176,182
1483,50,37,986,-87,-92,139
1484,47,37,987,59,4,75
1485,61,25,999,155,58,-3
1486,79,43,1018,176,113,-72
1487,82,49,1040,124,144,-83
1488,98,50,1049,42,133,-34
1489,106,60,1075,-42,62,-11
1490,79,81,1037,-124,-49,16
1491,74,74,1028,-128,-131,85
1492,72,62,1024,-89,-141,106
1493,67,39,1012,-27,-82,100
1494,75,39,1024,-5,-18,75
1495,77,36,1028,-40,21,44
1496,81,40,1039,-48,62,32
1497,83,42,1057,-23,58,44
1498,87,37,1052,-25,17,55
1499,76,48,1061,-44,-14,48
1500,81,56,1061,-52,-35,32
1501,89,67,1043,-50,-61,32
1502,93,82,1043,-56,-88,28
1503,84,93,1018,-21,-131,53
1504,59,84,1006,18,-176,102
1505,52,45,992,71,-168,120
1506,59,39,960,108,-153,108
1507,43,13,963,104,-110,81
1508,61,11,983,67,-43,32
1509,72,23,990,38,27,-48
1510,75,50,1020,-11,51,-95
1511,89,84,1013,-64,37,-77
1512,86,89,1048,-52,4,-15
1513,90,98,1040,-3,-67,49
1514,89,84,1013,20,-119,65
1515,74,64,1001,55,-149,79
1516,74,69,997,61,-141,118
1517,64,42,993,59,-90,135
1518,65,22,1000,98,-6,102
1519,69,17,1010,135,78,32
1520,77,22,1029,153,115,-33
1521,91,33,1049,85,95,-79
1522,96,50,1055,-74,-6,-56
1523,106,68,1049,-228,-153,34
1524,95,82,1020,-292,-289,114
1525,76,81,1016,-240,-324,163
1526,78,57,1011,-27,-252,147
1527,75,43,1013,190,-151,53
1528,90,47,1014,276,-88,-7
1529,84,44,1019,202,-39,-42
1530,94,51,1010,46,-14,-15
1531,86,41,1006,-159,-22,59
1532,80,54,996,-314,-10,139
1533,76,54,1004,-312,6,122
1534,85,60,1016,-191,6,75
1535,75,66,1020,28,11,22
1536,95,54,1028,272,-10,-9
1537,94,39,1031,405,-43,-48
1538,95,18,1031,366,-76,-52
1539,88,16,1007,194,-115,-11
1540,80,27,986,-36,-155,22
1541,62,48,970,-191,-143,53
1542,69,61,965,-230,-80,46
1543,71,60,971,-179,11,20
1544,70,65,1002,-31,80,-11
1545,93,53,1009,98,99,-54
1546,95,60,1028,161,94,-91
1547,94,64,1043,174,45,-77
1548,90,55,1038,112,-35,-3
1549,81,41,1018,44,-88,53
1550,82,28,977,22,-119,59
1551,76,21,966,-15,-104,32
1552,75,16,991,-54,-16,-17
1553,80,29,992,-81,95,-62
1554,102,45,1033,-128,176,-79
1555,94,68,1060,-195,156,-56
1556,102,72,1063,-181,41,10
1557,99,63,1045,-44,-71,36
1558,96,52,1035,83,-156,-11
1559,92,52,1018,42,-203,-15
1560,79,45,1000,-128,-199,49
1561,74,49,972,-220,-149,106
1562,67,48,978,-197,-73,96
1563,65,35,986,-54,51,26
1564,75,36,1019,69,166,-74
1565,94,39,1047,149,209,-148
1566,104,53,1075,153,185,-177
1567,123,80,1090,98,113,-150
1568,119,91,1081,24,-14,-89
1569,104,89,1070,-17,-112,-1
1570,106,89,1059,10,-160,32
1571,97,83,1048,98,-168,32
1572,87,58,1056,180,-143,10
1573,91,54,1065,223,-108,10
1574,99,31,1058,206,-67,16
1575,99,26,1064,194,-2,-38
1576,113,37,1092,155,62,-83
1577,121,50,1140,135,84,-113
1578,130,73,1170,217,84,-156
1579,149,97,1233,378,51,-222
1580,152,100,1300,507,19,-275
1581,141,107,1383,639,99,-298
1582,167,130,1467,733,191,-314
1583,193,130,1555,739,230,-298
1584,201,113,1658,784,228,-277
1585,203,94,1744,866,174,-218
1586,196,62,1848,930,131,-152
1587,205,47,1893,919,54,-115
1588,207,45,1973,862,-92,-134
1589,215,60,2017,786,-246,-199
1590,214,31,2048,807,-455,-255
1591,199,77,2048,901,-836,-329
1592,189,122,2048,997,-1203,-308
1593,174,91,2048,960,-1643,-206
1594,140,81,2048,938,-2160,-83
1595,102,95,2048,862,-2602,-33
1596,67,87,2048,745,-2922,75
1597,34,104,2048,721,-3112,118
1598,9,140,2048,907,-3215,32
1599,1,166,2048,1268,-3278,-158
1600,4,177,2048,1647,-3319,-390
1601,-38,185,2048,1870,-3459,-495
1602,-79,160,2048,1841,-4115,-273
1603,-92,141,2048,1628,-5067,67
1604,-106,78,1990,1253,-6094,337
1605,-185,50,1808,815,-6955,514
1606,-273,59,1659,350,-7686,604
1607,-358,54,1476,-66,-8176,614
1608,-382,68,1277,-296,-8485,493
1609,-380,84,1094,-411,-8713,294
1610,-377,135,893,-527,-8926,49
1611,-374,212,689,-685,-9147,-122
1612,-363,334,399,-870,-9418,-191
1613,-398,463,43,-1128,-9463,-169
1614,-437,595,-279,-1304,-8951,61
1615,-435,679,-727,-1312,-8030,411
1616,-429,653,-1111,-984,-6625,680
1617,-435,571,-1383,-38,-4760,823
1618,-389,447,-1459,1128,-2686,747
1619,-216,324,-1403,2174,-811,548
1620,-3,241,-1227,2956,277,272
1621,198,218,-1038,3346,783,-36
1622,312,277,-864,3411,1070,-218
1623,327,307,-651,3190,1166,-275
1624,355,379,-449,2858,1197,-154
1625,407,447,-302,2391,1121,53
1626,445,479,-171,1915,1033,403
1627,491,499,-114,1532,822,749
1628,486,508,-87,1274,582,979
1629,499,518,-73,1194,371,1145
1630,561,575,-116,1190,234,1219
1631,611,619,-147,1186,168,1155
1632,616,646,-110,1223,80,1120
1633,618,721,-54,1372,-108,1083
1634,602,770,3,1659,-239,1089
1635,529,766,59,1999,-281,1210
1636,455,816,147,2264,-182,1323
1637,413,842,196,2389,156,1366
1638,450,859,256,2382,656,1518
1639,507,918,255,2202,1154,1708
1640,546,978,285,1807,1529,1985
1641,560,1035,319,1299,1769,2372
1642,531,1082,349,844,1849,2805
1643,458,1125,386,583,1687,3260
1644,345,1135,448,557,1390,3741
1645,228,1065,456,827,1076,4262
1646,139,944,462,1282,783,4823
1647,90,715,390,1858,525,5235
1648,90,496,319,2415,457,5497
1649,101,343,211,2674,566,5485
1650,96,217,90,2616,742,5217
1651,-7,122,23,2348,945,5030
1652,-131,48,-9,2014,1275,5075
1653,-216,-75,23,1776,1806,5337
1654,-306,-203,74,1702,2584,5620
1655,-396,-373,116,1680,3363,5850
1656,-431,-621,170,1870,4123,5987
1657,-443,-818,196,2321,4888,5671
1658,-367,-997,264,2774,5560,4946
1659,-253,-1201,393,3040,6011,4089
1660,-137,-1403,525,3118,6187,3309
1661,-21,-1454,624,2913,5980,2569
1662,11,-1394,683,2364,5486,1895
1663,-49,-1387,789,1868,5113,1462
1664,-81,-1371,887,1712,5201,1110
1665,-16,-1377,1003,1577,5672,755
1666,35,-1422,1149,1167,6160,467
1667,48,-1441,1273,548,6455,354
1668,82,-1462,1478,-68,6435,257
1669,180,-1489,1651,-267,6058,-1
1670,288,-1477,1741,-27,5332,-570
1671,298,-1406,1808,352,4660,-1445
1672,232,-1325,1868,532,3994,-2245
1673,164,-1267,1926,317,3492,-2747
1674,126,-1184,1926,-74,3293,-3023
1675,121,-1125,1880,-318,3187,-3216
1676,127,-1054,1862,-474,2996,-3470
1677,115,-977,1871,-583,2742,-3800
1678,79,-887,1889,-624,2486,-4113
1679,80,-774,1905,-693,2302,-4497
1680,40,-653,1908,-761,2246,-4855
1681,-5,-540,1950,-800,2172,-5001
1682,-12,-457,1861,-923,1980,-4980
1683,-20,-400,1800,-1079,1660,-4865
1684,-3,-321,1792,-1214,1324,-4779
1685,-43,-223,1754,-1259,1189,-4880
1686,-93,-173,1752,-1128,1052,-4982
1687,-154,-116,1757,-808,986,-5054
1688,-189,-33,1741,-505,965,-5202
1689,-220,8,1673,-316,877,-5406
1690,-236,39,1640,-214,779,-5488
1691,-211,122,1629,-367,885,-5583
1692,-246,193,1618,-699,1086,-5634
1693,-258,241,1628,-974,1060,-5400
1694,-228,310,1647,-1240,916,-5136
1695,-207,378,1594,-1312,734,-5023
1696,-232,397,1577,-1148,383,-4892
1697,-234,453,1592,-738,150,-4911
1698,-258,541,1609,-333,150,-5148
1699,-270,615,1556,-87,144,-5298
1700,-278,670,1523,-91,-16,-5154
1701,-275,748,1419,-343,-303,-4826
1702,-257,818,1301,-704,-551,-4437
1703,-243,854,1161,-1077,-783,-3984
1704,-200,943,1046,-1501,-963,-3538
1705,-157,1131,914,-2140,-971,-3232
1706,-147,1294,790,-2767,-797,-2792
1707,-112,1377,703,-3087,-563,-2079
1708,-112,1404,694,-2937,-188,-1288
1709,-107,1374,713,-2243,219,-687
1710,-103,1266,775,-1081,465,-292
1711,-111,1105,812,360,584,-87
1712,-92,916,821,1725,605,-34
1713,-118,702,866,2723,506,1
1714,-138,531,902,3157,480,16
1715,-142,412,961,2903,574,18
1716,-153,318,1028,2186,629,42
1717,-137,241,1074,1247,629,243
1718,-96,203,1063,364,592,610
1719,-28,193,1034,-288,494,887
1720,13,197,994,-849,283,938
1721,-6,200,1023,-1156,101,1008
1722,-20,177,1015,-1007,47,1096
1723,-19,131,1045,-388,64,1014
1724,1,61,1059,497,136,813
1725,28,-53,1070,1317,174,573
1726,35,-143,1092,1790,152,358
1727,73,-217,1123,1854,148,200
1728,115,-213,1136,1526,191,59
1729,127,-204,1118,897,158,-38
1730,113,-158,1103,26,-10,98
1731,114,-92,1052,-810,-186,403
1732,98,-45,1009,-1210,-211,532
1733,62,-14,987,-1126,-117,501
1734,67,17,999,-720,80,436
1735,112,34,1043,-62,336,247
1736,126,22,1074,549,445,1
1737,136,-5,1081,860,422,-120
1738,143,-5,1112,803,338,-113
1739,153,-7,1121,610,187,-33
1740,147,17,1130,356,13,65
1741,108,25,1107,122,-119,196
1742,93,33,1085,7,-164,282
1743,89,23,1073,-13,-164,282
1744,77,5,1063,36,-155,264
1745,63,4,1060,98,-156,231
1746,52,-6,1045,139,-174,186
1747,57,-12,1033,159,-192,139
1748,43,-18,1032,173,-186,118
1749,59,-11,1014,206,-174,92
1750,55,2,984,194,-156,44
1751,65,10,987,102,-121,-17
1752,78,42,987,38,-106,-31
1753,73,55,977,-54,-127,-9
1754,40,53,983,-68,-129,36
1755,28,37,967,51,-102,65
1756,35,23,960,212,-57,28
1757,50,8,988,337,-12,-103
1758,68,24,1006,389,21,-230
1759,85,53,1023,325,21,-261
1760,96,79,1037,151,-14,-183
1761,92,103,1014,-29,-63,-40
1762,82,109,987,-148,-82,92
1763,66,80,954,-167,-102,192
1764,48,58,951,-91,-74,217
1765,48,45,954,30,-12,128
1766,57,31,970,124,54,18
1767,76,40,1016,174,105,-89
1768,99,64,1017,137,113,-165
1769,96,78,1017,57,33,-148
1770,84,87,1003,-66,-65,-38
1771,72,98,989,-189,-78,55
1772,69,92,972,-224,-74,139
1773,59,94,959,-216,-49,163
1774,43,82,962,-159,0,139
1775,56,81,970,40,64,79
1776,59,65,982,292,105,-9
1777,58,58,1000,464,148,-77
1778,58,55,1014,557,203,-120
1779,72,62,1035,497,213,-140
1780,79,60,1012,299,185,-101
1781,63,66,1028,-19,160,10
1782,75,88,1032,-298,125,100
1783,100,108,1032,-466,74,163
1784,81,123,1034,-474,27,229
1785,71,118,1031,-267,11,214
1786,60,86,1019,92,17,126
1787,59,71,1037,372,35,48
1788,61,47,1033,454,49,-11
1789,68,32,1027,356,31,-1
1790,58,40,1010,132,35,32
1791,43,61,1008,-117,54,77
1792,51,75,1014,-281,58,130
1793,55,93,999,-333,43,147
1794,55,91,992,-251,-4,149
1795,47,95,965,-68,-37,120
1796,35,81,972,153,-22,81
1797,36,70,980,329,23,36
1798,45,47,973,424,80,12
1799,45,25,996,460,131,-21
1800,60,36,1001,415,166,-85
1801,59,38,1023,286,181,-89
1802,72,43,1046,132,181,-62
1803,82,61,1049,-52,146,-29
1804,77,79,1046,-236,92,14
1805,68,91,1042,-388,37,75
1806,63,102,1039,-417,4,132
1807,66,111,1033,-259,-24,118
1808,49,102,1040,-15,-4,65
1809,54,85,1042,214,27,5
1810,61,55,1034,331,39,-9
1811,58,44,1026,292,49,-5
1812,69,55,1038,176,43,-9
1813,70,62,1032,30,49,-23
1814,68,69,1052,-54,41,-11
1815,64,83,1047,-85,25,14
1816,68,90,1054,-111,-2,24
1817,66,82,1014,-97,-61,38
1818,53,92,1020,-70,-59,75
1819,54,65,1023,-38,-4,75
1820,61,63,1033,12,51,67
1821,68,53,1057,14,58,49
1822,68,62,1052,20,29,26
1823,57,54,1057,24,-33,32
1824,50,33,1034,12,-74,53
1825,57,33,1022,-9,-84,28
1826,45,39,1030,-46,-74,-19
1827,43,46,1028,-81,-63,-40
1828,54,62,1021,-95,-71,-33
1829,49,62,1015,-56,-82,-36
1830,62,68,1024,-7,-84,-56
1831,57,60,1000,-19,-100,-74
1832,64,67,1013,-29,-117,-85
1833,47,88,1006,-38,-110,-111
1834,51,97,1016,-21,-57,-111
1835,64,102,999,30,-35,-70
1836,76,110,1007,73,-65,-36
1837,66,103,987,48,-125,-7
1838,47,79,975,-19,-145,28
1839,43,66,989,-46,-82,53
1840,48,65,993,-54,-2,12
1841,65,66,1010,-46,43,-44
1842,64,84,1023,-33,29,-74
1843,58,100,1024,-38,-16,-72
1844,73,94,1003,-76,-84,-25
1845,63,85,972,-93,-139,36
1846,60,88,978,-97,-135,59
1847,53,74,987,-89,-74,32
1848,64,72,988,-29,-8,20
1849,61,80,980,10,33,-1
1850,59,84,1005,30,56,-15
1851,63,89,991,42,58,24
1852,57,62,993,12,33,75
1853,43,55,998,-27,41,89
1854,58,48,999,-66,49,53
1855,57,51,982,-95,82,20
1856,58,79,1006,-97,115,-27
1857,60,85,1016,-50,133,-31
1858,69,95,1048,20,115,-11
1859,71,81,1032,83,86,10
1860,69,71,1043,102,66,20
1861,66,65,1053,91,52,20
1862,75,60,1031,22,49,16
1863,73,49,1039,-21,31,12
1864,66,62,1033,-36,35,-9
1865,78,77,1048,-50,47,-21
1866,82,80,1060,-66,49,-3
1867,91,72,1037,-34,21,20
1868,86,90,1044,8,-35,5
1869,69,81,1044,24,-67,16
1870,65,82,1014,12,-76,53
1871,53,67,1011,3,-65,81
1872,62,56,1010,38,-51,81
1873,64,45,1015,71,-22,50
1874,52,30,1020,110,27,5
1875,59,33,1040,110,64,-34
1876,75,43,1047,67,92,-66
1877,79,66,1080,36,84,-72
1878,102,85,1090,-21,6,-54
1879,71,83,1053,-113,-100,-1
1880,67,92,1013,-150,-203,79
1881,52,75,980,-140,-260,128
1882,42,55,960,-54,-229,92
1883,30,60,955,40,-110,18
1884,35,50,964,67,29,-58
1885,52,56,988,85,135,-97
1886,57,69,1035,71,162,-75
1887,76,84,1038,48,117,-48
1888,76,79,1037,12,21,-11
1889,56,70,1041,-19,-63,36
1890,65,68,1018,-17,-114,50
1891,49,62,1017,-19,-119,32
1892,52,60,1023,3,-94,10
1893,43,61,1027,14,-61,-25
1894,52,64,1017,14,-39,-48
1895,58,70,1005,-31,-37,-29
1896,70,67,1004,-85,-49,22
1897,59,74,1011,-105,-28,16
1898,53,70,1007,-58,11,-9
1899,73,70,998,-11,35,-11
1900,64,68,1029,-17,25,-11
1901,58,61,1032,5,-30,-9
1902,62,63,1022,-13,-80,-1
1903,68,66,1016,-25,-76,3
1904,59,73,1004,-52,-59,24
1905,66,64,1001,-93,-61,48
1906,47,48,1012,-81,-16,42
1907,59,53,1014,-11,17,14
1908,59,54,1015,22,17,-38
1909,70,61,1039,36,8,-64
1910,77,68,1012,14,-31,-56
1911,75,75,1004,-25,-63,-34
1912,70,78,1003,-29,-80,24
1913,66,67,982,5,-76,44
1914,62,51,992,65,-43,16
1915,55,54,987,165,13,-11
1916,45,41,993,221,80,-56
1917,55,41,1031,198,140,-107
1918,79,45,1043,67,152,-77
1919,77,59,1038,-111,90,-3
1920,82,52,1037,-240,4,55
1921,72,63,1019,-218,-80,67
1922,61,45,1017,-64,-106,7
1923,57,39,1013,114,-63,-89
1924,60,53,1018,206,-16,-173
1925,65,65,1015,202,8,-181
1926,71,89,1023,133,27,-156
1927,73,80,1016,30,27,-101
1928,65,89,995,-15,4,-44
1929,58,77,992,-25,4,-11
1930,55,77,1020,46,47,-21
1931,79,82,1031,100,113,-81
1932,83,74,1056,110,58,-79
1933,73,81,1046,155,2,-40
1934,79,58,1042,284,-43,-34
1935,74,43,1024,522,-45,-99
1936,86,35,1029,796,17,-240
1937,103,38,1050,1049,115,-404
1938,137,49,1126,1190,209,-566
1939,166,81,1226,1204,246,-704
1940,176,126,1320,1083,195,-695
1941,162,167,1397,903,162,-646
1942,155,168,1491,815,113,-552
1943,143,168,1588,766,66,-408
1944,174,158,1668,743,8,-333
1945,205,117,1746,776,-244,-320
1946,194,101,1775,807,-627,-308
1947,183,91,1763,811,-989,-269
1948,181,60,1715,801,-1313,-242
1949,160,58,1699,743,-1512,-269
1950,171,88,1708,637,-1547,-283
1951,231,120,1733,458,-1319,-458
1952,198,222,1923,315,-989,-700
1953,187,339,2048,124,-594,-800
1954,201,423,2048,114,-209,-855
1955,238,442,2048,370,-168,-865
1956,253,449,2048,719,-348,-841
1957,241,405,2048,932,-1444,-515
1958,171,332,2048,821,-3125,5
1959,60,228,2048,526,-4799,540
1960,-41,93,2048,315,-6147,944
1961,-135,15,2048,49,-6955,1132
1962,-177,-74,2048,-343,-7592,1178
1963,-241,-107,1946,-548,-7805,973
1964,-264,-124,1792,-474,-7787,612
1965,-260,-112,1667,-292,-7684,243
1966,-285,-76,1529,-191,-7596,-142
1967,-324,-41,1406,-142,-7604,-363
1968,-349,-5,1212,-142,-7869,-406
1969,-367,52,1002,-226,-8340,-357
1970,-384,117,706,-400,-8625,-283
1971,-411,169,466,-626,-8858,-218
1972,-421,256,237,-790,-8725,-25
1973,-385,328,6,-896,-8270,135
1974,-347,375,-171,-808,-7633,139
1975,-305,413,-330,-507,-6883,32
1976,-271,414,-475,38,-5951,-150
1977,-246,401,-564,835,-4895,-398
1978,-206,400,-592,1639,-3699,-570
1979,-156,391,-685,2122,-2533,-687
1980,-58,389,-716,2399,-1621,-732
1981,70,333,-669,2536,-1143,-554
1982,237,369,-698,2409,-1123,-269
1983,318,376,-722,2028,-1321,-11
1984,284,412,-686,1858,-1557,108
1985,269,470,-645,2010,-1530,28
1986,305,528,-614,2260,-1123,-7
1987,365,564,-569,2405,-590,-15
1988,376,568,-501,2426,-39,28
1989,409,591,-459,2419,474,96
1990,435,606,-385,2317,888,204
1991,465,569,-299,2176,1185,405
1992,529,574,-178,2176,1176,526
1993,570,662,-127,2219,892,389
1994,573,743,-59,2298,599,214
1995,559,833,-20,2446,377,157
1996,543,927,27,2614,338,225
1997,558,1039,82,2735,445,303
1998,526,1143,143,2858,812,337
1999,508,1287,207,3053,1361,518
2000,487,1344,302,3294,1885,934
2001,477,1353,335,3237,2140,1516
2002,455,1287,382,2864,2220,2247
2003,432,1166,405,2383,2078,2960
2004,417,1040,427,1907,1656,3544
2005,416,945,390,1489,1133,3921
2006,359,890,353,1135,687,4073
2007,262,850,297,858,328,4182
2008,178,775,247,585,82,4342
2009,57,693,156,438,15,4641
2010,-55,592,103,505,174,5124
2011,-127,441,33,817,640,5766
2012,-154,210,-36,1299,1308,6276
2013,-190,12,-33,1760,2023,6501
2014,-208,-157,-17,2016,2804,6487
2015,-166,-307,36,2069,3525,6278
2016,-148,-427,103,1981,4123,5899
2017,-140,-534,255,1790,4351,5469
2018,-146,-588,351,1723,4513,5126
2019,-227,-648,435,1895,4619,4854
2020,-205,-799,555,2549,4486,4653
2021,-104,-944,582,3499,4402,4366
2022,-50,-1060,602,4194,4517,3798
2023,-12,-1193,657,4403,4705,3042
2024,1,-1332,761,4305,5181,2321
2025,0,-1407,913,4130,5636,1612
2026,88,-1512,1125,3794,5886,954
2027,238,-1602,1313,3130,5941,397
2028,402,-1625,1387,2204,5853,-15
2029,459,-1527,1435,1065,5392,-386
2030,429,-1402,1508,-34,4818,-697
2031,378,-1269,1566,-560,4467,-958
2032,383,-1149,1603,-497,4295,-1286
2033,412,-1111,1635,-68,4242,-1628
2034,431,-1138,1613,403,3892,-1888
2035,434,-1113,1607,489,3318,-2140
2036,417,-1081,1612,262,3074,-2417
2037,425,-1041,1648,-46,3027,-2665
2038,411,-973,1669,-421,2916,-2909
2039,323,-938,1695,-689,2613,-3085
2040,251,-906,1699,-755,2105,-3228
2041,206,-861,1641,-730,1638,-3497
2042,194,-815,1584,-579,1388,-3906
2043,180,-706,1577,-554,1508,-4402
2044,139,-597,1587,-570,1842,-4792
2045,121,-508,1642,-507,2045,-5031
2046,37,-421,1641,-511,2045,-5197
2047,-61,-394,1616,-492,1773,-5204
2048,-64,-391,1568,-499,1244,-5134
2049,-64,-325,1500,-859,795,-5220
2050,-64,-222,1465,-1492,519,-5283
2051,-71,-104,1454,-2128,422,-5167
2052,-118,-13,1481,-2441,480,-5095
2053,-177,-3,1549,-2118,594,-5140
2054,-136,115,1629,-1413,781,-5503
2055,-137,243,1707,-716,1156,-6181
2056,-152,296,1782,-15,1314,-6583
2057,-155,367,1903,432,1291,-6720
2058,-159,468,1956,356,1039,-6835
2059,-170,528,1944,-118,340,-6622
2060,-141,698,1844,-902,-707,-6083
2061,-168,834,1729,-1913,-1471,-5570
2062,-195,1004,1545,-2747,-1742,-5033
2063,-185,1174,1347,-3388,-1789,-4421
2064,-172,1290,1189,-3831,-1676,-3677
2065,-152,1292,1069,-3786,-1475,-2949
2066,-146,1225,993,-3165,-1229,-2468
2067,-156,1133,967,-2169,-940,-2396
2068,-170,1059,1002,-974,-506,-2488
2069,-161,995,1042,69,-26,-2622
2070,-115,1026,1050,536,342,-2695
2071,-66,1066,1061,489,521,-2534
2072,-48,1095,1032,196,453,-2165
2073,2,1135,1004,-124,150,-1630
2074,20,1114,904,-409,-172,-1034
2075,-5,1051,857,-411,-424,-517
2076,-55,975,795,-105,-551,-214
2077,-59,883,756,315,-514,-38
2078,-71,762,713,710,-342,44
2079,-86,650,730,973,-114,108
2080,-108,569,757,973,185,147
2081,-84,497,794,737,525,221
2082,-30,443,837,436,801,337
2083,25,393,871,128,904,368
2084,84,354,897,-117,791,368
2085,90,347,899,-302,623,475
2086,73,289,939,-277,554,641
2087,89,248,971,-33,541,766
2088,91,162,1034,231,539,831
2089,110,111,1070,450,556,837
2090,144,68,1068,471,525,717
2091,155,61,1044,292,431,678
2092,148,34,1049,63,386,782
2093,158,-15,1053,-72,344,872
2094,188,-32,1076,-83,336,864
2095,209,-59,1085,8,318,768
2096,196,-24,1112,139,260,598
2097,194,-25,1115,299,238,454
2098,205,-20,1130,411,228,368
2099,207,-19,1136,407,199,342
2100,201,-21,1118,329,168,350
2101,211,-24,1105,253,125,376
2102,194,-46,1085,167,52,403
2103,183,-59,1082,57,-37,428
2104,178,-54,1060,-48,-94,393
2105,173,-47,1045,-140,-100,286
2106,154,-43,1049,-159,-39,196
2107,163,-10,1055,-144,56,92
2108,185,39,1059,-169,135,18
2109,196,78,1042,-251,160,22
2110,193,84,1059,-331,150,126
2111,184,91,1060,-275,64,204
2112,180,91,1044,-177,-53,196
2113,173,72,1010,-11,-143,165
2114,152,52,1009,196,-203,89
2115,140,55,971,358,-229,-15
2116,145,50,969,376,-184,-64
2117,145,37,963,258,-106,-68
2118,137,66,964,53,-63,-74
2119,134,103,962,-195,-16,-42
2120,128,113,954,-376,-37,20
2121,129,123,941,-464,-94,114
2122,125,135,918,-415,-119,130
2123,119,140,921,-169,-92,69
2124,101,126,929,100,-24,3
2125,103,75,945,303,82,-33
2126,124,78,975,389,160,-105
2127,145,70,1005,292,174,-189
2128,160,107,1001,89,121,-195
2129,155,141,1013,-181,49,-126
2130,138,145,1019,-288,15,-31
2131,160,157,1022,-220,21,46
2132,163,156,1036,-21,19,24
2133,169,152,1024,182,-24,-34
2134,154,152,1024,247,-73,-50
2135,136,138,1003,190,-67,-25
2136,137,108,1011,87,-28,57
2137,146,89,1000,-38,13,104
2138,142,88,993,-171,56,81
2139,147,95,1014,-261,90,65
2140,177,124,1028,-253,101,53
2141,183,148,1024,-222,47,-15
2142,180,168,1033,-173,-55,-3
2143,169,181,1016,-120,-145,61
2144,144,158,982,-72,-213,149
2145,137,124,948,-23,-215,247
2146,116,79,936,-5,-131,303
2147,126,44,937,7,4,247
2148,123,34,970,14,136,157
2149,123,18,975,44,232,81
2150,134,52,1019,75,252,-1
2151,166,76,1014,110,220,-74
2152,169,93,1019,67,170,-74
2153,155,106,1034,-15,80,16
2154,167,118,1013,-109,-12,75
2155,169,126,996,-140,-57,69
2156,140,127,998,-64,-71,77
2157,142,112,987,48,-35,79
2158,152,92,993,147,17,32
2159,141,84,1005,120,51,20
2160,152,80,1001,3,41,50
2161,142,81,992,-191,6,67
2162,153,95,987,-351,-12,100
2163,136,122,974,-345,25,104
2164,157,148,980,-165,54,61
2165,155,157,977,89,49,10
2166,161,155,978,303,15,-3
2167,141,114,975,354,-14,28
2168,129,89,979,333,17,75
2169,125,65,997,257,105,92
2170,142,70,996,174,177,65
2171,150,70,1007,85,183,34
2172,148,69,1012,12,140,40
2173,144,68,1018,-27,95,59
2174,144,69,1027,-38,62,57
2175,144,78,1019,-25,68,-7
2176,157,112,1023,-54,82,-58
2177,153,123,1026,-140,90,3
2178,154,107,1011,-193,58,114
2179,140,104,1005,-204,25,182
2180,137,88,1001,-118,21,157
2181,138,75,1008,-13,70,63
2182,143,78,1016,75,119,-19
2183,147,94,1032,102,131,-36
2184,156,100,1047,42,97,-1
2185,161,102,1027,-79,47,40
2186,149,98,1038,-197,-20,110
2187,136,88,1041,-210,-35,143
2188,136,81,1033,-118,-28,122
2189,137,71,1036,18,-18,61
2190,131,61,1014,110,6,7
2191,146,69,1012,104,17,-60
2192,148,98,1017,-25,13,-85
2193,150,124,1024,-161,10,-15
2194,136,116,1019,-193,4,71
2195,140,102,1009,-93,-8,89
2196,140,94,1009,65,-16,42
2197,146,74,1025,182,-22,-36
2198,136,71,1026,243,-22,-85
2199,141,79,1037,212,-20,-89
2200,149,80,1033,112,-45,-52
2201,144,88,1013,-11,-84,5
2202,140,91,999,-126,-102,46
2203,129,91,973,-191,-98,87
2204,126,84,979,-199,-49,108
2205,132,84,1004,-138,10,63
2206,138,92,1016,-15,41,-1
2207,145,103,1010,128,60,-58
2208,167,106,1006,239,33,-77
2209,147,91,1013,307,15,-56
2210,145,70,1020,360,10,-68
2211,140,58,1035,385,11,-117
2212,133,73,1063,346,11,-163
2213,149,96,1051,94,-82,-150
2214,142,84,1072,223,-14,-177
2215,142,130,1028,-64,-133,-77
2216,138,148,1007,-220,-196,50
2217,147,128,955,-240,-235,165
2218,145,121,930,-77,-235,147
2219,133,110,928,174,-162,32
2220,120,118,966,473,-39,-99
2221,132,114,993,626,97,-169
2222,135,107,1022,610,160,-173
2223,157,122,1030,395,142,-101
2224,145,108,998,91,54,10
2225,137,108,1005,-163,-30,108
2226,155,132,978,-269,-102,126
2227,132,130,974,-214,-143,122
2228,119,126,989,36,-102,57
2229,127,108,989,362,0,-54
2230,136,77,1001,612,76,-158
2231,157,78,1053,647,105,-212
2232,163,102,1062,505,94,-243
2233,190,137,1065,239,39,-208
2234,191,172,1062,-58,-30,-64
2235,167,187,1049,-224,-82,75
2236,153,194,1057,-150,-65,120
2237,171,172,1065,65,-2,102
2238,183,165,1110,317,52,46
2239,184,174,1143,591,97,-68
2240,184,173,1169,809,127,-171
2241,189,171,1222,864,140,-169
2242,210,153,1255,811,156,-93
2243,220,164,1279,686,131,-72
2244,203,171,1323,557,99,-50
2245,213,190,1358,575,82,-70
2246,213,192,1404,682,21,-140
2247,221,184,1453,803,-51,-154
2248,232,166,1522,901,-143,-142
2249,272,147,1595,962,-268,-144
2250,290,127,1667,1018,-426,-195
2251,315,128,1742,993,-580,-281
2252,322,160,1918,907,-703,-517
2253,347,226,2048,749,-522,-656
2254,367,278,2048,538,-451,-759
2255,378,322,2048,358,-615,-683
2256,372,332,2048,120,-1012,-398
2257,342,301,2048,1,-1680,-89
2258,323,269,2048,169,-2465,124
2259,315,283,2048,419,-3209,178
2260,277,243,2048,516,-4086,282
2261,208,176,2048,538,-4856,436
2262,158,141,2048,508,-5399,565
2263,121,84,1986,458,-5723,657
2264,85,54,1900,440,-5881,557
2265,38,39,1837,434,-5949,350
2266,7,64,1748,301,-6012,157
2267,-6,117,1632,-50,-6258,143
2268,-36,188,1459,-503,-6614,251
2269,-81,249,1298,-855,-6932,358
2270,-101,316,1095,-1107,-7254,450
2271,-91,414,859,-1302,-7551,493
2272,-119,480,638,-1533,-7729,594
2273,-169,464,427,-1552,-7711,788
2274,-223,447,237,-1208,-7367,966
2275,-275,337,22,-583,-6705,989
2276,-324,157,-141,301,-5723,827
2277,-291,31,-247,1260,-4625,436
2278,-238,-54,-339,1882,-3567,32
2279,-146,-79,-394,2173,-2768,-310
2280,9,-28,-457,2114,-2301,-583
2281,127,29,-520,1739,-2145,-630
2282,181,98,-532,1276,-2151,-374
2283,194,157,-540,921,-2031,-11
2284,211,186,-523,729,-1869,196
2285,250,207,-527,690,-1617,253
2286,290,218,-545,807,-1278,264
2287,331,230,-532,962,-1018,235
2288,365,207,-512,1075,-787,239
2289,393,175,-455,1132,-518,251
2290,416,156,-404,1194,-260,165
2291,470,173,-327,1255,-115,-21
2292,503,233,-216,1264,13,-269
2293,525,350,-118,1143,152,-423
2294,538,428,-32,1026,402,-439
2295,569,512,57,1010,683,-304
2296,620,508,122,1065,902,-138
2297,657,476,176,991,929,24
2298,686,446,233,772,771,229
2299,696,443,239,493,588,389
2300,668,495,265,313,535,389
2301,692,590,299,202,629,350
2302,696,715,338,128,830,358
2303,714,852,394,128,1060,389
2304,748,941,460,257,1320,376
2305,721,1065,554,567,1594,458
2306,700,1150,584,973,1758,637
2307,681,1223,642,1260,1644,913
2308,638,1237,634,1475,1373,1389
2309,610,1225,597,1610,951,1858
2310,608,1193,517,1757,715,2321
2311,616,1164,427,1829,644,2600
2312,563,1238,375,1928,648,2837
2313,462,1329,351,1944,701,3071
2314,380,1398,322,1926,711,3364
2315,296,1468,321,1950,539,3932
2316,201,1393,274,2028,410,4866
2317,91,1252,255,2255,267,5784
2318,-37,1089,243,2735,263,6403
2319,-131,885,230,3378,470,6719
2320,-131,661,184,4042,814,6823
2321,-133,419,144,4540,1240,6735
2322,-161,220,105,4762,1746,6346
2323,-257,13,123,4637,2369,5911
2324,-326,-165,128,4151,3027,5700
2325,-403,-299,153,3296,3676,5678
2326,-468,-446,212,2262,4244,5774
2327,-494,-544,299,1329,4640,5934
2328,-506,-585,395,753,4976,6034
2329,-469,-632,467,893,5213,5940
2330,-429,-795,522,1719,5170,5633
2331,-389,-989,576,2921,5103,4950
2332,-321,-1180,670,3985,5224,4020
2333,-295,-1369,845,4432,5500,3022
2334,-243,-1491,1035,4204,5918,2122
2335,-211,-1572,1243,3374,6160,1546
2336,-101,-1661,1388,2243,6095,1245
2337,55,-1666,1444,1108,5877,1085
2338,153,-1598,1410,137,5467,841
2339,183,-1509,1377,-419,4877,329
2340,135,-1362,1444,-536,4562,-324
2341,89,-1210,1541,-179,4474,-925
2342,136,-1097,1590,407,4523,-1515
2343,230,-1025,1623,846,4549,-2021
2344,301,-975,1641,993,4390,-2310
2345,284,-893,1665,768,3992,-2402
2346,213,-884,1695,411,3521,-2304
2347,140,-943,1709,196,2988,-2142
2348,112,-993,1683,65,2502,-2115
2349,44,-1050,1631,73,2144,-2335
2350,64,-1059,1613,71,1951,-2792
2351,46,-943,1648,-236,2265,-3499
2352,-24,-836,1731,-593,2724,-4054
2353,-33,-712,1791,-812,2904,-4224
2354,-34,-586,1838,-911,2844,-4290
2355,-55,-525,1881,-667,2551,-4341
2356,-48,-508,1875,-255,2086,-4450
2357,-41,-468,1906,-34,1640,-4652
2358,-59,-416,1946,46,1463,-4898
2359,-123,-384,1993,12,1320,-5079
2360,-216,-349,2035,-210,1117,-5202
2361,-310,-340,2048,-474,769,-5173
2362,-377,-367,2019,-636,246,-5083
2363,-383,-347,1877,-765,-490,-5117
2364,-364,-247,1697,-974,-1207,-5363
2365,-410,-133,1527,-949,-1731,-5683
2366,-448,-26,1403,-632,-1938,-6021
2367,-452,105,1315,-302,-1928,-6499
2368,-438,281,1269,-76,-1524,-7005
2369,-443,456,1246,-122,-893,-7298
2370,-428,644,1247,-490,-389,-7337
2371,-386,864,1252,-1117,62,-7087
2372,-305,1001,1221,-1851,197,-6423
2373,-201,1071,1153,-2640,-71,-5324
2374,-76,1080,1052,-3359,-479,-3919
2375,-50,1098,928,-3732,-754,-2939
2376,-93,1091,868,-3673,-707,-2429
2377,-72,1140,875,-3046,-367,-2357
2378,-46,1240,903,-1966,347,-2611
2379,-20,1311,977,-601,1037,-2906
2380,-2,1267,1027,514,1334,-2939
2381,7,1208,1071,989,1385,-2613
2382,30,1113,1108,936,1185,-2056
2383,83,991,1105,540,625,-1411
2384,69,840,1064,-87,-176,-755
2385,8,745,993,-605,-746,-240
2386,-44,683,932,-673,-948,-40
2387,-67,652,899,-408,-944,-9
2388,-78,598,889,77,-750,-142
2389,-84,578,889,647,-367,-394
2390,-61,562,908,1026,70,-564
2391,-15,519,918,1016,353,-490
2392,34,429,944,639,467,-146
2393,70,343,967,159,427,225
2394,70,247,965,-361,228,577
2395,72,168,1019,-820,115,848
2396,83,140,1076,-900,113,915
2397,137,133,1094,-326,113,796
2398,151,126,1095,497,84,419
2399,145,114,1104,1081,95,24
2400,154,116,1097,1208,101,-33
2401,154,88,1071,1020,94,239
2402,142,21,1078,688,23,604
2403,138,-55,1049,272,-49,848
2404,123,-100,1023,-105,-47,915
2405,128,-98,1039,-367,29,874
2406,116,-111,1064,-400,177,774
2407,104,-96,1087,-255,254,591
2408,121,-108,1090,1,240,444
2409,140,-98,1090,192,201,317
2410,134,-90,1070,278,84,217
2411,117,-54,1042,280,-90,157
2412,113,-52,1013,216,-235,165
2413,103,-36,999,190,-328,157
2414,103,-34,963,182,-334,108
2415,108,-19,952,174,-283,67
2416,99,-4,936,112,-172,50
2417,117,14,937,42,-28,42
2418,106,50,954,3,150,12
2419,125,53,999,73,277,-5
2420,134,74,1044,165,338,24
2421,130,68,1081,217,295,44
2422,124,41,1083,217,135,108
2423,107,0,1092,91,-59,231
2424,82,-36,1093,-36,-207,337
2425,72,-71,1076,-70,-307,325
2426,75,-80,1061,-50,-362,217
2427,86,-76,1017,-56,-371,96
2428,90,-76,986,-136,-338,14
2429,84,-71,961,-273,-268,5
2430,81,-64,936,-441,-170,26
2431,86,-50,980,-560,-26,12
2432,108,-13,1000,-611,113,-38
2433,124,23,1004,-560,133,-93
2434,147,49,1006,-404,70,-111
2435,160,62,994,-189,-30,-117
2436,130,29,975,38,-112,-85
2437,119,-2,980,194,-104,-83
2438,115,8,985,239,-16,-138
2439,129,6,1009,182,56,-199
2440,130,35,1015,112,94,-212
2441,128,55,1043,-31,111,-152
2442,126,61,1018,-132,107,-70
2443,126,56,1023,-199,74,-5
2444,124,51,1034,-236,25,59
2445,108,51,1020,-165,-16,71
2446,100,46,999,-11,-16,48
2447,103,34,1018,176,0,-5
2448,101,24,1008,296,8,-74
2449,102,20,1019,245,27,-107
2450,101,20,1024,55,25,-79
2451,113,22,1007,-134,31,-33
2452,113,49,1002,-296,15,-7
2453,103,64,995,-324,29,71
2454,105,66,983,-234,76,104
2455,117,62,1001,-48,125,69
2456,106,49,1037,196,123,20
2457,99,36,1039,339,84,-5
2458,102,10,1020,339,54,5
2459,111,-5,1015,208,41,57
2460,104,-5,1012,59,27,108
2461,92,-27,1012,-31,43,79
2462,86,-17,1019,-50,70,3
2463,96,-5,1023,-93,92,-50
2464,107,17,1029,-150,68,-72
2465,117,40,1033,-163,35,-87
2466,126,55,1012,-138,-10,-75
2467,131,80,973,-76,-30,-33
2468,118,83,966,59,-10,-3
2469,101,69,957,208,49,-9
2470,104,51,981,282,123,-36
2471,108,24,1006,260,217,-40
2472,121,19,1036,128,263,-33
2473,128,48,1072,-74,250,10
2474,128,62,1055,-220,211,83
2475,121,64,1039,-218,144,157
2476,111,56,1025,-93,70,192
2477,104,36,1025,110,11,139
2478,92,5,1034,290,-16,48
2479,91,-11,1017,337,-14,-21
2480,93,-14,1037,225,11,-58
2481,99,-4,1037,36,35,-68
2482,106,10,1052,-134,51,-50
2483,109,55,1036,-257,64,-44
2484,102,62,1024,-302,62,10
2485,119,59,1024,-216,35,100
2486,111,61,1008,-95,15,132
2487,108,62,1003,40,25,114
2488,103,58,1011,214,31,75
2489,99,50,1007,321,35,34
2490,101,21,1020,346,27,20
2491,78,-9,1024,268,35,55
2492,89,-27,1007,100,49,83
2493,90,-37,1019,-97,51,89
2494,83,-27,1048,-242,84,63
2495,89,6,1053,-286,125,12
2496,109,45,1072,-255,121,-9
2497,136,75,1069,-130,62,-23
2498,138,101,1063,5,-69,-58
2499,121,94,1021,120,-215,22
2500,99,63,990,198,-260,135
2501,91,32,982,229,-209,126
2502,75,0,988,165,-102,85
2503,77,-10,991,63,31,61
2504,73,-6,1012,-70,123,26
2505,96,-6,1034,-167,129,16
2506,108,1,1026,-208,62,14
2507,100,17,1012,-202,-6,-3
2508,87,47,1034,-99,-6,-38
2509,99,45,1038,137,17,-62
2510,110,49,1051,315,-22,-75
2511,115,35,1043,323,-76,-89
2512,110,19,1020,180,-115,-64
2513,109,14,1012,22,-90,3
2514,103,16,994,-103,-39,69
2515,100,20,1005,-167,4,110
2516,93,24,1020,-140,72,92
2517,104,16,1016,-58,111,18
2518,95,13,1038,8,121,-31
2519,89,2,1048,77,92,-36
2520,101,-11,1049,135,51,-58
2521,105,-17,1059,186,-4,-103
2522,112,-3,1052,219,-41,-156
2523,135,-6,1048,241,-20,-197
2524,135,19,1080,247,27,-220
2525,142,53,1102,219,80,-220
2526,166,81,1112,180,97,-185
2527,174,92,1143,184,94,-138
2528,186,110,1163,278,113,-91
2529,194,84,1204,471,146,-72
2530,221,42,1290,686,209,-52
2531,243,-34,1421,712,209,-118
2532,249,-58,1575,591,306,-283
2533,246,-28,1731,229,424,-452
2534,298,43,1857,-265,386,-345
2535,321,75,1919,-595,168,-85
2536,298,77,1962,-566,-246,122
2537,320,72,1993,-275,-674,167
2538,297,58,2034,233,-1084,44
2539,246,30,2048,766,-1553,-120
2540,213,-24,2048,1083,-1955,-165
2541,163,-85,2048,1106,-2323,-66
2542,158,-122,2000,841,-2735,71
2543,144,-185,1924,423,-3108,135
2544,117,-186,1859,38,-3426,57
2545,78,-167,1773,-247,-3645,-38
2546,65,-153,1693,-437,-3791,-130
2547,30,-129,1611,-511,-3977,-238
2548,14,-83,1536,-493,-4141,-406
2549,-2,-57,1422,-433,-4336,-536
2550,3,-5,1275,-411,-4594,-566
2551,8,75,1085,-505,-4918,-613
2552,7,163,843,-671,-5272,-708
2553,12,283,571,-923,-5555,-779
2554,-41,379,294,-1093,-5444,-665
2555,-52,485,37,-1089,-4942,-476
2556,-43,529,-175,-906,-4348,-230
2557,-34,519,-256,-564,-3467,108
2558,-41,459,-261,16,-2489,303
2559,-29,381,-178,669,-1612,339
2560,2,298,-135,1178,-1014,296
2561,82,228,-109,1471,-686,260
2562,163,181,-56,1637,-676,229
2563,182,159,-42,1676,-791,165
2564,183,159,-30,1591,-895,169
2565,195,145,-1,1423,-918,251
2566,210,121,33,1311,-740,294
2567,246,128,130,1268,-426,231
2568,287,144,241,1184,-51,100
2569,319,175,405,1126,224,22
2570,355,257,548,1012,504,-113
2571,386,360,673,776,711,-200
2572,452,442,740,464,756,-91
2573,506,485,809,253,625,139
2574,563,552,809,214,263,368
2575,576,576,794,223,-127,614
2576,555,598,777,202,-440,829
2577,507,636,776,241,-549,989
2578,492,676,754,284,-489,1137
2579,480,696,734,268,-362,1300
2580,448,694,716,233,-168,1469
2581,431,700,706,186,29,1669
2582,457,729,717,79,177,1852
2583,452,760,706,-134,236,2032
2584,442,777,715,-296,246,2237
2585,416,810,711,-396,199,2462
2586,384,833,690,-470,113,2729
2587,361,834,661,-484,-35,3057
2588,291,801,625,-368,-172,3405
2589,240,735,599,-56,-199,3737
2590,225,651,566,397,-65,3960
2591,211,542,515,811,78,4085
2592,149,425,490,1145,138,4196
2593,86,320,461,1432,224,4262
2594,20,217,416,1665,345,4311
2595,-60,78,391,1885,488,4374
2596,-124,-79,346,2147,683,4421
2597,-181,-212,327,2436,855,4466
2598,-171,-327,296,2768,1158,4341
2599,-136,-420,307,3051,1638,3944
2600,-121,-545,332,3139,2281,3567
2601,-115,-585,376,2852,2941,3407
2602,-140,-742,463,2233,3316,3430
2603,-155,-881,527,1528,3517,3753
2604,-179,-1059,611,868,3486,4089
2605,-169,-1248,704,739,3301,4346
2606,-100,-1485,779,1360,3127,4206
2607,-94,-1601,936,2399,3285,3264
2608,-87,-1711,1174,3321,3849,1842
2609,-68,-1742,1486,3827,4646,294
2610,35,-1725,1738,3647,5074,-1062
2611,217,-1634,1846,2682,4851,-1851
2612,326,-1485,1800,1174,3857,-2101
2613,287,-1288,1756,-335,2453,-2089
2614,190,-1152,1699,-1386,1422,-2042
2615,104,-998,1639,-1790,1017,-2158
2616,105,-874,1567,-1550,988,-2505
2617,116,-774,1446,-1017,1013,-2906
2618,131,-722,1354,-460,896,-3245
2619,126,-678,1302,-124,789,-3493
2620,77,-613,1283,-179,898,-3773
2621,32,-534,1312,-421,1090,-3949
2622,0,-419,1349,-734,1373,-4015
2623,-9,-325,1370,-999,1592,-4056
2624,6,-232,1423,-1171,1687,-4021
2625,8,-141,1457,-1277,1676,-3945
2626,22,-61,1472,-1259,1498,-3904
2627,31,16,1503,-1214,1326,-3896
2628,22,85,1484,-1138,1086,-3820
2629,25,120,1465,-906,867,-3812
2630,9,216,1471,-745,736,-3929
2631,5,241,1468,-581,617,-3986
2632,28,297,1511,-451,515,-4034
2633,30,426,1556,-548,603,-4115
2634,16,516,1582,-829,707,-4062
2635,45,593,1615,-993,738,-3829
2636,69,710,1629,-1070,652,-3544
2637,83,785,1587,-1109,379,-3228
2638,83,796,1519,-1064,-139,-2697
2639,35,731,1385,-945,-778,-2259
2640,-32,662,1268,-732,-1283,-1990
2641,-45,601,1105,-486,-1578,-1853
2642,-30,556,965,-255,-1666,-1831
2643,-6,560,850,-140,-1580,-1855
2644,27,606,783,-95,-1194,-1847
2645,0,651,750,-154,-715,-1896
2646,-35,654,805,-294,-196,-1751
2647,-34,617,904,-460,248,-1374
2648,23,563,969,-556,633,-958
2649,103,499,994,-661,695,-718
2650,164,441,964,-640,412,-581
2651,169,410,956,-347,13,-534
2652,161,417,938,153,-254,-617
2653,132,397,913,764,-311,-730
2654,92,379,910,1114,-209,-794
2655,106,371,930,1102,29,-740
2656,144,373,903,696,271,-560
2657,168,379,873,137,371,-283
2658,170,352,890,-283,326,38
2659,170,342,904,-339,258,239
2660,157,290,915,-132,189,294
2661,136,253,950,227,191,264
2662,113,208,979,575,238,221
2663,107,143,1021,850,207,239
2664,95,80,1039,921,146,294
2665,107,18,1038,864,131,337
2666,106,-35,1040,735,148,315
2667,99,-53,1043,565,203,225
2668,120,-31,1034,382,246,98
2669,137,3,1038,153,246,26
2670,127,37,1021,-81,189,69
2671,134,64,1012,-238,142,190
2672,132,75,998,-304,101,329
2673,118,56,990,-238,86,415
2674,99,15,994,-13,111,397
2675,84,-12,1002,292,187,315
2676,79,-50,1040,565,285,221
2677,96,-72,1071,706,289,128
2678,128,-55,1082,632,230,3
2679,129,-31,1085,438,135,-79
2680,116,3,1074,229,51,-68
2681,83,33,1078,89,21,-29
2682,86,50,1056,30,68,-11
2683,94,36,1035,32,125,-3
2684,109,35,1004,51,146,7
2685,149,62,1028,26,154,-34
2686,152,91,1003,-74,168,-62
2687,129,98,1021,-173,140,32
2688,127,79,1032,-171,99,167
2689,124,48,1008,-111,47,208
2690,126,32,1024,-33,-2,157
2691,111,9,1046,20,-28,100
2692,115,-11,1023,8,-45,57
2693,107,-12,1020,-93,-65,26
2694,94,2,1015,-251,-69,24
2695,95,31,999,-347,-108,40
2696,113,44,979,-267,-168,18
2697,102,49,975,-89,-209,-34
2698,121,63,943,87,-211,-79
2699,119,81,931,165,-155,-113
2700,99,84,971,202,-73,-74
2701,85,91,977,214,29,5
2702,100,69,1003,225,97,32
2703,103,45,1012,235,135,3
2704,92,39,1040,120,142,-25
2705,99,27,1049,-74,133,22
2706,102,25,1041,-238,76,71
2707,110,29,1032,-277,15,83
2708,104,60,1060,-197,-35,-7
2709,111,84,1034,-85,-35,-95
2710,112,108,1029,-36,-20,-81
2711,118,103,1023,-50,-35,-21
2712,118,111,1002,-111,-57,36
2713,106,92,982,-173,-82,87
2714,108,62,991,-234,-82,149
2715,110,40,970,-243,-57,190
2716,89,29,974,-197,-4,126
2717,79,22,996,-113,90,12
2718,62,19,1059,-76,197,-93
2719,88,34,1110,-132,275,-144
2720,104,46,1152,-242,279,-161
2721,113,51,1157,-349,150,-126
2722,145,80,1148,-447,-10,-23
2723,143,99,1095,-519,-180,57
2724,141,91,1054,-544,-369,135
2725,122,90,1019,-466,-451,192
2726,101,85,969,-304,-446,151
2727,99,64,954,-77,-408,92
2728,112,45,921,145,-321,28
2729,100,19,936,288,-192,-42
2730,109,26,948,309,-18,-75
2731,121,39,960,182,156,-44
2732,138,51,993,-3,240,38
2733,148,61,1028,-161,189,110
2734,149,70,1013,-202,52,126
2735,128,69,1000,-93,-88,153
2736,112,48,984,124,-184,171
2737,104,22,984,354,-211,139
2738,95,-15,967,505,-182,81
2739,92,-29,983,520,-115,26
2740,85,-48,1016,405,-16,-34
2741,89,-30,1027,235,76,-89
2742,127,-9,1041,24,133,-130
2743,135,37,1034,-152,135,-130
2744,130,59,1060,-263,70,-68
2745,122,78,1043,-261,-31,7
2746,119,75,1036,-154,-131,28
2747,107,50,1009,20,-201,10
2748,107,43,1007,194,-203,-46
2749,124,19,1003,337,-164,-101
2750,120,15,999,380,-121,-128
2751,118,10,993,309,-80,-144
2752,130,37,986,139,-41,-148
2753,138,69,974,-115,-14,-97
2754,135,97,979,-320,39,34
2755,136,122,996,-353,97,126
2756,126,109,1003,-208,119,141
2757,134,83,1025,51,107,124
2758,134,53,1042,266,58,79
2759,119,23,1064,356,6,46
2760,106,1,1062,309,-35,32
2761,103,5,1050,163,-47,38
2762,113,-9,1041,-29,-43,55
2763,115,20,1030,-206,-43,71
2764,107,33,1003,-335,-76,83
2765,119,50,949,-363,-110,118
2766,113,50,951,-277,-82,92
2767,101,53,937,-111,-12,44
2768,102,66,943,53,84,-5
2769,114,66,988,196,170,-46
2770,131,69,1032,296,213,-93
2771,129,64,1053,325,199,-81
2772,129,62,1077,290,166,-33
2773,142,51,1074,153,86,26
2774,137,37,1058,-36,-55,122
2775,107,34,1030,-150,-158,178
2776,100,24,1006,-161,-207,165
2777,95,18,982,-91,-176,106
2778,98,12,970,-36,-110,34
2779,109,31,961,22,-28,-11
2780,124,38,970,48,33,-25
2781,121,31,972,48,76,-25
2782,124,46,997,26,115,-36
2783,128,71,1003,-15,129,-48
2784,140,92,1012,-50,123,-38
2785,138,109,1019,-83,90,-15
2786,130,127,1008,-103,72,34
2787,123,107,1008,-58,60,118
2788,108,76,1030,77,43,157
2789,111,55,1024,239,45,128
2790,110,21,1021,325,52,50
2791,100,18,1031,346,76,-34
2792,100,30,1046,286,135,-72
2793,124,59,1067,153,187,-75
2794,123,85,1068,12,179,-56
2795,142,103,1072,-122,123,65
2796,150,100,1058,-111,27,186
2797,154,80,1044,7,-76,204
2798,128,85,1019,122,-135,147
2799,118,82,1001,237,-108,114
2800,120,55,1015,348,-30,122
2801,121,14,1010,479,29,135
2802,132,-17,1022,592,92,92
2803,119,-24,1095,686,199,-60
2804,145,-8,1153,762,342,-226
2805,168,32,1249,848,467,-365
2806,209,85,1346,1046,552,-542
2807,247,141,1468,1255,621,-700
2808,272,176,1597,1370,629,-751
2809,266,219,1747,1299,539,-665
2810,280,160,1864,1001,256,-464
2811,223,109,2005,655,-96,-152
2812,222,-2,2048,298,-406,161
2813,244,-39,2048,16,-752,278
2814,283,-54,2048,67,-1139,141
2815,242,-26,2048,430,-1473,-296
2816,216,46,2048,911,-1705,-794
2817,229,81,2048,1266,-1887,-1025
2818,253,172,2048,1475,-2162,-1013
2819,257,241,2048,1440,-2621,-982
2820,234,290,2048,1274,-3229,-913
2821,214,347,2048,1020,-3795,-814
2822,149,374,2048,807,-4393,-689
2823,93,364,1964,518,-5127,-421
2824,45,350,1696,34,-5795,-105
2825,-12,345,1372,-523,-6457,192
2826,-71,363,1022,-1117,-7088,432
2827,-181,377,668,-1615,-7379,624
2828,-265,357,340,-1659,-7190,848
2829,-314,259,20,-1218,-6549,944
2830,-340,160,-171,-384,-5428,735
2831,-315,71,-318,655,-4235,311
2832,-272,12,-327,1612,-3254,-66
2833,-173,-21,-337,2153,-2381,-368
2834,-61,32,-297,2317,-1891,-570
2835,60,94,-281,2081,-1676,-671
2836,87,162,-210,1633,-1580,-562
2837,113,200,-176,1163,-1406,-324
2838,164,190,-142,860,-1244,-38
2839,224,174,-105,741,-1198,188
2840,247,186,-35,700,-1141,251
2841,248,219,34,780,-1057,182
2842,265,312,106,956,-942,-3
2843,319,447,171,1091,-649,-185
2844,376,577,202,1008,-291,-218
2845,469,701,251,760,-125,-11
2846,525,771,324,526,11,360
2847,568,866,413,356,103,680
2848,545,936,494,321,41,913
2849,529,959,625,409,-30,1175
2850,507,956,696,620,-8,1532
2851,512,946,725,712,-59,1864
2852,512,937,731,612,-270,2098
2853,522,969,653,436,-612,2268
2854,462,1013,528,147,-1008,2532
2855,388,1017,403,-193,-1455,2975
2856,341,1005,297,-493,-1744,3546
2857,277,954,164,-556,-1819,4030
2858,199,870,82,-269,-1670,4319
2859,125,796,-2,423,-1153,4288
2860,60,688,-40,1278,-504,4034
2861,-29,579,-38,2126,224,3782
2862,-66,469,-24,2833,978,3671
2863,-87,345,-11,3260,1724,3647
2864,-124,177,42,3368,2336,3661
2865,-123,23,122,3241,2771,3749
2866,-132,-84,168,2913,3113,3821
2867,-142,-200,237,2374,3433,3936
2868,-182,-293,321,1889,3631,4098
2869,-154,-402,401,1524,3691,4264
2870,-129,-496,482,1374,3638,4444
2871,-94,-645,570,1657,3463,4503
2872,-77,-831,660,2337,3271,4233
2873,-72,-1017,750,2858,3226,3579
2874,-60,-1204,839,2868,3328,2991
2875,-21,-1366,887,2364,3545,2575
2876,25,-1472,963,1510,3908,2206
2877,73,-1538,1089,575,4287,1747
2878,142,-1530,1268,-111,4597,1155
2879,228,-1463,1391,-433,4683,546
2880,316,-1398,1497,-527,4408,-11
2881,339,-1296,1528,-460,3937,-517
2882,349,-1197,1525,-306,3291,-1001
2883,299,-1159,1563,-23,2771,-1515
2884,277,-1060,1633,282,2582,-2085
2885,279,-967,1703,411,2765,-2620
2886,285,-897,1732,229,2931,-2941
2887,333,-800,1787,-257,2900,-3087
2888,345,-733,1814,-808,2648,-3091
2889,353,-692,1849,-1144,2179,-3077
2890,335,-585,1899,-1195,1654,-3218
2891,238,-517,1888,-962,1103,-3429
2892,177,-483,1842,-544,656,-3685
2893,152,-439,1784,-156,340,-3999
2894,131,-381,1712,-36,201,-4372
2895,92,-293,1670,-284,138,-4642
2896,20,-186,1623,-759,64,-4656
2897,-20,-108,1573,-1165,-35,-4427
2898,-46,-50,1499,-1411,-59,-4240
2899,-25,51,1403,-1574,-2,-4232
2900,-3,149,1366,-1665,154,-4339
2901,-16,314,1334,-1697,447,-4536
2902,-15,440,1311,-1617,687,-4568
2903,-27,552,1264,-1519,900,-4380
2904,-25,610,1223,-1349,970,-4050
2905,-4,613,1219,-1062,892,-3716
2906,21,595,1235,-751,648,-3564
2907,45,644,1243,-540,451,-3533
2908,77,679,1217,-482,254,-3505
2909,74,768,1212,-449,172,-3337
2910,62,816,1215,-326,129,-3109
2911,52,843,1238,-144,52,-2947
2912,61,865,1213,71,-4,-2769
2913,57,832,1213,194,-209,-2464
2914,73,818,1182,173,-584,-2130
2915,78,842,1101,20,-850,-1863
2916,63,841,1013,-159,-975,-1642
2917,48,821,967,-296,-1086,-1308
2918,42,811,915,-404,-1092,-1003
2919,47,795,845,-474,-996,-829
2920,22,761,827,-460,-819,-728
2921,21,737,781,-339,-557,-611
2922,41,720,777,-187,-319,-529
2923,43,693,804,-52,-143,-458
2924,47,657,811,46,-12,-284
2925,77,608,818,132,70,-56
2926,118,556,822,260,13,128
2927,127,496,825,452,-151,251
2928,106,420,824,665,-326,372
2929,86,346,850,909,-408,528
2930,99,242,864,1092,-336,620
2931,101,185,898,1169,-164,571
2932,113,140,927,1087,127,423
2933,144,124,979,774,470,282
2934,185,99,1014,296,670,300
2935,226,86,1038,-226,668,501
2936,222,87,1076,-720,558,696
2937,216,97,1085,-1050,412,833
2938,217,77,1086,-1124,211,948
2939,198,63,1081,-949,47,950
2940,186,39,1055,-591,-53,805
2941,193,22,1046,-175,-114,643
2942,187,-23,1016,237,-100,491
2943,181,-35,999,551,-20,321
2944,177,-61,1000,702,136,171
2945,192,-47,1024,651,349,44
2946,201,-24,1073,415,482,-5
2947,223,-7,1068,102,467,50
2948,223,35,1097,-140,347,89
2949,200,33,1099,-265,185,108
2950,193,37,1110,-230,43,124
2951,197,43,1109,-138,-24,126
2952,211,46,1073,-50,-63,96
2953,216,47,1076,8,-73,38
2954,207,70,1059,-5,-86,1
2955,212,91,1059,-103,-129,22
2956,199,83,1027,-242,-203,114
2957,184,65,1012,-238,-254,188
2958,157,42,1015,-150,-221,175
2959,153,30,1017,-23,-119,85
2960,171,32,1032,42,-12,-17
2961,180,45,1020,3,60,-54
2962,185,53,1020,-93,31,-74
2963,194,60,1015,-222,-76,-44
2964,186,89,998,-345,-158,10
2965,175,104,973,-318,-229,32
2966,162,95,945,-181,-280,3
2967,168,101,977,8,-217,-87
2968,167,101,978,157,-119,-199
2969,185,114,999,194,-82,-230
2970,184,136,1017,145,-90,-195
2971,186,128,1008,26,-135,-152
2972,185,123,1007,-58,-174,-75
2973,189,126,985,-109,-151,-21
2974,188,110,982,-148,-117,7
2975,185,104,970,-159,-67,26
2976,193,110,977,-140,-35,10
2977,183,130,988,-85,-35,-17
2978,194,132,962,-19,-57,-11
2979,185,124,942,34,-71,22
2980,175,101,920,63,-63,63
2981,166,85,922,44,-43,87
2982,161,90,936,26,0,79
2983,151,84,953,-23,51,71
2984,155,63,984,-74,133,36
2985,157,62,999,-130,215,-11
2986,189,95,1047,-183,219,-11
2987,196,124,1043,-154,160,-23
2988,203,130,1017,-81,47,-66
2989,205,137,1031,-29,-74,-79
2990,180,124,963,-21,-198,18
2991,191,132,984,8,-166,-31
2992,162,114,967,-77,-196,44
2993,159,114,948,-156,-155,69
2994,159,106,959,-201,-90,102
2995,163,102,951,-120,-6,100
2996,170,107,935,20,99,40
2997,175,119,972,132,220,-38
2998,192,106,982,135,277,-15
2999,195,118,996,24,261,44
3000,205,122,1020,-156,215,100
3001,196,116,996,-275,189,182
3002,199,119,989,-273,133,217
3003,200,114,1005,-144,95,208
3004,189,94,1015,81,37,153
3005,189,75,988,245,15,87
3006,175,54,980,286,33,69
3007,159,21,973,210,60,77
3008,157,28,979,61,68,65
3009,153,25,988,-79,99,46
3010,148,29,997,-144,146,3
3011,155,55,1019,-107,189,-62
3012,185,76,1014,-9,240,-144
3013,196,116,1035,48,244,-189
3014,184,131,1036,16,181,-126
3015,185,129,1006,-70,97,10
3016,185,134,1009,-91,21,85
3017,188,130,993,-62,11,89
3018,170,125,977,40,25,63
3019,168,93,978,139,80,46
3020,166,65,956,204,158,14
3021,165,41,1004,176,228,-31
3022,167,42,1033,73,260,-68
3023,160,55,1066,-38,240,-81
3024,170,75,1083,-130,185,-83
3025,163,84,1075,-169,121,-97
3026,166,104,1083,-158,62,-74
3027,198,114,1071,-70,25,-17
3028,189,109,1069,49,-18,10
3029,180,85,1079,108,-35,32
3030,164,62,1079,126,6,44
3031,154,55,1082,145,84,34
3032,147,35,1096,202,160,44
3033,171,42,1132,257,238,75
3034,204,43,1165,317,271,32
3035,218,52,1164,372,238,-128
3036,214,75,1184,374,121,-169
3037,215,124,1196,411,15,-154
3038,249,139,1199,505,6,-118
3039,271,153,1210,686,-2,-117
3040,281,158,1264,850,72,-230
3041,269,158,1363,883,177,-392
3042,260,146,1502,747,431,-411
3043,282,139,1696,514,750,-382
3044,352,151,1870,67,883,-275
3045,416,157,2023,-458,679,-70
3046,486,194,2048,-902,123,182
3047,496,257,2048,-954,-840,364
3048,424,234,2048,-679,-1881,385
3049,328,199,2048,51,-2977,333
3050,259,127,2048,891,-3729,217
3051,209,50,2013,1442,-4102,124
3052,154,-35,1957,1432,-4274,7
3053,141,-79,1825,1079,-4328,53
3054,160,-102,1714,477,-4420,89
3055,140,-79,1632,-60,-4524,48
3056,122,-30,1549,-284,-4479,-87
3057,106,26,1495,-197,-4371,-218
3058,102,81,1447,14,-4301,-367
3059,103,115,1405,198,-4281,-468
3060,84,114,1316,198,-4285,-470
3061,76,121,1233,-27,-4422,-335
3062,96,141,1110,-441,-4664,-232
3063,95,239,922,-980,-4963,-191
3064,116,355,685,-1585,-5256,-142
3065,74,438,464,-2187,-5448,-89
3066,44,534,243,-2593,-5668,102
3067,0,578,10,-2618,-5637,397
3068,-32,557,-224,-2068,-5198,514
3069,-65,484,-401,-919,-4504,428
3070,-52,432,-503,508,-3559,231
3071,-18,348,-509,1716,-2586,28
3072,30,204,-460,2505,-1678,-115
3073,111,109,-386,2839,-1074,-228
3074,212,62,-309,2686,-744,-275
3075,277,48,-257,2124,-535,-216
3076,265,61,-185,1366,-408,-29
3077,297,77,-141,733,-311,210
3078,332,117,-124,323,-180,360
3079,381,143,-71,133,-69,419
3080,408,235,-18,143,41,364
3081,414,334,66,235,195,290
3082,450,388,140,417,443,247
3083,535,461,210,589,636,311
3084,603,535,307,645,750,446
3085,661,631,406,632,783,565
3086,703,749,504,589,842,686
3087,712,817,608,661,922,876
3088,688,860,691,872,918,1108
3089,680,845,732,1116,832,1303
3090,659,811,738,1284,730,1423
3091,630,747,717,1311,594,1526
3092,613,671,686,1094,449,1673
3093,570,693,677,667,359,1766
3094,512,790,696,219,461,1882
3095,485,873,725,-40,668,2266
3096,494,917,735,-185,744,2774
3097,498,886,739,-240,703,3202
3098,474,836,719,-212,506,3575
3099,390,767,690,-87,289,3821
3100,367,686,640,165,160,3962
3101,336,606,603,553,82,4118
3102,284,496,561,962,8,4165
3103,227,406,570,1268,10,4202
3104,176,285,548,1493,140,4229
3105,124,168,525,1653,312,4282
3106,103,58,489,1729,467,4331
3107,86,8,403,1673,697,4350
3108,56,-37,319,1516,847,4469
3109,21,-95,278,1387,795,4616
3110,-15,-187,221,1473,787,4700
3111,-69,-332,173,1678,834,4747
3112,-97,-474,121,1841,1052,4708
3113,-89,-567,86,1798,1521,4555
3114,-179,-689,89,1665,2115,4485
3115,-259,-829,161,1649,2734,4335
3116,-292,-936,239,1923,3355,3997
3117,-238,-1120,355,2514,4002,3538
3118,-164,-1326,555,3034,4697,3067
3119,-123,-1504,763,3299,5289,2561
3120,-69,-1589,1008,3296,5732,1893
3121,-61,-1671,1273,2975,5969,1069
3122,23,-1738,1522,2520,5967,360
3123,165,-1689,1616,1977,5615,-195
3124,323,-1602,1575,1255,4685,-749
3125,328,-1443,1553,389,3439,-1294
3126,218,-1308,1541,-326,2363,-1740
3127,99,-1181,1480,-531,1705,-1964
3128,70,-1111,1427,-310,1541,-2126
3129,123,-1058,1387,126,1726,-2392
3130,125,-1008,1379,507,2049,-2824
3131,91,-946,1412,633,2371,-3361
3132,79,-877,1478,557,2513,-3829
3133,76,-770,1528,257,2660,-4144
3134,109,-651,1569,-171,2613,-4368
3135,119,-506,1600,-710,2351,-4439
3136,117,-356,1641,-1173,2094,-4394
3137,74,-228,1676,-1247,1957,-4347
3138,53,-121,1683,-855,1861,-4384
3139,32,-52,1673,-286,1652,-4490
3140,8,-29,1631,231,1345,-4531
3141,38,10,1604,587,1029,-4618
3142,42,114,1566,505,918,-4851
3143,-1,189,1550,10,927,-4929
3144,-37,246,1544,-576,927,-4638
3145,-23,350,1532,-1081,916,-4240
3146,-13,401,1510,-1367,769,-3923
3147,4,440,1481,-1363,478,-3710
3148,33,508,1461,-1169,301,-3658
3149,7,612,1440,-992,293,-3790
3150,-22,625,1393,-810,211,-3659
3151,6,638,1341,-599,-49,-3259
3152,25,669,1260,-437,-244,-2976
3153,2,665,1192,-261,-340,-2851
3154,18,653,1125,7,-444,-2702
3155,44,677,1047,243,-492,-2597
3156,52,724,992,452,-406,-2609
3157,32,723,960,647,-324,-2493
3158,32,712,954,796,-225,-2288
3159,27,727,953,882,-22,-2159
3160,9,714,968,876,135,-1988
3161,18,674,951,743,160,-1671
3162,27,614,960,622,78,-1314
3163,41,541,929,669,-88,-1068
3164,69,524,957,792,-229,-1036
3165,56,517,973,831,-184,-1163
3166,74,537,988,655,-94,-1138
3167,104,536,986,262,-92,-804
3168,105,516,954,-212,-149,-398
3169,82,494,932,-519,-258,-77
3170,61,443,899,-490,-313,92
3171,67,393,882,-191,-221,145
3172,82,341,854,155,-57,141
3173,89,293,900,454,136,79
3174,105,265,960,655,332,-46
3175,118,253,1020,676,486,-132
3176,143,253,1052,497,539,-81
3177,178,247,1063,217,445,104
3178,175,232,1065,16,185,290
3179,137,194,1072,-91,-53,401
3180,141,163,1046,-103,-149,450
3181,144,140,1017,-81,-168,442
3182,144,117,1001,-36,-162,415
3183,120,88,1022,-5,-114,368
3184,133,101,1013,42,-16,311
3185,132,90,979,96,82,300
3186,118,83,993,132,125,282
3187,107,75,1001,180,181,247
3188,140,68,1045,268,281,161
3189,119,71,1018,266,256,208
3190,159,89,1045,149,252,145
3191,173,117,1073,-27,158,175
3192,167,147,1055,-142,58,239
3193,166,160,1040,-187,-51,290
3194,135,143,1008,-165,-117,329
3195,115,121,965,-97,-135,364
3196,100,99,967,-31,-98,382
3197,111,76,952,32,-18,372
3198,107,88,961,63,94,294
3199,107,68,1009,-9,189,221
3200,96,81,1021,-109,244,225
3201,108,72,1035,-161,211,274
3202,121,62,1034,-93,117,286
3203,120,53,1018,63,15,196
3204,126,70,1023,155,-12,55
3205,122,74,1007,132,17,-31
3206,116,84,1032,16,19,7
3207,116,112,1002,-115,13,61
3208,125,137,1025,-197,25,67
3209,119,133,1002,-185,-6,89
3210,123,128,974,-109,-53,157
3211,124,92,963,1,-74,196
3212,109,68,942,102,-53,157
3213,110,58,978,192,15,83
3214,108,63,987,214,72,38
3215,111,49,1002,176,115,10
3216,105,53,1025,126,138,-36
3217,119,75,1042,24,133,-38
3218,124,86,1043,-124,99,-9
3219,137,106,1020,-271,41,57
3220,132,89,1012,-314,-26,114
3221,125,106,1000,-238,-49,75
3222,125,119,1003,-91,-39,-23
3223,122,119,1025,71,-6,-93
3224,116,117,1023,161,37,-101
3225,128,111,1052,196,70,-77
3226,120,84,1041,155,45,-56
3227,119,70,1020,63,-8,-40
3228,119,84,1025,-64,-28,-31
3229,124,82,1018,-202,-18,-15
3230,112,112,1027,-333,-14,-9
3231,120,128,1033,-396,-10,1
3232,121,155,1035,-294,-39,20
3233,117,152,1009,-81,-96,5
3234,103,138,999,118,-123,-40
3235,95,103,983,258,-84,-75
3236,117,103,1004,299,10,-79
3237,137,93,1021,204,39,-52
3238,135,104,1009,22,13,-33
3239,134,107,1016,-177,-2,-19
3240,116,116,1013,-296,-12,10
3241,112,127,1027,-345,-30,36
3242,109,115,1011,-347,-51,53
3243,95,116,1017,-283,-76,44
3244,112,104,1008,-179,-90,3
3245,114,119,993,-23,-102,-66
3246,121,126,991,108,-96,-107
3247,118,126,984,176,-51,-83
3248,120,118,991,178,-16,-58
3249,116,99,994,116,-26,-17
3250,129,97,994,24,-39,18
3251,129,92,1000,-66,-39,10
3252,132,95,1006,-152,-47,-5
3253,117,94,1009,-253,-57,3
3254,130,110,1023,-359,-61,24
3255,132,120,1020,-302,-86,10
3256,145,129,1003,-173,-155,-19
3257,127,133,988,-17,-172,-17
3258,103,105,960,94,-176,20
3259,103,84,953,110,-141,65
3260,105,73,945,44,-57,53
3261,119,84,938,-58,43,20
3262,116,102,954,-130,113,22
3263,133,102,995,-117,189,16
3264,138,113,1024,-25,193,-17
3265,149,109,1022,53,119,-23
3266,139,121,1038,69,17,-5
3267,128,105,1032,57,-47,12
3268,117,109,1001,20,-84,38
3269,112,103,986,-70,-108,83
3270,112,92,959,-134,-106,118
3271,96,97,947,-120,-43,85
3272,107,79,948,-60,64,38
3273,107,80,982,3,189,-11
3274,125,108,1001,22,293,-36
3275,134,108,1020,-3,304,-5
3276,132,111,1042,-68,232,61
3277,130,112,1049,-42,154,92
3278,126,100,1028,1,41,85
3279,127,81,1020,55,-30,77
3280,120,69,1016,83,-57,50
3281,115,64,1006,71,-39,10
3282,104,54,1004,36,-2,-21
3283,113,63,1010,-27,35,-36
3284,117,71,1009,-124,49,-52
3285,107,89,1010,-204,70,-72
3286,115,109,1009,-253,103,-36
3287,112,114,981,-232,121,18
3288,128,128,1019,-163,154,20
3289,153,125,1031,-42,154,-7
3290,150,129,1044,73,45,-23
3291,147,112,1058,161,-76,-21
3292,129,103,1045,208,-172,-17
3293,111,73,1056,169,-184,-3
3294,114,58,1033,63,-170,12
3295,107,74,1017,-85,-162,28
3296,99,77,998,-208,-162,42
3297,93,79,989,-275,-119,55
3298,92,84,984,-240,-30,75
3299,100,92,980,-171,62,83
3300,120,97,989,-81,125,48
3301,126,107,998,48,136,26
3302,134,108,1001,186,117,20
3303,118,102,1011,299,92,5
3304,122,80,1028,339,80,10
3305,109,50,1030,278,94,28
3306,118,48,1042,157,101,18
3307,128,44,1046,3,80,10
3308,126,58,1044,-126,17,12
3309,120,74,1050,-201,-37,-11
3310,120,97,1035,-210,-90,-31
3311,115,96,1024,-132,-117,-40
3312,108,106,1020,-34,-131,-27
3313,109,97,1002,44,-143,-9
3314,116,89,976,81,-106,-7
3315,108,77,973,89,-69,-11
3316,109,88,970,51,-26,-33
3317,112,94,982,-25,33,-33
3318,112,88,988,-56,86,1
3319,127,90,977,-42,90,24
3320,125,77,1011,-25,74,-1
3321,119,84,1008,16,27,-48
3322,129,97,1018,42,-20,-48
3323,117,122,1020,98,-55,-70
3324,107,130,1020,216,-57,-72
3325,121,109,1029,276,-53,-38
3326,130,90,1000,262,-63,-1
3327,108,64,985,178,-82,32
3328,91,49,974,65,-74,44
3329,91,55,981,-36,-8,10
3330,98,55,987,-97,107,-36
3331,115,89,987,-130,201,-85
3332,128,121,1022,-107,254,-105
3333,144,145,1035,8,228,-91
3334,146,148,1046,178,146,-99
3335,158,156,1054,372,15,-113
3336,146,143,1046,503,-133,-85
3337,130,137,1019,524,-215,-70
3338,116,117,1013,487,-217,-38
3339,110,94,1000,391,-156,-23
3340,111,92,983,212,-106,18
3341,100,79,988,8,-31,44
3342,104,82,980,-152,43,63
3343,106,88,1005,-249,123,79
3344,105,100,982,-267,172,75
3345,121,114,1022,-199,168,40
3346,125,122,1037,-48,123,-1
3347,134,134,1044,139,60,-66
3348,138,122,1053,282,17,-97
3349,135,121,1057,305,-14,-56
3350,133,111,1045,206,-33,10
3351,137,91,1035,59,-71,81
3352,115,91,1037,-70,-92,114
3353,110,93,1031,-113,-57,92
3354,103,93,1020,-97,8,85
3355,113,87,1017,-52,58,48
3356,127,80,1051,38,97,-11
3357,133,91,1088,110,99,-64
3358,135,98,1091,210,88,-126
3359,136,106,1137,239,56,-140
3360,146,106,1143,235,41,-99
3361,167,106,1145,212,-16,-56
3362,168,109,1156,202,-125,-44
3363,153,101,1179,225,-219,-72
3364,150,101,1212,284,-262,-91
3365,135,78,1276,452,-201,-195
3366,168,103,1349,587,-67,-339
3367,211,132,1398,587,33,-392
3368,257,155,1407,438,27,-329
3369,251,177,1478,290,-22,-243
3370,218,175,1623,483,15,-232
3371,232,169,1815,919,136,-341
3372,264,166,2009,1364,228,-599
3373,295,151,2048,1536,84,-788
3374,338,145,2048,1358,-364,-757
3375,299,162,2048,993,-1053,-640
3376,241,169,2048,577,-1791,-408
3377,209,181,2048,255,-2641,-91
3378,213,178,2048,130,-3340,96
3379,183,167,2020,173,-3897,10
3380,108,172,1920,280,-4364,-117
3381,55,177,1802,298,-4619,-154
3382,27,186,1751,255,-4723,-204
3383,24,190,1670,147,-4754,-243
3384,27,221,1596,-27,-4824,-281
3385,71,257,1496,-281,-5000,-281
3386,77,292,1355,-654,-5233,-232
3387,76,321,1217,-1115,-5453,-75
3388,75,376,1092,-1521,-5639,126
3389,65,406,945,-1714,-5799,300
3390,89,469,768,-1640,-5961,364
3391,96,524,542,-1499,-6174,393
3392,106,581,314,-1355,-6371,497
3393,51,601,100,-1206,-6477,717
3394,-20,596,-46,-966,-6295,966
3395,-50,555,-164,-499,-5844,1143
3396,-13,507,-211,28,-5082,1110
3397,2,474,-176,577,-3985,926
3398,22,396,-151,1153,-2934,768
3399,59,285,-121,1505,-2121,671
3400,96,174,-96,1596,-1662,610
3401,135,71,-69,1516,-1432,551
3402,169,25,-22,1333,-1350,467
3403,230,81,-11,1118,-1387,376
3404,306,185,-61,813,-1412,346
3405,315,300,-87,616,-1422,364
3406,345,402,-69,692,-1348,350
3407,380,512,-77,841,-1073,368
3408,425,572,-62,1007,-682,487
3409,443,594,-14,1174,-354,731
3410,460,595,15,1294,-30,977
3411,451,576,64,1366,238,1173
3412,433,522,152,1432,445,1329
3413,467,510,245,1487,683,1428
3414,524,517,275,1499,816,1503
3415,586,609,274,1448,736,1473
3416,561,827,245,995,418,1706
3417,588,739,274,1258,564,1473
3418,479,929,228,827,312,2061
3419,423,1016,226,690,385,2512
3420,390,1015,221,712,605,3010
3421,344,998,224,868,849,3438
3422,308,921,225,1145,984,3809
3423,293,836,188,1456,1103,4065
3424,285,758,128,1686,1279,4249
3425,214,658,77,1825,1408,4479
3426,100,580,61,1924,1447,4762
3427,13,484,25,2087,1549,5089
3428,-118,280,23,2393,1746,5415
3429,-243,17,59,2962,2037,5591
3430,-347,-287,112,3516,2498,5491
3431,-428,-594,169,3688,3144,5149
3432,-449,-840,289,3510,3886,4626
3433,-415,-1054,420,3182,4558,4048
3434,-386,-1157,530,2831,5209,3596
3435,-331,-1231,622,2460,5748,3329
3436,-239,-1338,753,2225,5996,3141
3437,-169,-1442,841,2118,5845,2839
3438,-155,-1549,949,2034,5633,2473
3439,-103,-1648,1168,1839,5668,2094
3440,-38,-1707,1358,1589,5996,1626
3441,46,-1721,1545,1202,6207,823
3442,152,-1690,1664,1016,6107,-58
3443,253,-1594,1727,899,5607,-997
3444,299,-1488,1766,661,4646,-1900
3445,231,-1355,1810,206,3568,-2550
3446,164,-1175,1861,-310,2980,-2890
3447,124,-1001,1847,-745,2709,-2909
3448,145,-918,1781,-929,2390,-2691
3449,170,-890,1678,-783,1949,-2525
3450,159,-914,1577,-271,1525,-2710
3451,101,-877,1537,235,1435,-3400
3452,5,-787,1567,346,1726,-4193
3453,-51,-669,1617,174,2125,-4665
3454,-37,-561,1677,-279,2320,-4693
3455,23,-455,1685,-863,2388,-4624
3456,35,-326,1735,-1339,2261,-4663
3457,25,-169,1754,-1509,1906,-4718
3458,-30,-69,1763,-1335,1502,-4767
3459,-112,-28,1709,-855,1054,-4827
3460,-152,34,1671,-406,687,-4861
3461,-188,26,1600,-165,443,-4861
3462,-152,32,1561,-208,236,-4913
3463,-125,168,1528,-609,383,-5068
3464,-148,299,1495,-1099,576,-5138
3465,-163,396,1486,-1413,687,-4931
3466,-134,531,1476,-1486,810,-4677
3467,-107,639,1453,-1292,814,-4499
3468,-55,698,1439,-861,685,-4324
3469,-33,745,1408,-380,416,-4243
3470,-51,802,1334,-3,62,-4085
3471,-44,810,1252,130,-219,-3827
3472,-30,846,1212,169,-399,-3523
3473,-15,927,1193,100,-324,-3286
3474,-21,989,1162,-85,-127,-3009
3475,-15,971,1124,-302,-155,-2575
3476,-29,912,1147,-372,-293,-1980
3477,-29,847,1082,-314,-469,-1533
3478,-46,746,1024,-138,-625,-1357
3479,-81,663,948,151,-789,-1263
3480,-68,588,898,448,-826,-1175
3481,-43,565,871,708,-631,-1245
3482,-25,600,877,852,-203,-1452
3483,2,688,926,825,220,-1554
3484,47,759,952,532,467,-1359
3485,48,754,949,83,504,-892
3486,89,716,953,-312,261,-304
3487,119,658,902,-503,-55,178
3488,88,605,899,-411,-192,372
3489,62,567,885,-9,-153,350
3490,28,479,904,526,2,294
3491,15,397,939,956,201,282
3492,16,306,990,1094,371,303
3493,25,217,1020,905,467,350
3494,27,148,1050,489,574,415
3495,70,147,1059,7,592,487
3496,98,140,1064,-409,412,612
3497,85,140,1068,-685,168,745
3498,86,147,1066,-650,-24,780
3499,72,143,1076,-267,-143,684
3500,82,111,1087,225,-235,548
3501,79,84,1054,651,-276,436
3502,84,32,1030,807,-264,407
3503,67,7,1020,680,-209,450
3504,65,-31,1002,348,-100,497
3505,86,-43,979,-25,31,573
3506,97,-31,991,-378,117,630
3507,102,-16,995,-576,150,632
3508,101,-3,1015,-540,154,573
3509,109,37,1044,-347,193,454
3510,115,51,1051,-72,193,368
3511,113,26,1062,214,123,325
3512,114,22,1082,424,54,290
3513,110,5,1072,565,-22,217
3514,107,1,1080,561,-69,175
3515,99,3,1062,383,-63,192
3516,102,16,1053,87,-69,243
3517,105,8,1035,-216,-117,300
3518,83,3,1003,-392,-155,333
3519,80,14,1009,-382,-155,286
3520,83,21,1015,-238,-114,135
3521,87,24,1031,-36,-43,-19
3522,124,66,1024,133,10,-105
3523,135,88,1045,186,-18,-109
3524,134,95,1014,59,-121,-27
3525,119,98,992,-140,-229,122
3526,91,85,967,-261,-272,188
3527,83,86,957,-232,-262,196
3528,82,70,941,-93,-219,157
3529,84,40,957,63,-156,75
3530,84,51,976,216,-49,-48
3531,98,63,977,241,43,-120
3532,101,77,970,98,84,-72
3533,98,79,985,-76,47,42
3534,101,77,993,-171,-2,61
3535,102,91,988,-111,-28,22
3536,91,87,1008,49,-53,-17
3537,87,80,1007,190,-61,-46
3538,97,79,999,288,-43,-81
3539,125,89,994,255,-2,-107
3540,128,104,983,55,15,-44
3541,128,103,982,-197,6,75
3542,103,120,979,-361,25,120
3543,96,127,1001,-351,68,132
3544,93,116,1005,-175,107,139
3545,104,100,1012,46,121,59
3546,90,64,1015,176,92,-11
3547,87,43,1040,217,52,-50
3548,103,39,1066,165,49,-74
3549,117,54,1053,24,41,-99
3550,120,81,1054,-163,4,-81
3551,120,103,1042,-322,-59,-3
3552,105,111,1017,-359,-125,65
3553,104,115,989,-189,-149,32
3554,108,117,986,57,-119,-33
3555,107,109,995,260,-59,-87
3556,122,117,1002,346,17,-101
3557,124,111,1013,262,56,-91
3558,113,112,1031,114,70,-38
3559,109,114,1046,-46,39,59
3560,112,98,1033,-130,-26,139
3561,104,87,1020,-115,-78,126
3562,93,75,1028,-21,-102,55
3563,103,92,1023,71,-86,-42
3564,103,81,1006,94,-71,-97
3565,101,102,1020,16,-76,-75
3566,93,115,1010,-93,-76,-1
3567,108,128,991,-136,-88,81
3568,106,108,983,-115,-114,118
3569,95,98,975,-15,-100,98
3570,83,90,968,124,-31,48
3571,108,92,967,204,41,-23
3572,121,91,994,143,103,-62
3573,101,89,1008,44,129,-21
3574,102,97,1034,-64,111,40
3575,104,89,1043,-136,62,79
3576,110,77,1036,-142,-12,79
3577,108,81,1033,-85,-92,55
3578,104,79,1001,26,-119,3
3579,108,98,1019,141,-90,-70
3580,96,100,1009,182,-30,-85
3581,103,116,1023,141,23,-31
3582,113,111,1031,89,51,10
3583,112,105,1025,38,37,24
3584,109,95,1024,5,0,38
3585,115,92,1015,-7,-35,61
3586,110,77,1029,-5,-55,65
3587,100,65,1019,10,-65,22
3588,102,75,1037,20,-43,-48
3589,98,91,1037,10,-16,-74
3590,111,101,1041,-5,-16,-44
3591,116,111,1056,-27,-69,-17
3592,117,106,1039,-38,-133,22
3593,117,105,998,-11,-196,44
3594,116,99,976,-5,-227,42
3595,104,101,961,-17,-196,32
3596,99,100,974,1,-114,26
3597,102,113,973,53,-41,22
3598,102,99,980,118,27,26
3599,101,92,1009,178,51,18
3600,121,83,1005,180,60,-5
3601,115,75,995,96,43,-15
3602,109,82,982,-21,25,-7
3603,120,94,985,-117,21,5
3604,110,108,995,-154,17,14
3605,112,109,1017,-76,10,24
3606,121,116,1010,36,-18,-7
3607,121,120,1007,130,-47,-48
3608,124,117,1001,159,-73,-62
3609,108,127,1016,114,-78,-25
3610,101,131,1003,71,-51,14
3611,104,119,1001,48,-8,87
3612,109,95,1000,46,41,139
3613,110,80,999,44,82,126
3614,112,71,1014,57,121,85
3615,112,73,1024,92,142,48
3616,116,80,1022,141,115,7
3617,111,73,1035,165,54,-38
3618,115,66,1032,143,6,-87
3619,135,90,1025,48,-57,-122
3620,125,112,1016,-136,-104,-118
3621,113,118,1018,-277,-143,-38
3622,118,132,1010,-312,-129,42
3623,113,128,994,-199,-78,53
3624,103,127,1009,-13,-35,36
3625,121,106,1006,147,-22,-9
3626,114,95,1015,247,-26,-48
3627,111,87,1023,229,-37,-52
3628,104,79,1012,130,-43,-21
3629,109,93,987,-1,-49,7
3630,109,91,988,-76,-43,22
3631,98,98,988,-66,-39,26
3632,108,86,1007,-25,-30,-3
3633,112,90,999,10,-41,-31
3634,116,106,994,-11,-63,-50
3635,112,108,992,-58,-63,-40
3636,111,120,1010,-77,-39,10
3637,118,118,1004,-42,-14,69
3638,118,109,998,48,-2,75
3639,113,87,1000,147,-2,22
3640,119,78,1008,200,0,-31
3641,110,71,1023,167,6,-79
3642,127,76,1024,34,0,-70
3643,115,81,1035,-126,-24,-52
3644,123,84,1041,-222,-61,-54
3645,118,116,1037,-234,-86,-75
3646,118,127,1038,-136,-98,-81
3647,123,127,1032,44,-133,-70
3648,134,122,998,178,-153,-60
3649,127,100,986,194,-174,-11
3650,108,79,971,114,-174,40
3651,105,63,975,28,-112,28
3652,102,78,988,-66,-37,-11
3653,118,80,1017,-136,25,-56
3654,133,97,1030,-150,37,-113
3655,135,107,1028,-134,-20,-136
3656,125,111,1035,-113,-96,-113
3657,136,124,1015,-79,-156,-75
3658,134,124,1014,7,-213,-38
3659,124,117,1021,89,-248,-27
3660,130,113,1000,163,-240,-60
3661,128,119,1008,221,-221,-87
3662,115,111,1018,217,-182,-113
3663,121,101,1012,217,-110,-109
3664,126,99,994,130,-71,-95
3665,125,110,981,-11,-73,-25
3666,118,93,982,-132,-59,32
3667,118,95,987,-181,-30,28
3668,117,100,980,-197,8,10
3669,123,107,993,-228,35,3