AccelerometerX,AccelerometerY,AccelerometerZ
-185,1026,4182
-181,1034,4171
-157,1016,4161
-135,1013,4147
-159,1026,4155
-188,1034,4168
-211,1023,4172
-215,1038,4173
-191,1045,4146
-162,1029,4129
-132,1018,4119
-114,1038,4126
-145,1042,4129
-184,1038,4165
-201,1041,4176
-179,1037,4155
-150,1041,4158
-129,1026,4127
-140,1032,4130
-174,1026,4144
-182,1019,4152
-175,1024,4137
-149,1029,4135
-141,1031,4134
-138,1026,4120
-129,1046,4129
-132,1049,4140
-152,1039,4142
-172,1021,4150
-172,1035,4163
-166,1034,4143
-165,1031,4106
-162,1031,4106
-154,1034,4114
-157,1034,4124
-131,1029,4111
-123,1025,4097
-118,1032,4111
-134,1040,4128
-140,1047,4137
-163,1061,4130
-189,1067,4161
-210,1054,4169
-204,1020,4168
-175,1016,4144
-121,1020,4139
-99,1026,4129
-109,1033,4119
-149,1044,4155
-204,1037,4167
-224,1040,4189
-198,1051,4190
-165,1055,4186
-169,1055,4192
-168,1038,4199
-145,1014,4168
-132,1024,4179
-132,1039,4194
-158,1038,4210
-198,1033,4223
-194,1015,4195
-164,1014,4177
-142,1015,4161
-118,1027,4167
-129,1047,4150
-170,1046,4148
-224,1049,4173
-204,1044,4170
-171,1049,4172
-130,1037,4147
-104,1010,4119
-98,1027,4118
-128,1046,4127
-174,1059,4152
-203,1037,4162
-189,1024,4162
-159,1041,4134
-155,1043,4121
-138,1032,4108
-140,1035,4114
-132,1049,4098
-160,1060,4094
-188,1051,4122
-202,1053,4113
-185,1055,4092
-183,1050,4095
-191,1024,4077
-183,1060,4103
-205,1054,4113
-204,1041,4119
-196,1049,4145
-172,1054,4144
-180,1052,4145
-181,1045,4148
-176,1046,4157
-172,1070,4164
-176,1068,4174
-194,1051,4190
-197,1042,4190
-180,1041,4176
-143,1043,4163
-134,1069,4180
-170,1070,4202
-178,1050,4201
-163,1038,4193
-133,1044,4172
-129,1065,4164
-126,1068,4159
-122,1076,4166
-155,1068,4162
-174,1048,4149
-178,1045,4135
-162,1060,4144
-150,1078,4134
-141,1073,4136
-153,1046,4131
-178,1049,4127
-184,1055,4112
-173,1061,4100
-179,1056,4131
-196,1065,4123
-201,1060,4098
-193,1055,4097
-165,1062,4103
-148,1078,4108
-173,1087,4110
-209,1052,4131
-224,1023,4132
-206,1054,4113
-184,1090,4100
-182,1074,4095
-203,1044,4098
-210,1060,4118
-220,1079,4129
-241,1086,4133
-227,1069,4119
-202,1073,4118
-190,1066,4124
-197,1051,4141
-218,1053,4176
-220,1059,4180
-214,1053,4191
-201,1046,4183
-175,1051,4159
-169,1054,4164
-182,1065,4183
-196,1068,4183
-214,1053,4175
-211,1042,4141
-188,1062,4127
-156,1074,4131
-146,1082,4147
-156,1089,4161
-187,1094,4154
-203,1078,4162
-185,1058,4167
-163,1042,4142
-164,1049,4139
-178,1045,4142
-203,1060,4156
-227,1080,4178
-222,1076,4184
-215,1066,4174
-211,1057,4172
-181,1049,4140
-160,1060,4129
-159,1057,4152
-195,1046,4169
-201,1053,4162
-202,1063,4149
-206,1047,4138
-192,1034,4137
-176,1050,4137
-192,1076,4140
-199,1070,4156
-196,1070,4156
-182,1065,4150
-162,1068,4126
-174,1077,4131
-198,1081,4163
-215,1068,4166
-222,1059,4166
-198,1043,4153
-153,1034,4136
-122,1052,4140
-131,1050,4151
-155,1058,4163
-169,1067,4160
-173,1074,4163
-170,1064,4163
-142,1050,4162
-125,1038,4159
-135,1048,4157
-161,1063,4158
-188,1057,4158
-208,1054,4152
-212,1060,4143
-240,1076,4158
-247,1071,4156
-219,1057,4134
-173,1060,4120
-129,1069,4135
-114,1079,4139
-130,1083,4142
-166,1078,4156
-208,1076,4167
-227,1059,4158
-227,1063,4146
-198,1058,4144
-177,1072,4120
-182,1092,4097
-184,1087,4113
-172,1060,4117
-146,1057,4122
-147,1085,4113
-173,1078,4113
-227,1055,4143
-236,1058,4159
-192,1084,4138
-141,1095,4101
-131,1076,4097
-150,1059,4107
-178,1075,4111
-196,1085,4114
-200,1072,4133
-195,1063,4145
-185,1065,4131
-147,1069,4130
-159,1069,4138
-179,1070,4158
-199,1074,4164
-206,1103,4182
-189,1106,4200
-184,1105,4195
-166,1073,4172
-131,1058,4142
-107,1050,4138
-106,1053,4147
-136,1051,4165
-188,1068,4169
-223,1068,4173
-241,1072,4159
-236,1059,4142
-217,1083,4156
-195,1101,4163
-171,1107,4141
-185,1102,4139
-171,1090,4118
-147,1076,4107
-150,1083,4109
-184,1094,4142
-208,1074,4145
-199,1073,4133
-185,1091,4128
-165,1085,4105
-142,1089,4101
-166,1090,4108
-179,1091,4118
-189,1093,4120
-183,1083,4120
-178,1100,4130
-179,1105,4140
-185,1092,4131
-196,1077,4125
-212,1073,4133
-213,1080,4134
-177,1082,4120
-163,1086,4123
-155,1082,4120
-184,1087,4130
-197,1085,4133
-173,1080,4150
-135,1081,4133
-116,1097,4116
-124,1094,4109
-135,1089,4121
-164,1088,4144
-184,1070,4153
-177,1072,4144
-176,1095,4136
-178,1100,4143
-199,1103,4160
-198,1095,4150
-155,1091,4159
-144,1079,4138
-155,1066,4124
-180,1068,4131
-192,1074,4163
-191,1068,4159
-185,1081,4138
-188,1088,4143
-184,1087,4147
-178,1099,4164
-186,1102,4184
-189,1083,4194
-197,1065,4165
-197,1064,4149
-180,1071,4137
-166,1105,4156
-170,1131,4167
-190,1114,4166
-191,1097,4177
-177,1075,4168
-150,1083,4154
-126,1091,4153
-115,1076,4134
-119,1097,4148
-142,1101,4156
-175,1098,4147
-191,1086,4121
-172,1075,4113
-172,1088,4116
-195,1092,4134
-206,1060,4133
-191,1051,4103
-152,1054,4076
-127,1044,4078
-140,1048,4103
-160,1068,4114
-179,1068,4117
-201,1070,4116
-214,1078,4112
-215,1071,4113
-211,1068,4106
-196,1077,4102
-179,1080,4114
-185,1090,4146
-198,1099,4157
-193,1092,4157
-181,1062,4142
-178,1076,4147
-183,1091,4163
-174,1091,4174
-181,1094,4191
-202,1091,4191
-208,1100,4182
-176,1089,4176
-150,1083,4170
-127,1093,4177
-121,1096,4190
-139,1089,4166
-187,1099,4181
-214,1080,4194
-196,1067,4176
-181,1068,4160
-155,1058,4127
-143,1060,4125
-171,1088,4140
-212,1089,4146
-207,1081,4148
-173,1072,4124
-138,1080,4103
-133,1099,4114
-129,1074,4131
-127,1067,4125
-180,1081,4111
-232,1072,4107
-237,1070,4133
-184,1082,4111
-136,1100,4090
-118,1093,4079
-127,1082,4075
-141,1095,4090
-136,1097,4110
-129,1079,4112
-168,1074,4140
-211,1087,4163
-228,1084,4158
-206,1074,4146
-167,1066,4130
-160,1065,4117
-159,1099,4126
-180,1110,4148
-175,1097,4141
-157,1072,4129
-155,1065,4117
-151,1069,4107
-171,1092,4138
-190,1087,4174
-193,1087,4173
-201,1087,4177
-197,1062,4181
-168,1044,4159
-140,1062,4147
-113,1073,4122
-127,1109,4118
-187,1124,4152
-239,1103,4175
-255,1102,4188
-244,1100,4178
-197,1065,4158
-140,1028,4137
-126,1055,4127
-159,1077,4145
-203,1092,4174
-246,1086,4192
-240,1078,4174
-196,1056,4140
-159,1045,4126
-145,1060,4133
-167,1069,4143
-196,1059,4173
-207,1062,4170
-198,1069,4145
-177,1061,4130
-168,1065,4129
-194,1080,4133
-211,1104,4152
-205,1088,4130
-184,1067,4124
-147,1052,4099
-130,1060,4102
-132,1083,4110
-179,1109,4141
-216,1097,4163
-217,1082,4157
-196,1072,4158
-168,1068,4151
-136,1069,4147
-147,1071,4130
-181,1087,4147
-200,1077,4148
-204,1082,4151
-201,1099,4144
-193,1090,4144
-192,1080,4134
-186,1079,4125
-166,1080,4132
-152,1079,4122
-173,1073,4123
-185,1089,4146
-196,1090,4143
-207,1089,4152
-205,1085,4145
-182,1078,4119
-155,1070,4111
-155,1066,4114
-167,1071,4117
-190,1094,4125
-208,1091,4119
-200,1080,4114
-203,1062,4099
-184,1068,4090
-153,1084,4082
-127,1090,4088
-104,1081,4097
-137,1102,4101
-176,1114,4129
-215,1086,4145
-189,1070,4140
-133,1072,4137
-113,1072,4135
-142,1082,4129
-180,1053,4154
-183,1050,4181
-188,1088,4198
-200,1098,4214
-201,1091,4209
-180,1081,4188
-155,1068,4176
-161,1053,4171
-176,1065,4192
-193,1074,4208
-216,1072,4210
-230,1062,4169
-228,1070,4172
-218,1050,4167
-185,1056,4174
-179,1065,4170
-157,1087,4172
-165,1107,4165
-212,1094,4154
-211,1065,4164
-180,1049,4144
-134,1075,4114
-130,1085,4111
-168,1070,4112
-204,1057,4105
-189,1081,4097
-182,1074,4091
-150,1053,4070
-134,1087,4072
-138,1096,4080
-174,1090,4103
-219,1059,4117
-225,1037,4131
-197,1049,4118
-144,1059,4099
-148,1065,4113
-165,1050,4127
-177,1054,4111
-193,1066,4116
-183,1055,4134
-187,1053,4133
-199,1066,4150
-193,1065,4156
-181,1071,4148
-151,1073,4139
-148,1073,4151
-153,1064,4153
-176,1057,4161
-200,1051,4181
-202,1053,4206
-195,1052,4176
-167,1054,4163
-160,1047,4155
-163,1054,4131
-164,1065,4139
-167,1064,4144
-168,1065,4146
-166,1061,4154
-168,1058,4143
-155,1038,4150
-162,1040,4148
-169,1052,4166
-198,1051,4161
-201,1040,4161
-204,1044,4164
-206,1053,4144
-185,1052,4144
-161,1058,4147
-152,1074,4169
-183,1071,4152
-193,1051,4152
-172,1051,4145
-164,1059,4148
-183,1061,4188
-192,1052,4207
-201,1047,4186
-215,1028,4176
-196,1008,4160
-159,1031,4148
-151,1050,4146
-184,1051,4161
-203,1039,4162
-202,1046,4188
-179,1054,4192
-167,1066,4186
-154,1064,4184
-165,1065,4183
-205,1073,4180
-233,1050,4193
-224,1035,4193
-194,1017,4180
-159,1022,4156
-163,1037,4166
-198,1033,4181
-195,1030,4159
-173,1042,4140
-170,1039,4148
-211,1049,4159
-220,1045,4171
-184,1041,4168
-146,1049,4132
-139,1064,4122
-168,1059,4132
-191,1059,4136
-189,1064,4128
-209,1071,4113
-217,1055,4117
-172,1049,4104
-192,1052,4111
-190,1047,4097
-160,1049,4072
-216,1079,4119
-196,1068,4145
-165,1063,4153
-119,1057,4129
-241,1078,4169
-213,1075,4166
-143,1065,4129
-114,1056,4118
-129,1065,4154
-154,1080,4160
-173,1074,4165
-186,1057,4159
-175,1049,4118
-184,1069,4137
-199,1063,4140
-184,1067,4139
-164,1071,4127
-139,1078,4146
-144,1085,4133
-180,1048,4129
-197,1065,4137
-229,1080,4157
-246,1075,4167
-216,1067,4153
-177,1066,4129
-181,1091,4141
-203,1098,4191
-203,1094,4207
-179,1104,4187
-211,1080,4186
-263,1062,4193
-292,1068,4176
-263,1065,4157
-174,1053,4097
-107,1060,4023
-79,1070,3964
-78,1041,3912
-109,1023,3823
-169,1045,3739
-262,1041,3664
-349,999,3582
-334,783,2936
-311,723,2679
-381,690,2409
-465,762,2288
-417,400,1588
-365,384,1513
-488,356,1574
-569,274,1735
-577,144,1925
-498,-15,2048
273,-318,2942
489,-461,3263
612,-586,3491
684,-728,3675
661,-912,4011
627,-1109,4339
635,-1285,4576
685,-1397,4768
788,-1487,4941
884,-1580,5147
917,-1630,5416
828,-1635,5718
772,-1653,5973
796,-1716,6136
846,-1848,6176
876,-1974,6159
930,-2064,6149
905,-1993,6224
673,-1746,6611
400,-1714,7119
310,-1978,7349
333,-2184,7417
412,-2230,7348
529,-2203,7218
423,-2177,7208
22,-2269,7417
-408,-2417,7732
-789,-2422,7966
-1124,-2242,8072
-1374,-2042,8140
-1500,-2017,8204
-1589,-2097,8235
-1701,-2162,8128
-1874,-2146,7888
-2115,-2057,7599
-2307,-1995,7392
-2361,-1982,7277
-2359,-1967,7158
-2360,-1902,7018
-2343,-1821,6858
-2260,-1827,6704
-2089,-1882,6497
-1894,-1884,6168
-1720,-1804,5783
-1607,-1703,5417
-1508,-1644,5072
-1430,-1631,4821
-1373,-1633,4653
-1356,-1565,4512
-1328,-1442,4378
-1238,-1326,4266
-1059,-1278,4163
-801,-1291,3950
-476,-1221,3654
-171,-1060,3341
-32,-856,3062
-74,-675,2811
-316,-521,2739
-654,-469,2712
-783,-489,2579
-603,-449,2331
-253,-296,2108
26,-39,2052
174,212,2085
243,376,2101
181,509,2091
-27,589,2097
-364,616,2076
-672,700,2086
-762,779,2085
-582,792,1919
-193,869,1778
153,1029,1722
290,1207,1814
218,1342,1944
10,1408,2047
-187,1429,2186
-193,1405,2327
44,1392,2379
375,1471,2361
592,1599,2419
634,1671,2561
342,1597,2997
145,1589,3201
-22,1631,3426
-78,1667,3542
415,1647,3674
387,1709,3714
291,1746,3854
177,1690,3953
97,1672,3985
86,1656,4024
180,1642,4080
341,1637,4010
476,1660,3939
489,1678,3936
423,1617,3982
358,1600,4025
232,1652,4006
150,1664,4037
238,1564,4038
377,1595,3949
414,1591,3890
355,1616,3912
-67,1631,4186
-22,1587,4163
99,1540,4029
229,1581,3921
256,1617,3901
204,1595,3922
125,1575,3988
43,1587,4019
8,1604,4060
-21,1616,4106
-20,1608,4094
0,1611,4075
84,1619,4021
91,1640,4030
75,1553,4000
115,1527,3988
116,1541,3977
109,1573,3970
56,1596,3974
4,1576,3979
-34,1593,4014
-47,1566,4008
-27,1577,4009
1,1619,4029
54,1601,4018
79,1593,3988
46,1599,3970
32,1580,3988
70,1576,3973
120,1600,3949
138,1604,3941
113,1594,3984
14,1591,3995
-80,1577,4037
-119,1549,4102
-47,1542,4140
105,1564,4024
192,1605,3921
112,1573,3927
-43,1525,3984
-157,1573,4073
-232,1592,4143
-268,1566,4133
-328,1558,4097
-401,1559,4076
-459,1525,4052
-466,1503,4035
-433,1491,3994
-417,1477,3889
-468,1481,3863
-669,1447,3933
-893,1408,3996
-1017,1423,3991
-1033,1475,3976
-1012,1582,3997
-971,1634,3979
-879,1573,3978
-730,1527,3942
-604,1612,3917
-591,1652,3929
-614,1549,3947
-627,1499,3996
-607,1510,4050
-571,1513,4078
-545,1530,4063
-549,1569,4108
-559,1515,4163
-533,1429,4159
-469,1433,4171
-383,1408,4135
-325,1383,4085
-397,1362,4068
-493,1309,4048
-568,1317,4093
-635,1370,4172
-557,1386,4246
-433,1410,4252
-331,1417,4169
-221,1373,4114
-136,1335,4029
-73,1395,3982
-104,1444,4057
-253,1414,4175
-326,1377,4244
-244,1340,4246
-11,1313,4195
281,1310,4128
496,1301,4066
613,1286,4077
632,1268,4067
510,1331,4075
311,1343,4157
232,1273,4252
292,1282,4280
436,1355,4239
595,1365,4173
667,1346,4182
698,1311,4149
697,1346,4137
610,1348,4172
519,1260,4191
477,1214,4166
522,1264,4106
581,1344,4067
602,1337,4044
599,1299,4054
533,1305,4065
463,1304,4103
389,1270,4117
379,1231,4054
417,1263,4004
412,1328,4021
375,1347,4076
343,1333,4087
296,1311,4071
225,1297,4083
128,1283,4100
23,1252,4108
-21,1230,4106
12,1256,4103
81,1302,4080
116,1340,4062
110,1349,4046
121,1346,4013
131,1393,3972
63,1451,4043
-95,1396,4118
-189,1314,4147
-134,1284,4108
10,1330,4036
106,1380,4005
56,1376,4037
-14,1340,4066
-69,1312,4072
-90,1284,4061
-82,1311,4076
-95,1356,4062
-120,1368,4045
-144,1380,4058
-136,1368,4045
-90,1405,4046
-121,1369,4056
-149,1341,4049
-193,1344,4065
-176,1352,4062
-148,1368,4047
-127,1375,4044
-108,1400,4062
-114,1414,4061
-141,1411,4046
-179,1397,4058
-198,1378,4074
-181,1391,4063
-153,1422,4043
-179,1409,4075
-170,1392,4078
-141,1416,4065
-130,1442,4077
-188,1432,4086
-222,1416,4095
-232,1404,4075
-212,1392,4070
-156,1369,4040
-116,1390,4029
-112,1402,4025
-140,1428,4052
-191,1444,4061
-240,1457,4090
-262,1430,4125
-204,1412,4096
-127,1438,4057
-73,1444,4037
-79,1440,4045
-131,1433,4067
-194,1440,4084
-226,1449,4075
-247,1456,4076
-268,1438,4098
-263,1428,4089
-221,1458,4072
-174,1472,4068
-135,1460,4038
-128,1421,4031
-180,1413,4057
-223,1421,4072
-268,1438,4085
-288,1424,4092
-255,1415,4069
-181,1417,4048
-133,1416,4021
-130,1413,4003
-174,1420,3993
-200,1436,4009
-227,1460,4037
-248,1468,4057
-233,1438,4056
-198,1413,4042
-155,1454,4035
-151,1471,4052
-164,1481,4063
-181,1483,4061
-154,1437,4039
-118,1404,4020
-140,1443,4006
-282,1499,4054
-461,1517,4122
-523,1469,4144
-414,1452,4115
-160,1443,3993
119,1440,3863
290,1395,3705
304,1380,3624
110,1378,3628
-169,1374,3643
-374,1353,3686
-411,1310,3700
-330,1293,3595
-173,1216,3335
-34,1080,3005
-11,955,2631
-105,879,2308
-253,936,2185
-362,1045,2108
-378,1159,1975
-322,1175,1799
-291,1036,1621
-323,857,1555
-328,725,1563
-280,644,1535
-95,637,1409
91,741,1294
99,806,1267
-59,720,1325
-241,558,1583
-373,387,2002
-393,165,2272
-229,6,2467
36,-96,2651
315,-203,2733
555,-290,2890
689,-400,3139
721,-468,3414
673,-495,3819
635,-639,4146
703,-862,4341
902,-1114,4506
1129,-1302,4687
1288,-1382,4801
1284,-1322,4947
1059,-1304,5185
794,-1421,5441
606,-1625,5769
535,-1883,6105
689,-2090,6322
949,-2169,6421
1029,-2074,6551
766,-1860,6990
451,-1870,7429
374,-2081,7604
468,-2156,7612
651,-2068,7694
776,-2041,7751
584,-1966,7763
20,-1777,8111
-574,-1900,8340
-914,-2070,8392
-980,-2155,8356
-885,-2217,8233
-823,-2099,8107
-917,-1965,7974
-1143,-1975,7795
-1545,-1939,7671
-1998,-1907,7663
-2398,-1954,7619
-2712,-2007,7519
-2848,-2039,7340
-2730,-2044,7074
-2484,-1882,6784
-2280,-1693,6495
-2252,-1581,6211
-2441,-1495,6099
-2591,-1562,5948
-2536,-1598,5632
-2368,-1499,5338
-2059,-1441,5024
-1705,-1399,4618
-1463,-1308,4173
-1406,-1130,3923
-1401,-1020,3717
-1328,-934,3531
-1189,-845,3380
-980,-752,3179
-749,-619,3021
-542,-515,2866
-491,-353,2723
-535,-114,2677
-533,75,2233
-582,189,2047
-607,247,1913
-590,307,1861
-510,407,1850
-386,543,1858
-293,725,1831
-327,916,1855
-488,996,1865
-621,989,1869
-687,1022,1913
-527,1127,2009
-245,1196,2050
7,1300,2035
160,1452,2057
246,1512,2216
316,1441,2372
385,1606,2542
329,1634,2701
223,1585,2847
114,1588,2983
81,1620,3114
145,1624,3229
254,1645,3305
464,1611,3399
480,1595,3444
435,1623,3521
380,1622,3620
300,1633,3703
151,1641,3810
111,1563,3918
202,1512,3909
301,1588,3939
382,1637,3967
434,1631,4020
413,1601,4051
348,1609,4079
164,1593,4136
88,1526,4163
72,1557,4194
139,1573,4177
199,1557,4144
237,1554,4130
252,1550,4116
291,1545,4091
316,1546,4082
294,1549,4087
125,1474,4214
134,1482,4194
180,1489,4162
244,1469,4114
286,1483,4072
299,1511,4057
295,1496,4040
265,1512,4036
220,1488,4065
189,1458,4055
169,1501,4053
161,1507,4069
178,1504,4076
197,1519,4067
238,1508,4057
278,1489,3996
277,1504,3941
191,1495,3978
130,1484,4035
121,1477,4058
133,1477,4025
196,1465,3967
270,1457,3936
264,1490,3952
202,1542,4018
143,1527,4047
116,1490,4031
87,1517,4045
86,1520,4061
135,1489,4015
182,1485,3989
190,1495,3998
191,1484,3995
217,1480,3972
212,1525,3978
126,1530,3999
48,1518,4033
8,1492,4041
21,1480,4017
46,1503,4001
70,1501,3998
109,1493,3987
78,1517,4020
58,1534,4031
60,1531,4047
35,1506,4047
17,1513,4023
-11,1504,4045
-65,1508,4070
-108,1494,4080
-161,1491,4073
-196,1515,4063
-204,1507,4023
-228,1503,4002
-304,1502,3984
-478,1461,4001
-533,1447,3985
-612,1478,3996
-694,1493,4013
-728,1510,4042
-710,1535,4058
-673,1550,4046
-628,1519,3999
-599,1476,3990
-570,1450,4028
-512,1450,4032
-511,1505,4034
-545,1503,4048
-547,1413,4059
-525,1412,4048
-497,1452,4052
-454,1418,4087
-437,1400,4058
-462,1440,4023
-519,1409,4035
-582,1341,4017
-581,1336,3995
-497,1349,4001
-412,1359,3931
-346,1433,3905
-381,1453,3958
-458,1430,4092
-497,1403,4142
-452,1369,4074
-388,1325,3994
-379,1308,3986
-354,1310,4011
-282,1329,4072
-162,1310,4131
-86,1300,4092
-43,1309,4081
-7,1264,4131
40,1237,4144
106,1290,4148
101,1283,4165
53,1238,4168
64,1221,4140
66,1246,4136
11,1245,4205
22,1181,4257
133,1156,4237
302,1215,4170
453,1261,4136
517,1249,4172
507,1246,4226
458,1214,4269
466,1152,4276
621,1225,4225
584,1220,4248
570,1224,4247
535,1236,4278
540,1182,4273
590,1153,4214
661,1220,4154
676,1292,4116
603,1280,4133
468,1245,4121
414,1249,4146
402,1212,4173
412,1204,4135
442,1244,4072
454,1256,4052
502,1229,4013
520,1246,4006
467,1253,4026
360,1240,4078
231,1232,4137
110,1245,4187
20,1227,4197
29,1221,4170
115,1248,4125
223,1275,4095
278,1280,4047
297,1247,4008
240,1241,4041
64,1258,4109
-70,1253,4144
-77,1254,4125
-33,1282,4106
10,1309,4080
85,1322,4044
129,1345,4024
109,1339,4064
52,1288,4077
0,1302,4064
-32,1350,4089
-36,1342,4139
-2,1337,4102
19,1356,4024
-5,1325,4033
-69,1306,4083
-134,1327,4136
-154,1337,4165
-119,1337,4109
-78,1348,4049
-65,1314,4032
-50,1268,4029
-21,1254,4018
-18,1285,4008
-80,1332,4015
-173,1333,4065
-219,1310,4053
-194,1336,4035
-136,1358,4021
-72,1366,3998
-25,1387,3969
-16,1381,3950
-59,1383,3979
-150,1370,4051
-214,1352,4069
-222,1359,4063
-158,1383,4062
-90,1407,4040
-74,1426,4041
-91,1387,4061
-93,1321,4056
-71,1313,4047
-43,1356,4075
-48,1398,4064
-99,1417,4090
-164,1382,4143
-218,1345,4184
-192,1346,4164
-108,1358,4111
-32,1382,4106
11,1380,4093
-12,1394,4081
-102,1376,4106
-156,1339,4106
-160,1342,4116
-132,1347,4120
-76,1389,4104
-66,1413,4081
-74,1403,4072
-100,1387,4035
-122,1378,4029
-142,1402,4046
-155,1417,4011
-161,1414,3949
-136,1384,3913
-99,1363,3876
-82,1385,3821
-147,1385,3788
-213,1333,3760
-206,1299,3698
-172,1286,3587
-165,1308,3469
-193,1262,3312
-212,1202,3124
-205,1134,2860
-227,1088,2563
-311,1095,2280
-541,1098,2094
-783,977,1966
-871,780,1862
-717,632,1673
-425,613,1405
-224,716,1162
-234,806,1088
-304,795,1153
-263,709,1205
-175,583,1196
-180,269,1601
-110,140,1916
117,106,2159
440,91,2333
656,9,2529
738,-181,2804
820,-398,3119
862,-564,3429
886,-708,3643
906,-836,3794
837,-937,4017
720,-1075,4352
721,-1281,4747
821,-1416,5153
842,-1437,5468
749,-1370,5823
644,-1433,6188
608,-1660,6347
812,-1821,6376
1078,-1899,6370
1128,-1951,6550
955,-2009,6708
548,-1948,6999
136,-1963,7160
-45,-1985,7231
-37,-2040,7254
180,-2137,7210
429,-2148,7120
447,-2048,7087
152,-1941,7172
-164,-1991,7105
-473,-2008,7020
-975,-1913,7217
-1443,-2019,7503
-1613,-2194,7695
-1565,-2181,7728
-1388,-2094,7604
-1304,-1953,7422
-1453,-1775,7360
-1702,-1767,7328
-1964,-1899,7277
-2183,-1965,7218
-2244,-1925,7088
-2066,-1791,6851
-1873,-1642,6629
-1827,-1542,6453
-1943,-1491,6307
-2045,-1475,6123
-2023,-1489,5892
-1868,-1487,5535
-1692,-1389,5214
-1612,-1328,5015
-1543,-1296,4853
-1436,-1237,4623
-1372,-1139,4452
-1376,-1084,4341
-1393,-1069,4195
-1419,-1014,4037
-1459,-908,3938
-1456,-838,3806
-1345,-794,3538
-1195,-656,3259
-1064,-545,2963
-904,-450,2708
-748,-312,2495
-624,-140,2325
-602,62,2252
-613,249,2185
-555,409,2145
-484,511,2122
-439,638,2120
-340,740,2063
-153,803,1885
31,911,1793
113,1048,1791
134,1154,1815
147,1205,1914
132,1221,2087
118,1228,2256
164,1220,2346
326,1244,2377
533,1337,2408
662,1435,2475
607,1531,2564
402,1564,2685
182,1528,2876
70,1475,3062
72,1500,3131
104,1573,3192
171,1560,3276
246,1479,3354
336,1480,3386
448,1519,3428
507,1544,3488
496,1594,3499
310,1658,3632
11,1615,3824
-104,1530,3916
-31,1546,3893
125,1578,3883
206,1572,3922
183,1588,3995
189,1566,4031
236,1526,4016
292,1510,4000
304,1527,4061
240,1566,4163
183,1595,4184
165,1578,4163
161,1529,4151
130,1516,4148
74,1517,4170
80,1468,4201
129,1441,4160
208,1499,4135
260,1508,4130
271,1495,4107
256,1471,4115
261,1447,4078
272,1485,4054
201,1533,4061
84,1514,4052
39,1472,4072
73,1478,4095
132,1496,4076
183,1487,4070
240,1449,4054
282,1427,4024
314,1447,4014
304,1454,4015
227,1478,4047
110,1492,4082
17,1478,4105
3,1472,4097
76,1479,4060
174,1478,4008
234,1466,3969
243,1473,3960
212,1474,3984
204,1483,3988
204,1485,3994
220,1445,3972
230,1441,3963
204,1444,3972
161,1427,3989
117,1451,4020
75,1489,4039
97,1505,4020
208,1483,3961
184,1482,3987
120,1472,4052
78,1453,4088
96,1440,4069
128,1453,4034
122,1476,4039
108,1479,4050
86,1479,4090
62,1460,4106
43,1454,4096
27,1436,4085
43,1448,4067
33,1454,4063
21,1430,4061
-25,1437,4065
-140,1439,4075
-279,1420,4090
-380,1396,4112
-405,1389,4091
-418,1441,4094
-496,1512,4149
-604,1563,4148
-689,1573,4183
-741,1498,4186
-732,1476,4149
-711,1517,4116
-721,1446,4094
-712,1385,4053
-694,1413,3992
-670,1431,3985
-694,1432,4005
-710,1434,4024
-727,1434,4012
-729,1398,3982
-768,1370,3971
-812,1381,3994
-831,1366,3986
-829,1364,3940
-848,1380,3887
-835,1382,3900
-813,1402,3958
-841,1427,3992
-813,1407,4020
-767,1374,4023
-723,1417,3989
-637,1445,3968
-564,1405,3979
-623,1410,3995
-756,1450,4136
-801,1318,4186
-683,1298,4198
-490,1359,4167
-217,1348,4053
60,1318,3947
178,1334,3915
134,1347,3953
63,1336,4030
27,1303,4080
75,1291,4133
156,1298,4135
265,1302,4105
330,1322,4097
343,1316,4113
315,1296,4161
272,1269,4215
297,1254,4249
438,1245,4230
570,1279,4146
592,1338,4099
522,1320,4142
469,1258,4177
458,1257,4176
458,1276,4185
441,1253,4170
416,1255,4176
418,1276,4157
429,1293,4154
386,1292,4182
330,1282,4180
306,1270,4175
249,1251,4190
206,1227,4182
227,1258,4173
239,1309,4162
219,1319,4142
213,1259,4111
232,1234,4072
161,1244,4081
7,1228,4143
-72,1190,4158
-39,1228,4134
21,1273,4111
82,1280,4096
94,1287,4075
32,1290,4065
-71,1295,4084
-161,1301,4117
-205,1321,4122
-161,1329,4103
-96,1326,4070
-49,1344,4024
-61,1331,4038
-72,1295,4044
-93,1293,4053
-101,1328,4050
-85,1338,4051
-49,1328,4034
-42,1360,3998
-94,1375,4009
-182,1330,4050
-263,1333,4114
-315,1354,4142
-296,1362,4144
-238,1341,4130
-144,1331,4081
-78,1344,4062
-75,1348,4111
-131,1345,4160
-188,1359,4170
-230,1346,4166
-256,1336,4164
-255,1360,4144
-239,1383,4118
-205,1388,4110
-193,1394,4114
-210,1395,4115
-209,1370,4099
-189,1361,4086
-188,1353,4060
-187,1377,4066
-223,1405,4064
-237,1410,4063
-232,1426,4085
-187,1435,4077
-143,1425,4044
-132,1387,4008
-177,1375,4014
-246,1378,4034
-281,1372,4023
-271,1384,4023
-254,1369,4032
-215,1371,4041
-170,1386,4037
-119,1387,4019
-68,1383,3983
-54,1396,3977
-103,1395,3990
-199,1396,4048
-271,1417,4069
-284,1425,4071
-276,1422,4069
-208,1395,4062
-138,1403,4055
-93,1422,4035
-74,1410,4024
-113,1408,4015
-176,1420,4043
-249,1397,4088
-278,1398,4101
-277,1430,4109
-253,1421,4097
-201,1393,4048
-136,1382,3995
-97,1403,3975
-117,1434,3978
-172,1449,3975
-230,1436,3968
-277,1424,3941
-285,1398,3867
-251,1386,3749
-240,1346,3615
-269,1284,3477
-290,1244,3338
-306,1264,3187
-356,1288,3024
-464,1273,2841
-559,1206,2585
-647,1121,2322
-705,1043,2076
-716,967,1775
-639,869,1480
-491,759,1249
-348,655,1032
-265,609,944
-235,600,963
-213,629,1143
-139,644,1373
-7,543,1498
114,436,1555
97,352,1617
23,238,1698
30,96,1785
70,-61,1891
89,-202,2146
82,-396,2614
150,-666,3000
371,-865,3310
644,-984,3645
945,-1083,3873
1204,-1140,4082
1312,-1259,4311
1280,-1414,4607
1186,-1594,4996
1129,-1704,5528
1081,-1799,6053
1053,-1851,6494
1088,-1900,6843
1234,-2023,6945
1450,-2159,6878
1698,-2241,6681
1822,-2259,6581
1604,-2217,6714
1087,-2211,7040
570,-2279,7374
287,-2387,7514
176,-2409,7623
100,-2411,7609
70,-2365,7615
81,-2283,7677
64,-2272,7627
-69,-2292,7462
-462,-2346,7436
-1074,-2453,7648
-1659,-2467,7982
-1992,-2414,8172
-1991,-2305,8110
-1890,-2149,7905
-1816,-2037,7673
-1779,-1989,7373
-1858,-1946,7095
-1988,-1915,6886
-2049,-1912,6686
-2000,-1870,6483
-1854,-1855,6251
-1677,-1855,5937
-1592,-1790,5694
-1597,-1688,5550
-1606,-1569,5354
-1536,-1490,5126
-1388,-1513,4824
-1248,-1473,4460
-1258,-1321,4228
-1312,-1187,4149
-1279,-1159,3976
-1191,-1071,3745
-1131,-943,3595
-1052,-870,3464
-989,-799,3281
-949,-700,3099
-902,-585,2929
-869,-451,2765
-881,-322,2622
-867,-211,2529
-830,-117,2500
-756,-9,2478
-712,125,2433
-728,268,2396
-764,395,2409
-740,501,2443
-597,614,2428
-362,727,2316
-159,848,2206
-21,931,2148
23,998,2170
-30,1071,2291
-108,1137,2401
-121,1184,2456
-95,1232,2488
-75,1272,2569
-23,1305,2676
385,1378,2766
571,1437,2734
673,1539,2747
612,1615,2874
455,1588,3029
303,1554,3217
206,1537,3392
215,1510,3467
343,1511,3454
484,1509,3423
546,1497,3461
538,1480,3592
443,1578,3674
261,1599,3744
173,1541,3818
275,1489,3837
587,1524,3805
451,1504,3953
433,1471,3994
510,1519,3956
547,1565,3930
496,1584,3987
370,1574,4102
262,1522,4153
323,1508,4107
453,1498,4045
549,1475,4018
547,1493,4052
456,1457,4100
420,1419,4104
436,1443,4076
458,1447,4054
447,1474,4074
349,1496,4144
249,1429,4185
224,1390,4173
333,1406,4112
474,1441,4055
513,1450,4063
492,1426,4104
455,1435,4102
436,1432,4059
401,1425,4039
362,1406,4057
321,1420,4082
298,1433,4085
310,1420,4041
369,1401,3991
432,1390,3937
456,1394,3920
468,1405,3904
479,1408,3897
447,1434,3927
353,1433,3965
289,1421,4031
249,1446,4083
230,1469,4084
248,1439,4046
284,1410,4021
298,1411,4021
364,1402,4023
403,1397,3999
409,1412,3963
364,1419,3956
284,1432,4007
194,1435,4076
143,1432,4130
149,1435,4108
176,1436,4086
160,1431,4080
161,1419,4087
183,1403,4083
187,1382,4045
109,1411,4040
-22,1399,4084
-173,1368,4149
-281,1342,4158
-311,1364,4138
-282,1418,4119
-304,1470,4116
-379,1491,4097
-469,1469,4104
-548,1429,4121
-592,1415,4153
-617,1394,4129
-649,1395,4079
-722,1418,4107
-765,1378,4116
-781,1393,4115
-810,1411,4089
-854,1365,4072
-914,1300,4081
-931,1300,4114
-911,1308,4105
-868,1296,4070
-832,1255,3962
-873,1201,3909
-959,1162,3931
-895,1159,4009
-796,1230,4024
-731,1363,4030
-807,1394,4111
-931,1311,4252
-923,1220,4329
-737,1142,4241
-442,1128,4108
-190,1198,4111
-52,1234,4169
23,1234,4159
0,1232,4229
-47,1159,4278
32,1126,4318
198,1145,4340
356,1194,4320
386,1221,4378
399,1121,4415
487,1018,4369
703,1034,4251
884,1113,4251
918,1097,4251
842,1081,4241
754,1074,4239
754,1058,4285
772,1082,4294
794,1146,4262
848,1127,4208
882,1112,4142
861,1127,4099
801,1137,4081
685,1169,4127
591,1161,4207
555,1153,4213
615,1173,4165
715,1195,4097
715,1194,4054
634,1185,4056
559,1141,4062
534,1127,4008
428,1182,4024
260,1193,4102
184,1157,4133
221,1187,4125
315,1236,4120
377,1231,4093
400,1213,4082
399,1199,4079
337,1222,4042
209,1228,4046
104,1213,4043
70,1228,4065
63,1261,4075
38,1290,4077
16,1273,4071
-12,1250,4083
-25,1226,4101
15,1246,4086
64,1312,4069
70,1352,4056
58,1341,4033
5,1299,4020
-76,1284,4025
-155,1300,4071
-156,1274,4092
-109,1276,4078
-85,1287,4071
-66,1295,4064
-81,1338,4075
-130,1353,4117
-166,1313,4129
-150,1289,4087
-160,1322,4093
-155,1323,4093
-104,1299,4059
-67,1315,4030
-76,1340,4036
-113,1338,4053
-183,1341,4109
-221,1314,4144
-188,1303,4135
-148,1349,4139
-93,1372,4128
-77,1352,4104
-85,1369,4073
-133,1401,4053
-179,1410,4076
-201,1394,4096
-185,1372,4045
-162,1382,4008
-137,1369,3997
-121,1383,3992
-136,1395,3956
-137,1385,3865
-158,1365,3779
-212,1315,3690
-266,1278,3597
-303,1264,3479
-323,1239,3283
-343,1259,3075
-491,1283,2902
-667,1270,2735
-693,1201,2507
-619,1084,2243
-526,975,1963
-276,872,1638
35,801,1381
212,806,1184
250,828,1037
163,769,967
-5,654,954
-128,555,1014
-171,504,1196
-73,433,1292
76,388,1324
86,339,1402
-23,267,1585
-125,158,1867
-84,-51,2172
129,-264,2372
353,-411,2569
488,-573,2818
532,-793,3132
549,-1036,3545
588,-1303,3877
697,-1474,4110
808,-1559,4352
767,-1615,4746
692,-1755,5224
829,-1935,5613
1176,-2002,5965
1481,-2016,6271
1590,-2061,6412
1420,-2092,6696
1009,-2272,7096
676,-2568,7309
462,-2642,7406
249,-2505,7547
49,-2435,7680
-80,-2469,7748
-139,-2455,7695
-152,-2350,7591
-188,-2239,7478
-472,-2174,7549
-923,-2303,7778
-1354,-2386,7950
-1652,-2324,7888
-1757,-2205,7669
-1881,-2065,7524
-2108,-2070,7585
-2219,-2200,7580
-2225,-2237,7453
-2252,-2111,7253
-2384,-1965,7107
-2550,-1924,6992
-2542,-1998,6831
-2507,-1970,6673
-2535,-1879,6551
-2539,-1887,6357
-2444,-1920,6145
-2312,-1838,5980
-2193,-1671,5790
-2160,-1539,5606
-2185,-1513,5488
-2154,-1577,5371
-1939,-1539,5181
-1637,-1405,4943
-1531,-1274,4765
-1553,-1217,4700
-1549,-1338,4532
-1556,-1300,4288
-1581,-1123,4102
-1474,-1038,3885
-1287,-1006,3583
-1099,-920,3236
-960,-758,2924
-817,-581,2701
-789,-390,2529
-850,-181,2462
-832,-84,2422
-714,-21,2413
-535,86,2479
-408,199,2407
-315,386,2190
-174,601,1953
-49,725,1797
-81,822,1797
-248,835,1858
-298,773,1900
-234,777,1923
-118,911,2019
-33,1144,2228
-40,1342,2360
-54,1457,2325
-41,1471,2318
36,1389,2259
172,1431,2218
283,1557,2256
299,1647,2307
247,1719,2428
200,1704,2602
200,1651,2773
376,1688,2994
514,1719,2988
550,1730,3009
468,1725,3118
334,1726,3271
246,1666,3338
243,1657,3432
205,1665,3542
187,1664,3660
230,1683,3750
224,1755,3885
216,1768,3957
325,1680,4091
302,1664,4134
269,1733,4213
198,1797,4251
152,1772,4249
194,1687,4166
269,1667,4007
238,1658,4007
185,1656,4033
103,1660,4053
77,1661,4099
108,1641,4089
199,1639,3994
257,1639,3986
306,1612,3966
380,1628,3887
344,1640,3856
226,1646,3882
242,1668,3889
196,1684,3900
175,1683,3934
173,1657,3970
182,1654,3986
196,1664,3987
263,1644,3947
307,1633,3899
242,1654,3919
166,1665,3964
241,1651,3915
254,1629,3888
210,1629,3891
169,1650,3899
131,1646,3985
185,1668,3949
206,1678,3970
146,1658,3992
90,1659,4005
94,1625,4013
135,1626,3980
170,1647,3952
221,1610,4000
205,1624,4022
207,1640,4038
181,1615,4008
119,1634,4017
42,1602,4023
70,1582,3990
165,1617,3974
253,1648,3961
280,1659,3956
278,1634,3933
230,1645,3909
118,1693,3972
19,1635,4010
2,1606,3975
23,1634,3970
58,1619,3959
130,1596,3927
179,1634,3909
134,1648,3935
103,1587,3901
98,1585,3888
64,1613,3897
21,1643,3938
-11,1639,4012
-14,1623,4005
1,1603,4028
54,1587,4023
128,1606,3996
