AccelerometerX,AccelerometerY,AccelerometerZ
193,844,4188
200,853,4196
204,858,4211
197,856,4196
205,861,4188
193,873,4194
178,876,4197
194,855,4198
190,834,4179
178,822,4151
160,839,4163
150,850,4185
147,837,4191
173,838,4174
196,836,4146
191,834,4135
179,838,4164
182,843,4163
190,860,4159
175,867,4150
156,864,4151
165,873,4149
195,861,4134
223,857,4124
221,862,4143
192,855,4148
184,853,4131
186,843,4148
182,835,4153
179,848,4160
172,859,4148
179,855,4136
174,872,4143
166,868,4153
198,841,4134
225,860,4152
202,876,4164
173,863,4172
174,846,4178
210,849,4162
217,867,4159
197,863,4166
173,851,4170
151,853,4180
163,849,4166
177,851,4161
190,856,4161
190,875,4171
197,874,4182
201,876,4165
203,862,4169
188,857,4181
170,844,4174
170,840,4177
191,835,4162
197,838,4167
170,852,4172
166,868,4166
167,860,4166
155,863,4168
173,857,4174
194,854,4174
225,852,4167
227,840,4165
213,842,4156
204,837,4147
186,839,4133
176,845,4139
181,859,4138
179,868,4144
167,852,4147
163,841,4137
162,823,4117
185,819,4134
190,847,4151
219,854,4155
236,847,4148
214,843,4155
188,813,4164
177,821,4175
171,827,4166
178,832,4165
178,827,4155
161,822,4143
167,814,4149
185,821,4143
185,839,4132
197,837,4141
201,834,4143
203,841,4141
204,838,4151
193,840,4162
182,847,4164
166,836,4162
162,818,4181
160,834,4198
166,860,4185
187,848,4168
200,814,4165
205,811,4165
197,836,4166
179,835,4174
182,819,4168
179,805,4169
170,813,4165
156,815,4187
145,815,4175
158,824,4162
156,822,4164
151,824,4181
162,833,4204
175,827,4196
188,823,4171
198,827,4184
196,822,4199
208,831,4198
205,826,4195
202,802,4179
193,795,4160
173,804,4175
171,815,4172
169,826,4166
168,816,4159
166,815,4175
169,817,4195
183,816,4207
221,812,4204
247,801,4187
248,797,4169
213,796,4162
184,789,4192
158,798,4204
164,798,4190
178,794,4181
188,801,4160
189,812,4169
188,808,4188
217,803,4179
240,805,4178
230,795,4167
205,785,4163
186,790,4161
170,795,4177
177,808,4179
197,813,4165
204,789,4155
204,783,4143
203,772,4151
200,777,4145
201,780,4126
203,777,4102
205,790,4095
190,811,4118
150,809,4157
121,792,4165
140,790,4171
183,796,4162
216,797,4131
247,811,4145
251,813,4153
230,833,4200
219,828,4203
197,823,4197
196,818,4218
246,799,4196
282,800,4192
308,812,4097
259,812,4184
211,756,4265
256,761,4229
261,793,4237
222,787,4242
177,771,4254
184,771,4244
211,787,4210
164,801,4230
131,790,4276
129,761,4239
177,759,4185
224,763,4169
220,764,4169
192,770,4166
175,785,4194
171,759,4211
187,758,4189
189,781,4178
181,785,4176
179,790,4180
195,808,4166
211,819,4169
206,787,4172
216,763,4170
201,796,4197
188,818,4211
193,813,4200
203,780,4173
194,771,4185
179,781,4207
188,801,4212
177,817,4232
144,815,4280
121,833,4304
155,855,4252
214,822,4257
231,784,4276
221,784,4232
202,773,4247
175,775,4225
137,791,4219
86,809,4234
84,814,4229
121,794,4195
157,787,4191
180,804,4177
175,819,4155
190,829,4123
230,840,4122
220,837,4117
184,852,4107
165,853,4115
187,837,4071
185,826,4099
197,815,4083
195,833,4051
177,841,4057
148,795,4079
134,774,4075
137,822,4069
172,866,4043
150,869,4074
113,838,4107
91,830,4145
121,849,4114
193,865,4053
210,886,4064
155,869,4074
138,843,4076
103,851,4108
92,852,4115
119,872,4141
128,886,4131
113,855,4136
99,811,4163
128,812,4178
153,830,4165
181,837,4121
184,842,4109
138,835,4137
109,831,4159
120,836,4134
167,859,4088
165,873,4093
116,833,4145
79,805,4190
77,817,4182
114,850,4185
167,847,4191
175,843,4197
183,828,4196
188,822,4175
180,829,4176
151,826,4189
113,835,4201
79,844,4203
103,826,4212
165,799,4185
231,799,4129
212,827,4151
130,823,4213
125,823,4231
123,824,4188
119,834,4204
147,825,4195
141,816,4211
145,837,4190
147,865,4198
131,857,4181
110,842,4188
107,819,4190
135,816,4168
136,829,4139
122,842,4166
103,836,4193
117,820,4180
144,817,4132
132,822,4131
116,808,4172
116,807,4154
117,830,4142
131,849,4148
126,818,4160
98,796,4148
80,810,4150
71,822,4131
85,817,4122
119,821,4148
138,830,4147
103,844,4160
106,819,4201
176,793,4229
225,824,4265
238,850,4301
247,834,4341
240,802,4439
239,803,4555
230,848,4687
155,912,4876
85,942,5030
59,973,5210
90,1027,5377
198,1073,5546
344,1079,5676
477,1071,5799
534,1153,6003
557,1224,6227
561,1228,6437
585,1228,6591
603,1231,6735
605,1224,6797
658,1210,6770
778,1194,6721
837,1164,6658
812,1089,6562
796,1004,6388
775,957,6198
754,939,6036
748,943,5815
772,955,5539
744,1000,5294
656,995,5052
610,948,4779
572,982,4509
491,1054,4264
374,1154,4079
278,1246,3917
230,1327,3768
228,1360,3532
250,1364,3221
328,1396,3007
404,1441,2805
374,1549,2606
335,1652,2428
368,1608,2187
463,1566,1873
572,1713,1603
632,1811,1382
669,1780,1145
636,1717,972
523,1685,816
428,1705,585
398,1771,370
454,1775,106
598,1799,-107
746,1850,-255
813,1884,-455
831,1936,-528
785,1968,-585
577,1988,-601
425,1976,-540
439,1866,-583
655,1750,-725
952,1664,-902
1127,1555,-953
1096,1376,-944
915,1248,-856
624,1251,-710
373,1315,-419
226,1276,-104
237,1109,89
379,959,293
566,921,654
643,864,1126
685,786,1717
766,697,2335
787,639,3036
784,637,3806
850,700,4546
869,788,5196
888,906,5659
851,1158,6265
664,1262,6961
493,1180,7584
522,982,7908
642,844,8105
551,830,8174
155,831,8115
-220,861,8071
-423,987,7998
-528,1241,7857
-452,1347,7664
-269,1169,7358
-135,935,6856
-91,932,6310
-97,950,5734
-61,899,5217
-122,990,4864
-332,1152,4773
-417,1214,4841
-329,1175,4930
-127,1038,4794
162,891,4459
430,885,4187
558,1090,4158
457,1175,4268
312,1055,4291
191,962,4351
123,906,4444
149,896,4553
234,967,4634
298,1054,4657
336,1056,4684
348,970,4655
347,920,4603
361,959,4571
368,977,4588
418,941,4571
457,896,4504
449,910,4423
412,963,4390
397,958,4330
336,901,4308
252,853,4293
258,823,4259
352,823,4235
459,841,4190
520,848,4130
534,850,4103
490,860,4079
413,877,4076
371,861,4082
360,881,4039
334,924,4076
298,867,4131
335,803,4169
417,790,4136
476,855,4097
486,946,4110
445,938,4139
431,878,4172
444,846,4181
480,862,4130
477,920,4111
427,950,4138
342,928,4156
314,891,4147
366,880,4140
459,897,4113
521,915,4086
504,922,4103
468,911,4125
451,891,4155
445,882,4152
425,906,4093
375,931,4096
321,907,4111
284,881,4120
262,896,4150
264,910,4184
315,889,4162
401,893,4109
459,903,4080
464,890,4073
430,888,4064
380,915,4083
344,951,4112
359,940,4103
372,935,4078
340,953,4098
306,915,4126
320,892,4136
372,919,4152
419,940,4150
446,934,4142
458,906,4146
451,903,4117
396,917,4114
316,915,4143
264,909,4172
261,911,4182
299,915,4173
320,920,4132
301,940,4139
285,932,4156
288,893,4150
304,902,4133
317,945,4116
343,991,4113
348,973,4110
346,921,4088
323,902,4065
294,916,4047
260,945,4067
223,939,4085
216,922,4110
237,922,4088
237,965,4048
210,964,4021
193,941,4035
214,925,4059
261,923,4040
278,947,4043
234,957,4047
183,940,4059
146,919,4054
128,958,4110
141,951,4182
184,914,4178
240,944,4149
295,1006,4067
280,1033,4066
268,959,4099
290,926,4152
309,952,4156
340,976,4144
338,983,4139
309,975,4152
264,983,4204
284,930,4267
369,867,4260
457,908,4196
486,984,4149
446,956,4140
406,900,4129
373,921,4149
362,959,4185
332,976,4181
293,961,4190
278,928,4197
287,911,4224
332,901,4238
341,906,4240
301,904,4233
237,924,4226
121,928,4208
-29,894,4198
-185,882,4238
-344,874,4302
-461,859,4352
-573,836,4348
-650,849,4361
-712,865,4375
-777,852,4379
-799,830,4317
-822,808,4208
-920,777,4162
-1058,760,4141
-1142,761,4209
-1069,748,4212
-928,780,4247
-781,758,4237
-706,797,4189
-527,680,4145
-436,681,4079
-277,705,4022
-121,736,4052
-39,805,4099
-7,830,4100
-1,794,4125
4,710,4169
37,677,4186
140,746,4243
255,783,4239
332,773,4175
401,741,4124
419,670,4082
423,631,4096
413,671,4087
437,773,4173
488,814,4241
593,812,4166
852,812,3952
961,749,3919
965,727,3888
841,774,3876
704,778,3943
698,691,4090
837,670,4184
1010,759,4199
1123,848,4156
1149,830,4136
1171,748,4096
1162,714,4058
1059,721,4074
868,688,4106
736,650,4183
704,618,4226
775,631,4237
1047,677,4107
992,735,4133
844,741,4137
651,717,4136
479,697,4128
399,608,4101
416,584,4118
449,643,4146
471,682,4216
505,631,4252
610,590,4235
669,604,4121
354,630,4148
278,676,4169
194,697,4241
130,658,4329
141,621,4354
216,601,4306
314,622,4263
367,673,4221
308,704,4229
215,684,4227
134,652,4249
100,625,4232
89,671,4252
153,678,4248
221,658,4220
306,626,4196
357,641,4180
302,668,4167
161,680,4194
44,649,4262
29,610,4309
60,617,4314
140,673,4292
233,668,4226
282,669,4205
275,673,4199
215,705,4204
189,723,4207
177,719,4230
137,708,4247
85,676,4260
67,675,4240
96,688,4245
171,676,4241
275,664,4193
321,696,4150
305,724,4156
253,709,4161
184,711,4193
139,712,4228
108,715,4232
106,727,4239
124,724,4256
142,701,4235
168,690,4207
185,702,4184
182,722,4177
181,717,4193
140,708,4179
94,702,4168
69,690,4173
73,690,4174
110,694,4179
177,696,4170
195,698,4171
204,704,4122
210,715,4101
211,708,4085
195,686,4100
167,699,4116
95,719,4134
49,739,4170
249,701,4165
196,709,4146
133,715,4147
89,700,4146
82,691,4162
81,667,4174
132,667,4200
203,687,4190
242,721,4168
224,721,4160
187,710,4172
127,682,4161
93,667,4159
106,677,4148
106,696,4135
123,723,4202
193,693,4160
212,702,4137
193,688,4120
205,705,4179
114,720,4234
34,725,4299
-13,715,4289
5,700,4244
62,679,4224
112,679,4237
130,717,4301
109,748,4358
76,756,4406
137,778,4537
238,795,4692
384,919,5264
486,969,5545
549,1087,5837
588,1133,6184
615,1083,6554
567,1096,6879
510,1210,7189
560,1315,7557
707,1332,7853
795,1392,8141
823,1344,8275
825,1209,8277
727,1072,8130
565,984,7926
302,860,7681
98,748,7331
-3,671,6923
5,548,6471
182,432,5871
385,391,5217
398,467,4555
259,533,3971
135,517,3425
100,527,2860
159,633,2444
335,660,1982
521,740,1477
578,878,964
524,997,400
453,1157,37
302,1286,-41
157,1262,-201
293,1240,-179
653,1211,-437
1056,1399,-598
1280,1542,-693
1259,1533,-732
1064,1404,-738
789,1252,-739
623,1177,-751
575,1176,-826
558,1235,-874
580,1267,-861
650,1295,-717
697,1330,-621
679,1380,-587
622,1452,-444
566,1341,-274
616,1061,-208
692,952,-55
719,978,341
717,888,734
669,787,994
565,854,1341
440,843,1826
361,622,2443
414,308,2994
465,137,3273
503,213,3772
414,309,4383
183,250,5090
-23,65,5579
-41,8,6067
13,79,6524
76,225,7024
90,340,7296
-35,495,7379
-206,677,7486
-340,629,7559
-401,518,7507
-300,532,7434
-142,563,7249
-167,586,6991
-282,492,6701
-264,347,6490
-73,286,6294
143,439,6194
164,689,6132
50,749,5989
-32,632,5850
-120,380,5605
-217,300,5478
-312,396,5418
-335,550,5433
-191,572,5424
54,487,5315
203,417,5183
240,388,5061
210,403,4973
165,435,4920
137,479,4860
146,461,4806
197,371,4727
277,320,4629
299,335,4563
278,346,4574
306,313,4565
360,282,4502
391,294,4403
331,332,4364
207,306,4350
141,259,4336
183,252,4310
282,290,4255
396,336,4194
444,333,4132
460,316,4091
431,317,4084
377,303,4051
287,313,4034
200,317,4017
170,298,4047
184,266,4020
215,280,4014
287,286,4031
382,276,4019
463,317,4004
510,318,3964
542,272,3869
508,270,3853
383,275,3909
198,295,4020
61,317,4074
43,305,4096
166,281,4071
315,289,4031
394,329,4037
457,345,4094
494,342,4148
480,341,4149
377,388,4163
233,422,4254
84,361,4371
8,311,4431
39,314,4425
119,350,4406
230,360,4377
385,316,4340
480,290,4328
477,327,4322
387,356,4312
268,339,4322
167,314,4369
131,296,4363
152,290,4367
240,281,4324
333,285,4282
388,292,4234
387,300,4216
308,303,4213
249,327,4231
216,330,4242
206,334,4215
216,339,4200
228,314,4186
265,296,4185
315,291,4190
371,288,4160
381,318,4143
306,328,4129
241,307,4175
232,282,4193
268,289,4169
290,324,4111
288,357,4124
268,334,4159
280,314,4153
329,336,4161
388,361,4154
392,375,4149
349,380,4188
286,346,4210
223,326,4217
208,327,4195
224,320,4169
260,318,4179
292,322,4198
308,345,4184
277,370,4210
264,355,4223
262,328,4218
252,347,4205
226,351,4185
215,335,4206
250,298,4197
298,301,4171
357,311,4145
363,331,4127
299,327,4151
225,324,4190
196,314,4236
184,332,4220
171,349,4206
167,351,4218
177,321,4213
226,306,4204
317,332,4192
352,369,4183
297,400,4201
176,387,4215
30,367,4244
-35,355,4276
-106,327,4284
-196,339,4303
-309,375,4321
-420,396,4333
-529,388,4349
-651,373,4357
-773,358,4366
-892,358,4388
-965,381,4390
-1042,398,4427
-1104,409,4475
-1082,364,4448
-1015,335,4359
-987,350,4312
-994,350,4280
-981,324,4292
-921,267,4301
-876,252,4271
-852,287,4264
-813,267,4257
-768,210,4282
-713,171,4276
-637,174,4305
-546,177,4275
-411,197,4258
-279,223,4218
-191,257,4208
-133,279,4162
-91,296,4116
-111,285,4118
-65,253,4185
27,217,4223
157,235,4186
319,271,4159
413,282,4170
480,259,4197
591,268,4177
691,302,4056
764,344,4051
828,337,4086
866,335,4123
870,357,4147
923,332,4157
1031,298,4132
1139,336,4129
1162,350,4141
1144,304,4140
1121,289,4111
1093,334,4093
1013,371,4097
912,370,4106
670,269,4261
724,256,4205
718,285,4187
615,313,4200
195,326,4184
252,351,4167
297,378,4141
243,392,4125
102,384,4191
-37,363,4209
-72,368,4232
-61,370,4241
-42,366,4218
23,360,4173
98,347,4123
147,365,4105
-202,350,4258
-171,342,4264
-113,386,4218
-54,414,4175
-87,370,4202
-138,405,4242
-195,421,4284
-250,419,4300
-261,430,4311
-210,399,4303
-75,452,4218
-82,465,4262
-194,413,4235
-215,425,4253
-232,425,4243
170,911,6200
235,1038,6673
54,1077,7368
-149,1017,7997
-109,1086,8940
195,1038,9178
439,390,8398
270,158,7971
77,18,7465
-64,-72,6922
-75,-167,6182
26,-188,5352
133,-195,4576
234,-183,3753
317,-63,3015
231,164,2560
58,282,2230
-107,295,1844
-276,353,1326
-267,507,1048
-158,585,667
-36,643,334
160,806,123
334,1030,30
370,1232,-84
258,1401,-98
139,1529,-16
61,1564,34
16,1673,33
106,1900,86
390,2025,181
676,1955,104
786,1987,79
753,2009,194
598,1925,304
442,1837,438
430,1812,523
510,1844,536
573,1862,476
542,1829,477
499,1726,481
453,1654,361
418,1653,251
382,1600,143
414,1487,115
494,1400,129
581,1333,82
550,1277,192
512,1122,479
523,883,663
658,780,783
845,852,896
932,910,1056
770,862,1372
461,756,1979
291,518,2579
288,264,3055
314,54,3573
496,-151,4143
590,-305,4466
587,-287,4947
526,-249,6170
288,-114,6652
96,-101,7433
397,-121,7091
286,-94,7055
126,-18,7039
-153,171,7069
-410,303,7153
-387,145,7059
-93,-122,6780
130,-192,6472
199,-36,6270
175,82,6174
82,117,6185
-70,65,6205
-219,13,6193
-266,-55,6073
-189,-55,5958
-27,-20,5818
142,52,5680
147,142,5458
-3,251,5369
-144,176,5370
-135,-3,5353
45,-106,5237
289,-76,5038
490,-23,4829
618,10,4723
630,-29,4612
495,-28,4545
191,1,4506
-78,-39,4468
-194,-74,4365
-130,-60,4291
103,-37,4209
396,-11,4125
576,4,4006
618,67,3948
564,101,3970
458,59,3952
296,57,3964
166,43,4001
185,24,3981
293,53,3883
361,132,3857
387,172,3900
440,157,3966
512,133,3989
570,150,3973
554,180,3980
475,155,3938
349,168,3921
221,189,3923
184,166,3942
190,192,4004
237,221,4031
322,219,3991
460,190,3976
596,180,3961
650,202,3939
586,239,3923
478,230,3920
354,231,3935
254,243,4011
181,229,4084
210,212,4096
332,263,4096
458,298,4081
545,296,4076
604,266,4077
584,250,4036
482,261,4040
350,274,4076
230,262,4144
131,263,4208
90,266,4240
141,231,4239
269,206,4213
418,224,4122
523,295,4062
585,330,4058
559,323,4047
442,313,4080
268,276,4161
176,220,4220
132,246,4249
114,297,4280
191,256,4278
327,212,4227
419,250,4170
447,269,4131
414,301,4162
349,313,4180
294,308,4224
241,314,4242
185,313,4263
162,275,4269
143,251,4260
132,264,4252
123,264,4294
160,232,4289
164,249,4273
140,265,4264
90,258,4258
13,252,4292
-66,237,4283
-152,231,4301
-195,209,4290
-226,205,4305
-270,209,4303
-326,233,4340
-408,264,4350
-466,276,4313
-481,257,4278
-490,197,4198
-481,190,4188
-462,188,4192
-422,215,4215
-388,290,4227
-424,341,4234
-465,337,4270
-447,271,4259
-380,219,4212
-296,218,4203
-250,229,4185
-262,229,4190
-280,211,4235
-270,206,4292
-324,236,4359
-388,220,4406
-580,187,4369
-641,190,4379
-717,185,4367
-762,205,4415
-762,145,4443
-623,111,4444
-134,284,4258
-127,308,4257
-144,304,4298
-101,262,4285
-34,254,4203
18,351,4193
462,285,4149
651,315,4111
654,330,4071
545,269,4094
399,270,4097
239,312,4139
125,340,4207
113,340,4248
160,356,4240
242,390,4218
318,399,4175
309,426,4128
238,444,4155
174,398,4191
212,371,4135
220,383,4120
176,406,4136
85,393,4174
16,371,4175
-15,374,4182
-51,391,4189
-93,401,4186
-123,378,4197
-167,423,4205
-195,437,4176
-257,418,4172
-286,381,4191
-274,345,4220
-234,331,4239
-191,348,4247
-181,394,4234
-199,414,4211
-199,386,4173
-195,378,4168
-208,391,4178
-251,406,4215
-280,384,4248
-248,359,4263
-207,362,4240
-180,395,4219
-197,424,4236
-272,431,4234
-326,410,4261
-368,366,4305
-337,328,4295
-268,350,4258
-213,392,4213
-205,402,4192
-248,346,4141
-218,359,4133
-254,398,4132
-257,376,4117
-269,352,4076
-298,359,4062
-286,365,4070
-239,374,4082
-195,403,4121
-169,410,4216
-88,453,4395
-82,469,4542
-124,491,4865
-93,531,5256
113,587,5439
155,694,5794
-61,684,6315
-212,663,6812
-87,705,7131
173,808,7394
396,837,7685
582,824,7973
729,935,8293
938,993,8423
998,987,8442
840,887,8482
577,698,8467
284,605,8439
97,546,8344
94,409,8085
167,259,7627
291,172,7051
340,81,6496
349,-51,5889
308,-147,5055
33,-99,4269
-256,-72,3621
-421,-103,3027
-481,-84,2403
-527,32,1895
-532,74,1476
-456,104,1028
-259,241,708
-27,458,378
174,715,-13
226,963,-362
165,1146,-544
77,1249,-558
-35,1287,-513
-67,1372,-383
-29,1520,-199
110,1620,-109
287,1680,-55
380,1714,26
348,1725,86
278,1714,152
197,1709,221
218,1753,238
281,1838,237
339,1877,304
395,1836,537
448,1815,815
484,1802,962
532,1819,1107
593,1805,1215
633,1706,1280
578,1499,1245
526,1325,1237
557,1242,1280
564,1269,1360
506,1358,1600
424,1281,1849
448,1127,2006
455,996,2099
386,799,2102
325,706,2199
261,740,2554
159,723,2911
115,578,3223
206,349,3543
309,95,3730
359,16,3952
303,96,4556
157,112,5083
2,63,5303
-74,8,5409
-64,29,5702
-16,114,6149
-139,187,6428
-245,208,6630
-149,130,6735
126,-19,6754
405,-59,6693
438,62,6645
218,227,6705
-189,326,6893
-521,219,7058
-642,-1,6964
-563,-78,6693
-373,78,6501
-193,255,6478
-125,242,6418
-110,135,6224
-194,92,6043
-391,82,5993
-527,41,5962
-573,34,5782
-566,101,5567
-454,101,5390
-319,29,5214
-263,-33,5035
-263,7,4905
-240,27,4822
-228,13,4759
-276,35,4637
-366,99,4586
-405,50,4554
-345,-36,4467
-217,-29,4385
-68,12,4288
57,34,4205
93,50,4131
60,46,4148
-21,-20,4205
-111,-55,4231
-129,-50,4244
-92,6,4201
-115,107,4213
-190,119,4277
-202,17,4310
-129,-59,4252
-16,-16,4203
113,31,4114
226,18,4056
235,4,4046
125,14,4079
-25,52,4164
-146,66,4247
-198,30,4302
-126,-49,4279
23,-27,4248
151,17,4196
252,52,4132
311,67,4102
325,24,4058
293,36,4062
182,55,4118
82,13,4168
15,15,4197
-13,34,4213
1,39,4259
23,29,4282
112,1,4253
214,17,4212
266,43,4187
290,33,4162
304,13,4130
291,0,4119
232,4,4154
118,16,4196
-23,37,4229
-100,32,4256
-81,25,4290
29,17,4272
167,38,4196
256,54,4121
279,59,4104
216,47,4110
96,40,4156
-19,21,4227
-70,8,4245
-60,44,4232
-6,27,4212
55,13,4211
113,36,4194
145,62,4172
127,76,4161
96,64,4161
66,47,4174
22,32,4192
17,37,4233
1,39,4246
-42,49,4255
-81,28,4307
-87,-39,4386
-105,-59,4393
-154,-2,4391
-251,32,4415
-346,58,4432
-448,65,4455
-528,59,4478
-584,26,4488
-663,-26,4462
-785,-46,4475
-898,-36,4473
-998,-21,4459
-1082,24,4443
-1170,52,4403
-1229,22,4382
-1228,-32,4304
-1188,-46,4250
-1130,-25,4231
-1078,24,4218
-1027,80,4233
-963,74,4218
-890,41,4215
-805,29,4173
-721,49,4187
-641,66,4188
-574,57,4157
-532,1,4119
-540,-30,4094
-568,-22,4096
-532,-50,4130
-381,-86,4166
-203,-66,4167
-105,-5,4138
-102,47,4136
-83,36,4178
-59,15,4096
-101,71,4054
-162,70,4082
-208,-21,4074
-216,-25,4078
-215,56,4116
-220,87,4149
-199,87,4213
-71,82,4307
92,98,4338
239,138,4271
348,167,4156
427,133,4088
447,71,4120
406,50,4184
321,73,4213
314,76,4245
374,97,4261
429,161,4275
477,160,4289
583,86,4245
740,75,4121
820,132,4000
761,171,3982
584,141,4093
453,86,4150
352,136,4167
279,194,4219
285,186,4282
316,166,4279
351,192,4222
379,207,4168
426,194,4134
476,198,4101
402,191,4131
267,172,4196
124,174,4249
36,181,4258
-1,175,4257
3,153,4231
51,149,4232
100,160,4198
125,168,4143
95,188,4099
-1,211,4086
-126,223,4165
-219,195,4234
-225,176,4239
-177,202,4252
-120,202,4236
-75,189,4226
-54,198,4219
-73,209,4192
-148,223,4183
-245,209,4200
-307,178,4214
-327,168,4240
-288,196,4269
-243,226,4295
-186,219,4268
-104,223,4236
-53,204,4204
-61,201,4201
-117,207,4210
-197,200,4206
-300,208,4248
-369,197,4281
-375,161,4285
-327,164,4263
-256,210,4257
-213,254,4242
-203,268,4220
-209,244,4214
-230,228,4184
-233,234,4181
-228,224,4166
-234,227,4160
-278,250,4176
-318,229,4175
-331,196,4181
-290,194,4180
-209,203,4143
-149,220,4085
-153,262,4084
-188,238,4101
-245,206,4097
-323,195,4136
-354,189,4179
-321,202,4233
-257,222,4253
-204,250,4299
-186,254,4372
-153,258,4485
-95,295,4706
-87,347,5035
-73,430,5444
-34,452,5810
4,459,6169
18,435,6593
109,416,7036
315,475,7446
537,615,7854
662,723,8214
674,752,8486
678,728,8593
632,664,8572
540,544,8474
452,384,8393
429,211,8260
348,166,8032
282,123,7757
228,53,7422
159,20,6981
146,20,6446
71,-15,5824
-61,-49,5251
-164,-83,4701
-234,-85,4160
-193,-94,3649
-18,-100,3120
87,-94,2589
71,-20,2196
-96,115,1866
-389,248,1440
-552,360,996
-549,487,586
-420,653,310
-249,794,126
-90,924,-14
122,1117,-101
382,1364,-40
524,1496,-68
494,1587,-112
397,1681,-39
349,1710,101
389,1719,250
521,1726,254
556,1766,130
541,1850,198
558,1845,277
580,1817,321
575,1803,466
501,1731,493
407,1767,541
325,1773,575
368,1684,555
533,1589,589
754,1447,536
990,1399,510
1117,1503,553
1041,1716,663
720,1782,1017
478,1429,1356
460,1019,1645
548,733,1807
668,607,1933
827,650,2119
841,795,2416
623,950,2731
336,975,3121
122,685,3483
73,330,3871
163,150,4187
316,167,4397
420,326,4683
506,417,5070
605,332,5326
560,269,5609
437,190,5822
341,52,5951
191,-59,6030
-34,-51,6093
-228,69,6158
-339,232,6245
-478,376,6349
-547,363,6488
-311,178,6668
113,-16,6509
527,58,6184
794,185,5929
484,164,5582
1,147,5823
-307,-71,6039
-354,-172,6154
-185,-125,6088
55,35,5907
267,158,5758
504,34,5525
639,-68,5320
532,-48,5165
232,42,5235
-152,81,5347
-373,28,5411
-406,-57,5354
-282,-85,5252
-46,-61,5157
195,-19,4972
363,71,4812
378,87,4693
318,37,4592
179,-15,4571
10,-72,4584
-52,-88,4613
18,-95,4534
103,-77,4413
95,-9,4402
121,-17,4410
229,-96,4354
334,-94,4243
404,-70,4135
432,-71,4116
362,-91,4156
256,-68,4215
180,-66,4217
153,-67,4194
169,-72,4205
216,-104,4183
283,-105,4153
292,-75,4153
285,-66,4192
281,-88,4165
310,-93,4124
321,-61,4138
320,-55,4139
290,-26,4167
228,-14,4184
182,-81,4184
191,-125,4178
200,-121,4134
210,-73,4103
254,-45,4142
256,-52,4155
255,-48,4164
248,-33,4179
199,-34,4201
175,-44,4201
204,-10,4207
189,-8,4209
187,-64,4181
192,-79,4172
190,-65,4177
191,-60,4180
173,-40,4192
117,-38,4225
99,-48,4235
101,-33,4219
86,-12,4201
61,11,4226
113,-17,4217
201,-39,4198
246,-41,4187
283,-65,4178
282,-85,4157
224,-72,4154
165,-27,4157
129,0,4168
118,-8,4175
123,-25,4174
130,-46,4185
121,-56,4178
147,-24,4163
208,-2,4156
239,0,4149
260,6,4167
233,-21,4175
181,-47,4183
114,-33,4204
97,-16,4209
151,-8,4188
203,-32,4158
201,-32,4161
168,-9,4176
96,-6,4213
30,12,4241
-23,1,4244
-65,-13,4223
-87,-4,4187
-102,30,4170
-116,42,4210
-116,2,4194
-174,8,4230
-271,3,4253
-324,-16,4278
-400,14,4259
-521,38,4229
-656,24,4269
-736,-31,4299
-793,-42,4324
-807,-25,4337
-826,-23,4306
-863,-9,4276
-875,-8,4319
-865,-29,4321
-843,-27,4288
-828,-2,4299
-827,-16,4292
-853,-53,4292
-881,-86,4318
-867,-114,4299
-881,-120,4263
-922,-83,4321
-958,-94,4348
-956,-131,4360
-915,-174,4320
-837,-207,4326
-766,-243,4306
-720,-241,4267
-702,-221,4246
-676,-185,4262
-662,-143,4260
-698,-137,4248
-703,-167,4269
-663,-204,4319
-557,-158,4319
-415,-93,4293
-263,-108,4242
-98,-174,4177
67,-181,4113
193,-149,4088
277,-148,4079
320,-160,4076
297,-147,4103
283,-126,4149
316,-105,4151
425,-96,4093
552,-61,4035
590,-27,4010
528,-2,4068
382,21,4150
318,22,4206
363,21,4205
457,41,4190
536,32,4166
542,65,4172
460,99,4259
392,29,4290
397,-34,4249
449,-29,4187
439,0,4192
353,-45,4221
287,-69,4228
261,-58,4229
232,-58,4206
192,-57,4232
124,-57,4266
84,-63,4283
106,-55,4244
89,-14,4205
32,-2,4153
-39,6,4163
-91,-9,4206
-85,-25,4197
-57,-9,4170
-49,19,4154
-46,11,4180
-63,3,4193
-88,7,4208
-102,16,4216
-102,2,4234
-93,-6,4240
-64,20,4251
-47,45,4225
-65,65,4237
-111,53,4264
-128,24,4290
-132,26,4291
-173,48,4245
-241,41,4266
-271,-3,4318
-253,-9,4286
-212,11,4266
-212,-1,4253
-231,-7,4224
-235,3,4224
-253,-9,4220
-243,3,4231
-220,33,4228
-190,35,4213
-174,15,4204
-171,19,4177
-200,60,4150
-259,69,4138
-287,31,4142
-291,22,4157
-284,31,4174
-270,33,4187
-235,44,4191
-200,47,4137
-190,66,4145
-200,57,4188
-233,48,4193
-261,70,4193
-240,68,4173
-215,69,4168
-247,83,4206
-287,81,4256
-309,71,4264
-310,71,4247
-302,76,4239
-271,51,4206
-236,76,4172
-224,123,4173
-206,128,4175
-256,114,4189
-331,80,4226
-363,61,4245
-320,81,4235
-295,126,4194
-275,129,4180
-248,107,4189
-223,122,4188
-222,152,4182
-256,148,4173
-301,129,4190
-323,102,4218
-378,92,4245
-369,87,4227
-326,100,4214
-294,85,4219
-301,70,4219
-305,97,4210
-288,126,4211
-274,145,4202
-306,143,4183
-335,122,4209
-371,76,4217
-375,63,4213
-362,78,4199
-352,87,4189
-381,106,4217
-408,124,4255
-416,131,4279
-390,145,4341
-325,146,4424
-229,156,4571
-131,189,4795
-61,207,5120
45,240,5586
167,238,6015
327,277,6369
455,334,6761
521,319,7168
528,329,7589
543,353,8050
652,346,8459
797,361,8726
851,393,8884
738,403,9006
537,325,9007
371,222,8933
270,121,8708
226,16,8441
224,-124,8120
234,-256,7682
211,-338,7180
19,-415,6613
-135,-522,5987
-193,-621,5305
-166,-620,4663
-130,-576,3973
-146,-504,3256
-275,-403,2701
-444,-378,2156
-536,-281,1634
-465,-131,1091
-220,37,619
87,238,323
204,489,-4
44,810,-174
-110,1012,-183
-243,1126,-122
-254,1253,-123
-145,1415,-54
-24,1543,-23
81,1660,46
127,1774,157
100,1875,289
170,1930,418
273,1960,494
332,2060,528
292,2160,583
207,2169,654
55,2109,671
64,2069,700
272,2032,682
493,2011,642
691,1993,602
908,1911,515
1050,1933,389
959,2018,342
654,1919,314
437,1645,298
400,1363,275
530,1081,143
702,938,100
837,856,235
886,671,247
851,684,311
660,867,522
365,855,822
52,657,1175
-10,388,1547
177,187,1975
428,88,2495
590,81,2964
627,123,3621
621,11,4097
563,-160,4718
486,-382,5364
556,-544,5851
730,-470,6231
826,-301,6585
752,-280,6905
410,-302,7285
-155,-300,7772
-626,-369,8101
-710,-412,8161
-436,-301,8130
-130,-37,7975
-105,300,7774
-189,343,7558
-204,23,7200
-270,-168,6863
-329,-47,6717
-365,168,6723
-379,295,6637
-380,298,6485
-411,178,6396
-371,16,6221
-227,-84,5896
-88,-2,5630
-35,110,5465
-39,67,5304
-104,8,5147
-150,-58,5041
-133,-108,4932
-129,-97,4802
-167,11,4760
-183,25,4727
-106,-62,4623
-13,-92,4545
26,-68,4458
10,-9,4412
-23,34,4407
-54,-21,4362
-93,-71,4337
-94,-85,4319
-27,-95,4255
62,-70,4197
139,-50,4129
144,-49,4079
89,-26,4093
28,-26,4098
-14,-39,4097
-72,-23,4083
-71,-26,4041
-3,-47,3991
23,-40,3990
56,1,4029
86,24,4079
110,-1,4092
162,-11,4113
238,-44,4096
307,-58,4066
314,-36,4067
270,-32,4057
153,-43,4088
53,-68,4153
41,-130,4166
74,-124,4136
100,-42,4129
131,-1,4145
172,-44,4149
247,-61,4139
340,-51,4134
387,-30,4146
406,-28,4146
345,-29,4161
212,-31,4229
62,-51,4266
-6,-84,4293
11,-120,4298
128,-124,4257
250,-98,4247
286,-89,4234
242,-68,4237
112,-52,4282
-4,-66,4277
-109,-67,4286
-217,-85,4288
-329,-98,4333
-443,-114,4380
-513,-138,4382
-574,-125,4336
-638,-98,4353
-705,-105,4349
-773,-112,4331
-845,-107,4336
-932,-77,4319
-1026,-50,4353
-1092,-48,4352
-1145,-81,4340
-1117,-115,4301
-1058,-86,4272
-973,-53,4289
-866,-78,4279
-763,-93,4236
-724,-69,4204
-761,-61,4205
-817,-80,4212
-858,-141,4253
-801,-214,4305
-628,-234,4302
-388,-196,4223
-228,-139,4169
-244,-119,4194
-347,-145,4217
-378,-161,4315
-291,-152,4361
-257,-52,4303
-259,64,4297
-224,49,4278
-147,-24,4230
-26,-71,4188
131,-78,4143
254,-19,4139
306,39,4151
316,31,4155
297,13,4152
254,-11,4156
236,-6,4099
188,71,4087
125,94,4146
154,21,4127
229,-14,4084
301,21,4082
325,47,4097
301,60,4094
255,87,4088
184,66,4094
74,15,4143
-20,-6,4183
-27,7,4173
70,56,4179
224,93,4126
351,122,4094
369,135,4098
305,115,4139
209,87,4192
128,79,4204
82,67,4224
78,44,4221
101,60,4185
112,118,4194
89,123,4219
104,97,4247
172,66,4250
217,87,4210
145,137,4195
25,122,4238
-63,82,4299
-120,55,4344
-118,55,4330
-56,46,4293
50,57,4219
121,90,4173
59,104,4201
-33,102,4235
-102,100,4283
-168,90,4313
-195,73,4320
-180,47,4296
-136,37,4263
-115,41,4233
-131,36,4230
-141,26,4241
-161,3,4244
-191,15,4259
-206,31,4249
-197,39,4268
-199,37,4235
-240,47,4220
-304,64,4256
-298,60,4275
-259,62,4255
-262,98,4233
-271,111,4228
-281,85,4233
-260,84,4245
-235,97,4233
-211,102,4221
-202,122,4214
-214,126,4210
-240,126,4242
-280,104,4266
-294,106,4263
-284,129,4245
-248,152,4235
-252,146,4224
-249,123,4226
-264,125,4199
-256,137,4177
-251,144,4179
-240,148,4191
-213,158,4153
-172,184,4141
-178,177,4162
-215,171,4182
-260,183,4186
-295,168,4181
-311,156,4213
-312,154,4250
-307,167,4246
-284,191,4229
-249,159,4211
-211,125,4195
-189,137,4197
-195,174,4225
-243,191,4250
-304,201,4281
-341,204,4308
-326,185,4296
-286,182,4273
-267,192,4227
-266,206,4228
-291,200,4212
-315,197,4214
-325,168,4215
-300,147,4202
-281,161,4196
-276,180,4208
-265,187,4214
-296,231,4235
-334,241,4261
-333,217,4260
-269,186,4226
-183,183,4184
-145,205,4205
-167,214,4220
-203,222,4237
-250,236,4255
-279,236,4236
-299,223,4229
-306,205,4223
-289,176,4233
-264,189,4224
-233,203,4193
-211,198,4165
-183,186,4176
-183,178,4193
-216,165,4186
-222,191,4210
-227,211,4222
-255,241,4208
-287,242,4213
-263,221,4202
-219,203,4196
-213,202,4201
-196,202,4194
-164,214,4203
-165,221,4210
-182,203,4206
-205,227,4223
-220,253,4244
-263,266,4226
-288,257,4231
-264,224,4229
-240,219,4221
-206,256,4231
-171,268,4217
-149,273,4211
-139,279,4213
-149,287,4224
-202,289,4214
-261,280,4220
-306,271,4237
-299,259,4256
-272,258,4254
-219,277,4247
-157,283,4209
-133,277,4196
-141,269,4203
-159,250,4219
-187,265,4265
-235,276,4258
-256,266,4263
-251,241,4270
-221,228,4245
-212,238,4206
-203,251,4191
-200,250,4195
-233,263,4203
-235,258,4242
-205,241,4223
-168,239,4217
-151,246,4233
-154,236,4238
-164,224,4231
-171,232,4236
-186,235,4268
-191,230,4269
-184,240,4251
-171,236,4250
-187,231,4263
-212,235,4289
