AccelerometerX,AccelerometerY,AccelerometerZ
-361,571,4204
-351,567,4189
-342,588,4178
-394,617,4195
-437,603,4210
-450,576,4208
-409,566,4197
-323,579,4150
-307,564,4139
-310,561,4135
-317,582,4145
-355,588,4178
-388,571,4169
-411,604,4170
-424,605,4208
-394,566,4219
-318,544,4187
-269,559,4164
-261,577,4174
-299,593,4192
-351,585,4221
-373,580,4245
-327,567,4227
-358,574,4295
-365,585,4289
-371,591,4278
-376,578,4258
-356,562,4267
-342,550,4250
-312,546,4223
-307,550,4208
-346,567,4224
-377,556,4236
-392,533,4239
-409,553,4226
-414,577,4220
-406,584,4244
-400,585,4248
-382,586,4224
-335,566,4203
-321,542,4188
-334,554,4193
-378,571,4202
-399,568,4221
-396,564,4209
-394,569,4210
-380,569,4202
-351,557,4181
-331,571,4193
-326,553,4195
-331,545,4191
-371,544,4203
-388,555,4217
-378,568,4201
-375,555,4194
-360,541,4200
-357,542,4201
-356,580,4199
-348,601,4197
-338,591,4206
-369,586,4210
-373,580,4227
-381,587,4253
-349,573,4244
-317,568,4237
-305,576,4203
-333,597,4180
-384,589,4221
-421,562,4259
-417,572,4245
-388,591,4220
-336,564,4204
-307,553,4181
-365,593,4207
-384,593,4207
-342,582,4197
-322,577,4198
-303,571,4179
-305,589,4188
-371,558,4210
-362,560,4191
-338,566,4186
-327,565,4183
-322,572,4179
-343,584,4181
-381,595,4196
-416,594,4207
-390,573,4205
-338,582,4187
-301,585,4171
-296,577,4157
-311,599,4174
-418,568,4219
-370,552,4206
-327,573,4188
-329,601,4187
-407,561,4208
-383,575,4212
-349,584,4198
-340,585,4194
-333,580,4195
-327,577,4204
-337,572,4208
-355,575,4212
-408,569,4231
-389,565,4234
-353,564,4207
-315,555,4198
-311,565,4188
-329,569,4185
-360,572,4193
-388,579,4216
-381,573,4221
-354,569,4227
-326,579,4198
-330,579,4194
-340,559,4214
-324,568,4209
-306,578,4213
-326,574,4206
-350,561,4206
-364,573,4206
-374,584,4221
-350,576,4222
-341,570,4227
-353,565,4219
-358,553,4223
-358,553,4222
-345,575,4209
-347,606,4219
-366,590,4243
-358,576,4242
-330,566,4232
-302,556,4195
-309,565,4195
-332,552,4216
-378,581,4209
-374,566,4209
-370,556,4193
-356,565,4191
-343,556,4185
-362,559,4201
-370,570,4215
-361,563,4215
-332,563,4202
-329,561,4221
-348,553,4223
-338,572,4210
-323,564,4202
-319,566,4198
-320,568,4203
-346,580,4222
-371,599,4223
-372,584,4224
-349,566,4224
-311,557,4203
-322,561,4197
-338,575,4194
-348,575,4209
-352,590,4231
-347,587,4217
-338,576,4214
-330,561,4206
-337,567,4199
-346,581,4213
-361,582,4223
-363,588,4233
-364,590,4227
-358,581,4212
-326,563,4186
-330,558,4177
-340,585,4187
-360,609,4205
-374,590,4227
-326,597,4215
-338,589,4216
-381,569,4223
-369,561,4227
-329,562,4198
-297,590,4196
-300,592,4202
-324,587,4205
-339,581,4202
-346,574,4200
-334,576,4203
-379,557,4231
-333,569,4215
-309,584,4187
-304,598,4192
-329,617,4203
-368,608,4223
-394,581,4236
-370,566,4213
-329,580,4196
-323,596,4184
-335,601,4174
-282,604,4171
-298,607,4160
-324,585,4166
-327,591,4197
-301,576,4174
-296,565,4167
-297,585,4179
-324,586,4204
-349,585,4212
-349,591,4201
-335,587,4186
-298,597,4169
-307,597,4194
-323,601,4200
-324,612,4211
-348,578,4256
-344,573,4247
-316,577,4238
-283,583,4229
-336,580,4217
-353,580,4232
-348,578,4228
-312,589,4228
-304,597,4227
-293,606,4231
-302,607,4235
-310,594,4243
-327,600,4221
-341,585,4232
-343,561,4224
-329,572,4204
-319,577,4185
-332,573,4174
-328,562,4194
-313,573,4189
-308,572,4179
-334,588,4189
-353,580,4208
-350,576,4218
-322,588,4215
-287,594,4200
-273,596,4194
-287,580,4209
-311,584,4205
-301,603,4215
-306,605,4220
-301,598,4224
-282,591,4224
-300,598,4229
-313,563,4223
-319,572,4217
-322,571,4218
-319,564,4211
-309,566,4206
-290,573,4187
-284,575,4181
-256,569,4182
-248,577,4174
-298,607,4168
-327,601,4202
-308,588,4201
-259,590,4202
-234,601,4204
-243,590,4207
-275,574,4193
-295,571,4185
-315,582,4191
-311,593,4183
-324,592,4201
-334,576,4199
-314,556,4197
-295,574,4193
-276,585,4205
-273,594,4218
-293,600,4235
-299,591,4248
-302,577,4243
-294,567,4241
-280,578,4228
-285,582,4215
-308,576,4208
-324,581,4212
-330,593,4216
-307,585,4214
-289,581,4213
-277,595,4209
-259,596,4210
-242,594,4210
-253,588,4220
-287,591,4229
-321,582,4238
-295,575,4212
-270,579,4194
-261,593,4186
-276,592,4176
-324,587,4222
-335,572,4220
-327,568,4214
-318,582,4216
-315,573,4208
-306,586,4198
-300,593,4184
-309,611,4202
-322,598,4211
-306,573,4197
-280,588,4185
-271,607,4189
-274,588,4200
-286,567,4204
-293,568,4211
-314,575,4210
-325,572,4207
-299,576,4209
-278,576,4190
-276,591,4201
-278,582,4206
-292,586,4216
-294,581,4212
-284,577,4220
-285,576,4211
-296,587,4205
-297,594,4205
-282,582,4210
-269,586,4208
-274,599,4208
-272,597,4224
-284,583,4232
-290,571,4224
-267,572,4204
-248,581,4204
-235,577,4208
-240,584,4199
-279,585,4188
-303,585,4222
-282,579,4230
-262,589,4203
-246,605,4185
-274,582,4209
-273,581,4207
-291,583,4201
-312,598,4221
-296,561,4217
-277,570,4194
-268,579,4181
-278,577,4173
-285,573,4170
-289,568,4178
-292,578,4186
-264,578,4176
-253,591,4167
-262,578,4174
-274,584,4194
-251,587,4188
-267,581,4197
-284,579,4230
-309,583,4229
-288,585,4228
-266,575,4234
-258,567,4225
-265,561,4213
-264,576,4229
-266,582,4254
-277,590,4260
-282,587,4232
-245,577,4217
-233,568,4212
-269,577,4226
-295,594,4259
-286,594,4252
-265,576,4229
-265,573,4221
-273,567,4235
-265,558,4213
-262,569,4209
-261,546,4206
-253,562,4211
-265,584,4237
-289,555,4225
-287,558,4222
-270,545,4203
-247,554,4181
-242,572,4182
-249,557,4177
-266,568,4171
-240,575,4146
-222,570,4123
-227,548,4124
-266,536,4130
-303,550,4123
-314,547,4129
-296,561,4122
-280,573,4112
-282,561,4114
-280,542,4088
-266,543,4071
-257,527,4056
-258,549,4052
-301,586,4107
-371,572,4170
-349,551,4180
-254,549,4161
-181,546,4168
-170,527,4216
-212,529,4257
-240,553,4271
-249,556,4282
-254,545,4298
-265,536,4328
-263,512,4329
-217,518,4353
-210,562,4396
-233,569,4406
-239,541,4412
-249,528,4455
-257,525,4493
-259,528,4530
-265,538,4575
-284,527,4661
-277,520,4725
-219,555,4784
-169,584,4848
-175,587,4917
-209,591,5019
-253,631,5127
-299,692,5245
-316,717,5347
-315,720,5456
-310,688,5563
-287,677,5636
-216,714,5672
-133,748,5716
74,1038,6558
109,1021,6549
185,1018,6490
246,1048,6419
237,1050,6287
221,997,6048
220,940,5819
205,957,5672
172,949,5540
164,861,5294
169,800,4972
154,783,4714
181,787,4475
250,837,4193
240,885,3926
212,866,3664
195,812,3457
123,780,3227
17,825,3036
-45,894,2950
-53,990,2861
-94,1126,2723
-74,1174,2518
38,1203,2326
63,1275,2150
-57,1381,1981
-148,1468,1781
-140,1580,1618
-107,1735,1489
-70,1866,1386
22,1937,1254
141,1987,1144
249,2073,1108
284,2146,1041
299,2253,886
387,2356,724
449,2362,631
468,2329,641
575,2225,619
750,2130,556
852,2104,545
846,2050,626
703,1909,613
480,1834,532
389,1754,394
441,1672,185
562,1708,-14
746,1768,-177
836,1720,-230
724,1568,-95
619,1325,95
566,1085,205
497,857,153
501,718,94
502,745,297
288,847,705
10,804,1107
-104,576,1563
-72,172,1896
102,-149,2161
163,-200,2516
142,-91,3074
58,-15,3596
57,-33,4076
214,-39,4659
283,-9,5097
293,80,5459
352,138,5851
300,79,6188
215,64,6626
67,99,7080
-60,62,7477
-36,-2,7739
7,-67,7794
-41,-90,7733
-139,1,7789
-139,23,7731
-123,97,7550
-255,274,7562
-415,215,7617
-412,177,7644
-292,286,7728
-215,416,7835
-89,438,7893
132,330,7845
272,252,7821
323,275,7911
252,384,8099
56,446,8329
-90,390,8498
-78,316,8629
61,283,8740
252,312,8788
459,355,8732
580,373,8568
547,356,8394
416,265,8203
146,161,8018
-172,126,7819
-360,58,7473
-388,1,7127
-259,-3,6814
-68,1,6475
50,52,6082
79,130,5741
36,161,5398
0,95,4928
-70,92,4366
-232,150,3928
-434,174,3579
-649,176,3283
-831,186,2886
-761,203,2451
-464,275,2016
-165,438,1559
48,649,1133
134,880,765
24,1047,446
-321,1134,138
-668,1207,-185
-798,1299,-497
-672,1334,-668
-390,1258,-997
-82,1321,-1194
185,1425,-1302
332,1524,-1391
307,1608,-1473
136,1684,-1579
-148,1714,-1540
-393,1598,-1439
-502,1420,-1416
-417,1344,-1441
-158,1381,-1467
80,1443,-1356
202,1349,-1109
190,1183,-698
89,1033,-368
61,938,-200
73,947,35
-24,927,419
-163,797,790
-323,745,1297
-358,729,1939
-221,608,2634
-44,415,3244
164,412,3846
371,509,4383
307,547,4910
72,496,5402
-201,528,5767
-485,723,6042
-612,796,6310
-576,575,6490
-420,287,6479
-33,273,6626
420,523,6741
447,1048,6871
-13,1308,7106
-402,921,7257
-562,489,7285
-530,408,7191
-206,477,6993
272,559,6782
665,545,6651
837,452,6506
724,514,6569
429,540,6685
-284,504,6684
-481,454,6584
-458,386,6371
-251,364,6051
43,347,5679
296,320,5384
412,321,5226
403,325,5074
261,342,4898
71,401,4790
-88,404,4740
-187,360,4705
-269,348,4631
-224,348,4513
-101,346,4361
1,344,4235
33,389,4211
-11,368,4209
-78,329,4219
-179,334,4280
-328,362,4345
-421,383,4387
-459,369,4353
-452,385,4325
-422,396,4314
-345,346,4191
-258,336,4121
-190,327,4069
-75,303,4013
-23,353,3980
-42,401,3997
-115,393,4028
-236,441,4106
-266,460,4177
-151,373,4077
20,345,3948
168,359,3864
234,381,3868
160,420,3960
-2,367,4038
-189,333,4100
-360,368,4166
-461,383,4168
-534,427,4198
-577,415,4194
-580,355,4219
-593,297,4233
-688,324,4204
-941,430,4186
-1190,463,4155
-1288,405,4135
-1166,291,4095
-957,251,4021
-828,336,3996
-847,424,4034
-961,399,4060
-1090,346,4259
-1200,270,4327
-1235,214,4281
-1173,159,4162
-1072,131,4033
-1017,121,4002
-1062,103,4034
-1201,121,4166
-1417,121,4319
-1555,75,4415
-1543,17,4445
-1433,-26,4408
-1267,-104,4337
-1007,-170,4291
-739,-123,4355
-460,-53,4352
-311,98,4265
-317,239,4330
-388,137,4388
-389,-55,4440
-247,-132,4492
-54,-88,4477
171,-42,4388
388,-12,4369
497,-24,4384
526,-2,4391
472,78,4340
378,115,4312
260,56,4312
173,-36,4269
146,-23,4296
160,24,4366
234,41,4325
258,75,4233
223,119,4221
169,92,4220
154,29,4202
243,66,4233
414,106,4210
492,173,4154
464,217,4186
440,143,4237
489,50,4224
508,86,4221
470,128,4240
505,89,4226
585,83,4177
668,113,4166
720,101,4162
729,108,4114
619,157,4116
429,152,4172
285,125,4251
244,109,4275
262,82,4278
313,61,4278
369,74,4266
387,126,4253
297,170,4260
134,170,4247
-10,182,4273
-114,183,4343
-205,167,4368
-206,154,4363
-145,152,4321
-44,135,4267
32,157,4231
-111,188,4250
-201,182,4236
-293,209,4253
-334,201,4245
-325,194,4217
-304,197,4230
-284,193,4259
-254,215,4291
-240,234,4274
-248,224,4239
-264,191,4205
-266,179,4202
-298,199,4220
-383,218,4227
-425,225,4251
-419,208,4267
-409,212,4242
-375,212,4240
-329,188,4230
-305,190,4213
-289,224,4209
-280,245,4199
-297,243,4182
-312,234,4153
-333,225,4139
-371,213,4180
-384,207,4214
-388,212,4195
-378,255,4188
-375,269,4183
-321,249,4166
-256,231,4107
-230,230,4053
-228,238,4023
-279,236,4033
-368,229,4086
-441,224,4140
-479,256,4211
-474,251,4262
-422,220,4267
-356,213,4211
-317,210,4168
-278,210,4154
-305,203,4168
-383,193,4233
-469,205,4305
-524,217,4370
-495,212,4344
-412,227,4298
-345,240,4310
-308,222,4283
-305,225,4271
-347,235,4318
-405,211,4374
-293,308,4610
-216,341,4787
-203,409,5105
-182,407,5458
-103,370,5771
-44,398,6009
-32,474,6214
-69,542,6487
-195,539,6759
-445,545,7133
-686,521,7495
-784,563,7818
-730,664,8081
-609,734,8333
-491,691,8471
-366,657,8496
-303,649,8351
-423,597,8238
-564,378,8065
-636,202,7782
-769,128,7533
-790,-12,7241
-656,-173,6753
-404,-208,6093
-147,-213,5409
34,-229,4750
115,-198,4040
41,-106,3445
-137,-19,3012
-246,36,2670
-216,134,2309
-41,277,2058
216,390,1529
316,573,1196
313,703,972
397,717,804
567,755,566
760,928,329
809,1171,313
747,1276,171
688,1321,64
678,1321,-75
721,1403,-214
698,1591,-248
655,1734,-337
621,1804,-475
565,1736,-558
504,1585,-639
555,1477,-734
634,1488,-781
716,1539,-894
700,1580,-1021
575,1539,-1117
433,1460,-1182
463,1391,-1142
684,1322,-1060
933,1280,-1024
1040,1271,-880
934,1195,-553
646,1092,-28
494,885,346
517,651,438
611,552,692
623,381,1161
579,96,1638
546,-116,2000
424,-167,2579
212,-270,3034
65,-371,3674
-41,-465,4288
-44,-394,4909
44,-185,5480
2,1,5903
-49,-30,6243
0,-265,6434
40,-430,6704
81,-370,6894
-46,-13,7138
-324,239,7420
-521,158,7572
-577,-40,7690
-481,-249,7540
-334,-250,7294
-264,-67,7111
-224,109,6987
-299,287,6947
-550,207,6852
-544,9,6659
-499,-69,6540
-364,43,6539
-268,237,6697
-260,340,6862
-251,299,6931
-171,152,6924
-217,72,7040
-379,55,7196
-391,44,7301
-185,35,7405
149,-37,7476
434,-98,7527
570,-87,7568
532,-3,7648
411,51,7766
357,18,7844
448,22,7907
662,29,7937
888,-48,7874
1025,-121,7820
1035,-155,7749
1028,-132,7644
1006,-48,7542
851,17,7425
699,9,7224
485,2,7022
234,-8,6844
184,-34,6641
319,-102,6271
395,-176,5781
329,-182,5318
34,-115,4923
-382,-3,4509
-847,76,4030
-1287,132,3552
-1539,109,3045
-1530,90,2475
-1353,120,1946
-1098,198,1408
-942,314,764
-935,515,263
-1063,732,-104
-1167,872,-312
-1102,923,-515
-849,993,-632
-604,1115,-992
-499,1427,-1064
-550,1679,-969
-564,1685,-921
-423,1675,-890
-173,1743,-835
-18,1830,-890
10,1988,-896
-171,2087,-751
-409,1985,-597
-480,1852,-434
-351,1778,-334
-34,1774,-345
249,1804,-403
378,1802,-416
315,1760,-348
52,1695,-156
-187,1655,153
-318,1535,372
-297,1455,592
-139,1413,917
-28,1266,1231
34,1008,1430
211,842,1655
316,768,1916
221,805,2290
-39,806,2684
-339,656,3028
-583,522,3551
-608,404,4269
-476,340,4834
-171,562,5347
237,771,5676
555,830,5771
553,881,5949
288,775,6219
-39,562,6493
-298,469,6783
-475,460,6972
-419,530,6984
-214,755,6806
-69,1073,6798
99,1007,6774
316,757,6711
421,703,6719
423,777,6685
344,868,6527
173,862,6461
61,675,6418
19,518,6333
28,522,6318
107,517,6198
216,543,6027
170,622,5960
-31,595,5933
-168,518,5885
-212,447,5773
-228,478,5634
-266,568,5503
-246,543,5332
-131,466,5177
-32,427,5031
23,399,4904
22,388,4761
-24,417,4620
-116,494,4560
-227,461,4490
-252,432,4411
-158,457,4300
23,447,4161
170,434,4066
223,450,4011
210,474,4052
97,465,4063
-25,496,4072
-123,504,4102
-194,433,4154
-216,370,4181
-168,369,4102
-69,459,4038
3,556,3989
57,590,3977
71,576,3957
52,554,3968
-13,503,4018
-44,452,4047
-11,480,4063
31,540,4049
45,594,4013
84,608,4002
121,580,4022
133,510,4063
140,458,4058
105,476,4052
-9,547,4101
-125,567,4137
-130,552,4163
-3,528,4152
158,507,4107
269,561,4076
252,592,4139
141,578,4189
46,557,4198
-43,527,4251
-48,477,4267
20,490,4244
48,562,4240
49,618,4241
45,591,4243
111,529,4203
165,475,4189
218,477,4156
182,532,4161
70,588,4188
-32,582,4230
-98,527,4241
-114,497,4238
-128,494,4231
-165,504,4215
-155,538,4166
-114,597,4134
-115,631,4134
-183,631,4163
-236,593,4207
-241,535,4209
-233,556,4206
-215,584,4194
-209,551,4166
-229,547,4173
-271,534,4178
-296,533,4153
-294,591,4167
-339,625,4154
-387,629,4135
-447,602,4144
-510,571,4143
-577,573,4120
-663,578,4089
-738,566,4097
-799,543,4116
-838,510,4149
-909,511,4119
-1044,516,4088
-1178,502,4072
-1313,519,4105
-1400,527,4149
-1443,535,4141
-1490,559,4205
-1545,538,4242
-1588,507,4237
-1575,482,4265
-1485,386,4269
-1310,297,4181
-1109,315,4140
-967,366,4115
-947,351,4102
-1015,287,4164
-1069,242,4239
-1060,215,4255
-985,180,4245
-799,125,4223
-628,106,4193
-535,114,4194
-557,150,4244
-620,135,4283
-637,78,4228
-546,73,4130
-474,83,4062
-480,56,4096
-504,3,4125
-519,-2,4173
-521,-2,4225
-537,4,4275
-564,-22,4279
-492,-122,4220
-290,-198,4146
-6,-196,4078
198,-89,4058
158,52,4105
24,84,4184
-52,-7,4240
18,-100,4283
212,-108,4315
404,-42,4291
644,1,4284
832,16,4240
969,31,4214
1060,28,4255
1038,34,4253
881,91,4287
634,151,4419
384,99,4524
279,3,4550
379,-70,4547
600,-71,4483
721,13,4367
685,97,4333
547,103,4369
334,41,4383
193,31,4403
104,62,4410
53,75,4406
56,97,4439
60,102,4476
83,81,4458
90,84,4436
114,81,4399
142,39,4348
84,18,4318
-20,20,4318
-148,16,4333
-270,26,4352
-337,48,4365
-357,85,4383
-305,111,4346
-251,116,4299
-241,76,4211
-268,67,4168
-349,93,4190
-472,108,4210
-582,116,4244
-628,101,4252
-554,92,4241
-461,127,4214
-410,143,4195
-399,129,4166
-455,119,4160
-534,105,4139
-557,99,4108
-555,110,4108
-545,98,4140
-531,116,4165
-541,155,4189
-522,172,4194
-511,155,4218
-523,144,4193
-555,142,4175
-570,146,4179
-559,154,4177
-568,196,4183
-598,220,4245
-600,188,4296
-582,182,4331
-564,205,4410
-555,243,4471
-549,294,4536
-558,343,4649
-573,357,4809
-564,352,5021
-554,354,5233
-506,372,5490
-424,353,5737
-353,326,5909
-425,397,6175
-608,512,6575
-781,601,6999
-890,663,7428
-914,658,7808
-734,591,8015
-411,546,8111
-108,570,8147
95,635,8104
39,635,8083
-344,540,8190
-803,371,8370
-1104,229,8405
-1140,135,8248
-893,6,7775
-481,-83,7214
-97,-133,6574
122,-140,5963
129,-114,5377
-110,-90,4879
-499,-99,4445
-872,-99,4081
-997,-122,3677
-734,-187,3013
-203,-175,2238
206,-73,1490
443,79,933
527,261,513
394,458,138
202,719,79
119,873,-320
302,1019,-552
486,1086,-684
622,1072,-769
753,1040,-822
797,1051,-917
830,1144,-1022
852,1253,-1145
780,1332,-1215
702,1357,-1265
709,1369,-1306
625,1401,-1271
477,1426,-1194
360,1414,-1102
257,1400,-1057
175,1358,-1001
112,1268,-894
113,1127,-813
150,1040,-655
153,993,-380
101,870,-148
123,744,71
179,661,360
130,592,718
13,509,1053
-113,481,1471
-334,431,2077
-537,169,2606
-580,-180,3056
-460,-346,3596
-312,-297,4205
-260,-80,4645
-363,177,5093
-466,135,5363
-465,-171,5599
-378,-473,5891
-278,-570,6123
-370,-368,6448
-609,-118,6821
-834,-54,7077
-973,-153,7168
-975,-285,7130
-813,-353,6967
-688,-312,6757
-629,-204,6709
-741,-105,6905
-882,-54,7123
-918,-19,7354
-852,-35,7425
-721,-55,7389
-709,-55,7185
-712,-31,7016
-649,3,6936
-564,33,6944
-654,26,7052
-885,-36,7234
-1028,-134,7402
-938,-191,7411
-621,-201,7319
-333,-171,7227
-148,-182,7139
-149,-222,7099
-370,-268,7219
-576,-343,7334
-544,-399,7430
-323,-376,7511
-50,-317,7630
207,-225,7721
428,-159,7774
609,-201,7835
716,-292,7880
792,-343,7840
685,-354,7731
334,-352,7652
-89,-344,7670
-311,-297,7737
-227,-274,7566
68,-281,7179
358,-321,6734
436,-372,6409
355,-417,6139
149,-447,5789
-244,-450,5404
-755,-454,5067
-1134,-469,4676
-1251,-452,4248
-1048,-394,3600
-790,-260,2863
-616,-72,2414
-536,-14,2000
-586,46,1543
-792,196,1199
-1013,353,887
-1255,552,495
-1420,867,416
-1384,1037,142
-1043,1085,-107
-516,1086,-376
-62,1154,-638
188,1360,-900
180,1693,-978
-60,1872,-915
-447,1766,-851
-636,1594,-780
-489,1526,-789
-161,1620,-887
28,1831,-910
41,1983,-885
16,2021,-747
78,1939,-709
188,1907,-673
259,1983,-592
253,2005,-487
78,1990,-291
-143,1918,95
-154,1650,378
53,1442,498
339,1442,583
609,1404,642
731,1278,823
681,1128,1134
589,962,1433
497,922,1662
298,1012,2059
-56,955,2499
-311,641,2813
-325,311,3006
-245,34,3112
-105,-67,3383
4,-87,3850
44,-136,4111
18,87,4515
-121,431,5120
-215,528,5642
-307,480,6142
-387,334,6463
-399,162,6620
-287,49,6603
-55,-25,6488
48,50,6489
-119,326,6749
-583,583,7188
-1074,525,7426
-1314,329,7474
-1128,166,7411
-615,136,7212
-148,386,7081
-24,666,6911
-228,670,6806
-586,402,6715
-897,161,6627
-1074,151,6548
-1030,295,6435
-894,437,6323
-750,419,6181
-582,250,5949
-467,197,5708
-461,295,5550
-539,339,5405
-596,273,5288
-571,195,5154
-556,163,5025
-563,148,4928
-578,150,4804
-608,194,4709
-590,194,4608
-512,191,4460
-426,203,4284
-392,231,4205
-431,224,4187
-469,208,4180
-444,186,4185
-444,183,4184
-509,197,4216
-566,168,4197
-523,162,4182
-398,172,4115
-226,179,4032
-19,186,3974
101,185,3932
5,179,3947
-217,158,3989
-361,136,4076
-341,102,4106
-199,110,4034
10,184,3902
142,242,3796
138,257,3765
-3,249,3846
-118,218,3948
-191,184,3992
-221,183,4021
-292,217,4060
-434,222,4120
-570,223,4195
-657,215,4245
-711,231,4240
-739,248,4280
-817,223,4329
-942,206,4354
-1086,196,4400
-1265,187,4419
-1401,216,4393
-1504,269,4360
-1640,277,4340
-1790,241,4309
-1912,190,4280
-1945,124,4273
-1900,114,4290
-1816,151,4252
-1704,213,4218
-1569,242,4203
-1477,211,4173
-1433,212,4204
-1385,190,4277
-1311,102,4301
-1162,38,4265
-961,30,4235
-811,46,4227
-723,77,4189
-683,104,4190
-667,66,4238
-670,-15,4286
-741,-53,4274
-763,-44,4247
-683,-34,4259
-574,-55,4230
-455,-54,4219
-336,-40,4259
-283,-16,4214
-326,28,4192
-389,13,4144
-414,-44,4126
-358,-82,4094
-247,-47,4064
-134,58,4077
-14,105,4105
32,131,4121
-10,182,4189
-79,186,4246
-104,98,4256
-12,29,4253
170,0,4209
301,34,4112
317,136,4100
216,158,4135
76,103,4176
-7,102,4238
-38,118,4274
-59,128,4289
-149,182,4283
-97,70,4197
11,138,4165
131,169,4129
183,160,4083
-196,125,4173
-432,80,4238
-526,59,4281
-510,70,4301
-376,85,4307
-150,123,4319
38,149,4243
59,197,4186
17,188,4183
-60,120,4184
-240,86,4249
-435,80,4332
-523,115,4384
-468,134,4371
-290,171,4365
-124,186,4301
-26,190,4234
2,187,4205
-4,177,4189
-78,191,4182
-191,204,4189
-263,191,4221
-294,156,4291
-261,159,4287
-198,176,4227
-99,194,4169
-32,198,4114
-28,186,4108
-90,209,4153
-209,237,4179
-283,230,4214
-281,205,4245
-274,197,4252
-237,195,4258
-182,179,4224
-117,183,4197
-93,196,4158
-112,203,4128
-158,177,4127
-249,162,4167
-356,165,4204
-406,184,4240
-346,188,4262
-278,214,4216
-280,251,4180
-348,239,4217
-374,175,4237
-339,159,4227
-312,210,4227
-298,226,4224
-292,177,4227
-311,173,4233
-377,194,4257
-431,181,4277
-462,156,4252
-524,176,4217
-570,201,4215
-558,212,4187
-493,236,4189
-440,246,4171
-435,234,4189
-445,229,4236
-442,222,4259
-439,241,4290
-435,281,4286
-463,276,4254
-491,273,4235
-473,247,4189
-409,242,4138
-403,244,4184
-466,233,4221
-532,231,4266
-564,246,4303
-551,245,4297
-548,223,4254
-533,205,4244
-526,193,4209
-520,201,4177
-494,204,4140
-482,236,4158
-485,230,4177
-519,212,4227
-543,212,4226
-579,255,4231
-590,269,4232
-576,271,4253
-548,269,4266
-519,296,4250
-507,310,4204
-484,274,4184
-455,218,4149
-452,211,4123
-516,247,4150
-602,281,4223
-630,266,4265
-586,262,4248
-518,257,4230
-481,226,4190
-491,247,4192
-518,247,4204
-529,246,4209
-556,241,4204
-556,228,4171
-520,219,4187
-482,222,4192
-482,230,4205
-476,228,4214
-484,223,4191
-503,244,4184
-500,241,4180
-499,223,4175
-493,225,4181
-452,242,4174
-419,248,4145
-437,263,4173
-502,248,4226
-541,234,4284
-536,231,4269
-496,231,4209
-482,244,4173
-491,247,4162
-482,250,4168
-498,255,4191
-540,261,4210
-557,246,4226
-554,241,4234
-557,247,4228
-552,246,4242
-530,235,4239
-484,238,4214
-437,257,4206
-436,282,4213
-468,282,4265
-487,262,4338
-479,268,4419
-498,308,4524
-501,335,4641
-474,319,4748
-436,316,4888
-414,341,5097
-398,376,5287
-440,456,5466
-534,515,5691
-573,498,5947
-545,492,6241
-531,594,6634
-491,716,6988
-503,834,7436
-525,888,7947
-454,885,8390
-361,847,8563
-296,803,8649
-218,658,8658
-222,503,8643
-441,399,8595
-718,217,8372
-743,-28,7902
-560,-166,7312
-284,-197,6698
8,-247,5973
184,-275,5163
197,-206,4506
144,-181,3965
98,-213,3397
87,-178,2921
97,-108,2413
144,-31,1856
199,83,1413
164,201,1200
96,275,848
37,441,692
-10,648,440
28,853,246
224,1044,146
549,1190,133
863,1332,70
996,1495,60
947,1555,41
782,1504,37
602,1387,45
546,1346,32
595,1394,-80
624,1429,-262
632,1427,-403
536,1400,-476
325,1429,-510
48,1502,-561
-109,1486,-620
-95,1399,-634
2,1275,-668
197,1095,-735
356,899,-858
393,745,-860
218,584,-725
-76,496,-476
-365,523,-75
-501,451,248
-377,262,534
-68,94,937
258,-70,1519
455,-179,2052
424,-130,2675
181,-73,3397
-169,-239,4238
-425,-497,5187
-571,-589,6033
-574,-490,6675
-404,-367,7113
-287,-363,7413
-262,-469,7581
-296,-477,7705
-418,-376,7854
-652,-267,7928
-893,-220,7847
-1065,-266,7742
-1210,-405,7578
-1248,-481,7452
-1232,-371,7478
-1159,-142,7520
-992,113,7616
-828,229,7872
-702,163,8063
-552,101,8159
-421,45,8237
-409,0,8301
-567,70,8493
-833,62,8756
-869,-91,8968
-652,-181,9041
-385,-148,9066
-191,-72,9048
-61,-98,9019
-20,-236,8889
-42,-297,8716
-81,-223,8330
-70,-222,8055
-34,-277,7708
-9,-363,7409
52,-395,7194
136,-394,6898
114,-338,6621
17,-309,6293
-82,-302,6021
-181,-322,5712
-188,-322,5356
-178,-237,4929
-167,-153,4437
-205,-91,4035
-295,-54,3626
-394,-10,3245
-531,43,2837
-584,135,2445
-565,278,2123
-691,415,1685
-963,562,1243
-1169,706,880
-1145,825,659
-881,890,421
-535,927,-27
-139,1083,-409
112,1304,-682
121,1436,-908
-92,1559,-1039
-384,1628,-1062
-617,1611,-1125
-679,1652,-1191
-452,1725,-1207
-273,1717,-1288
-173,1699,-1357
-95,1688,-1400
-63,1665,-1454
-54,1634,-1487
-1,1617,-1464
73,1571,-1369
150,1503,-1276
174,1509,-1124
73,1565,-862
26,1596,-430
48,1454,28
136,1228,386
350,1041,668
643,866,927
925,727,1228
955,609,1585
772,561,2106
582,589,2761
457,507,3311
443,313,4000
474,88,4392
590,33,4749
683,-25,5025
703,-102,5269
631,-208,5529
457,-259,5646
181,-30,5831
-134,272,6292
-404,281,6834
-458,108,7160
-216,-34,7099
-18,16,6895
29,187,6902
-32,360,7049
-106,442,7188
-161,348,7218
-201,196,7105
-316,166,7066
-434,199,7063
-415,189,6999
-283,224,6777
-256,482,6673
-447,625,6767
-657,414,6716
-715,186,6518
-628,52,6204
-379,36,5820
-133,160,5496
-79,252,5275
-146,249,5143
-259,216,5017
-334,199,4918
-395,267,4905
-454,311,4889
-454,266,4804
-304,177,4613
-69,132,4424
190,141,4249
336,194,4151
268,191,4168
31,131,4249
-144,64,4293
-218,55,4316
-262,72,4319
-261,102,4304
-206,179,4274
-136,195,4195
-11,183,4129
76,153,4058
65,144,4075
-47,143,4156
-178,108,4218
-220,88,4200
-197,126,4192
-140,140,4165
-66,158,4188
4,170,4198
50,167,4130
64,176,4046
22,179,4048
-70,155,4112
-101,106,4182
-87,66,4209
-33,62,4176
-34,126,4202
-84,148,4283
-141,114,4284
-138,139,4247
-91,157,4198
-5,158,4174
98,147,4180
148,147,4214
138,137,4228
80,145,4245
-18,150,4267
-151,151,4321
-259,145,4346
-326,143,4350
-347,161,4365
-303,155,4337
-204,151,4288
-115,139,4241
-104,123,4183
-197,134,4190
-345,160,4250
-483,138,4307
-562,127,4303
-538,141,4275
-482,157,4212
-451,179,4144
-471,192,4114
-472,175,4108
-442,157,4122
-404,158,4139
-324,157,4128
-276,142,4049
-346,176,4080
-489,198,4151
-592,132,4146
-643,77,4147
-672,60,4132
-743,96,4178
-850,112,4231
-962,79,4205
-1047,102,4133
-1100,178,4117
-1151,183,4162
-1240,135,4177
-1269,110,4220
-1200,84,4244
-1123,64,4237
-1080,75,4251
-1114,94,4272
-1152,84,4208
-1083,54,4280
-1019,-12,4299
-948,-31,4269
-912,-14,4221
-893,-29,4206
-845,-73,4222
-778,-72,4257
-739,-32,4314
-709,9,4358
-654,3,4390
-596,-30,4368
-604,-13,4328
-654,-35,4271
-686,-85,4213
-676,-125,4223
-695,-128,4197
-781,-76,4159
-892,-46,4270
-941,-107,4419
-872,-180,4495
-787,-152,4482
-656,-134,4381
-441,-124,4235
-297,-133,4086
-285,-119,4066
-403,-123,4201
-519,-194,4337
-510,-198,4358
-444,-113,4340
-306,-112,4359
-104,-146,4331
78,-131,4297
187,-75,4263
269,-25,4241
318,-26,4203
299,-41,4182
267,-76,4171
294,-127,4161
366,-144,4175
453,-102,4196
542,-48,4212
558,-2,4192
497,-16,4166
440,-44,4193
459,-70,4201
525,-66,4153
536,-14,4103
471,46,4117
303,44,4169
146,6,4209
87,-32,4235
187,-28,4202
256,41,4115
185,109,4142
118,79,4192
178,-4,4201
223,-4,4181
177,32,4185
69,42,4197
-84,33,4257
-191,-9,4316
-219,-38,4312
-189,-15,4264
-153,25,4233
-148,63,4238
-171,75,4247
-251,72,4280
-307,72,4324
-329,62,4329
-314,59,4287
-323,69,4265
-361,87,4240
-398,77,4223
-426,77,4188
-427,75,4202
-384,75,4197
-360,108,4185
-387,156,4194
-432,141,4203
-451,119,4238
-420,104,4254
-362,108,4237
-352,144,4204
-442,133,4168
-527,99,4176
-545,73,4167
-518,87,4161
-487,119,4192
-475,152,4237
-492,155,4270
-515,163,4292
-525,156,4287
-517,146,4244
-475,154,4226
-419,158,4192
-416,174,4162
-495,157,4181
-559,129,4214
-550,106,4218
-479,129,4226
-427,150,4215
-412,161,4225
-398,178,4209
-404,163,4203
-422,146,4203
-437,117,4192
-460,115,4184
-501,118,4193
-565,112,4211
-613,127,4253
-598,141,4278
-537,140,4269
-463,170,4222
-422,182,4174
-432,180,4145
-494,154,4160
-533,132,4168
-556,157,4170
-552,165,4186
-550,165,4221
-526,152,4235
-497,156,4200
-478,180,4178
-479,183,4193
-504,176,4225
-529,189,4239
-533,187,4255
-490,196,4342
-518,216,4490
-658,242,4745
-774,256,5029
-761,280,5321
-598,345,5613
-379,375,5864
-201,371,6133
-88,328,6397
-106,311,6616
-327,347,6860
-688,373,7227
-1017,396,7673
-1137,418,8019
-1011,450,8213
-741,461,8285
-431,436,8269
-213,413,8132
-75,399,7873
-106,371,7642
-298,323,7516
-493,268,7428
-623,175,7164
-679,158,6920
-599,126,6563
-326,75,6006
42,39,5467
381,-3,4886
527,14,4297
388,59,3761
70,110,3312
-199,238,2959
-283,301,2620
-190,324,2278
165,340,1933
536,378,1433
769,512,1001
841,663,633
740,770,319
560,894,72
410,1021,-132
409,1163,-312
542,1307,-442
699,1335,-710
872,1327,-920
975,1258,-1178
930,1164,-1451
840,1059,-1762
710,1054,-1987
475,1197,-2069
265,1252,-2100
201,1251,-2059
185,1255,-1921
150,1214,-1750
157,1162,-1595
170,1096,-1437
129,979,-1202
145,828,-929
255,717,-692
324,686,-383
304,606,2
170,428,405
-127,247,992
-456,-19,1573
-619,-279,2218
-745,-451,2702
-848,-505,3155
-830,-531,3754
-769,-689,4320
-707,-931,4625
-594,-939,4891
-572,-692,5290
-752,-458,5783
-999,-380,6296
-1190,-400,6871
-1259,-425,7236
-1194,-349,7325
-1023,-223,7497
-889,-242,7631
-886,-316,7743
-944,-349,7924
-1084,-338,8143
-1252,-241,8377
-1406,-111,8661
-1467,-89,8913
-1400,-134,9128
-1214,-132,9312
-957,-36,9366
-735,93,9364
-627,141,9445
-638,95,9641
-750,51,9868
-790,-19,10142
-658,-143,10176
-478,-197,10061
-279,-222,9906
-114,-224,9691
-256,-495,8408
-255,-606,7976
-266,-623,7574
-363,-580,7215
-490,-579,6846
-542,-670,6396
-546,-772,5884
-606,-788,5323
-645,-741,4871
-619,-690,4402
-572,-649,3809
-502,-564,3150
-428,-426,2672
-451,-282,2162
-531,-107,1757
-618,60,1482
-710,151,1130
-826,232,667
-938,459,330
-982,718,167
-973,814,-123
-778,852,-487
-486,945,-872
-160,1124,-1101
94,1302,-1218
133,1443,-1282
93,1604,-1137
-28,1662,-1096
-110,1671,-1201
-129,1708,-1330
-100,1819,-1393
-100,1959,-1305
-75,1986,-1138
5,1868,-1082
87,1814,-999
174,1806,-897
191,1784,-848
75,1782,-772
-172,1804,-654
-380,1766,-517
-471,1626,-347
-388,1417,-91
-152,1167,222
31,892,486
127,729,680
201,665,849
305,627,1102
213,597,1447
-68,596,1930
-275,444,2457
-354,96,2867
-284,-271,3198
-58,-476,3588
245,-524,3956
405,-368,4600
189,-310,5226
-221,-440,5550
-541,-472,5959
-754,-377,6447
-917,-244,6971
-968,-172,7355
-937,-103,7396
-931,76,7634
-1040,36,7942
-1157,-178,7991
-1097,-241,7855
-890,-187,7527
-739,-19,7251
-749,263,7154
-946,588,7269
-1350,691,7395
-1648,411,7330
-1595,53,7102
-1195,-168,6803
-690,-162,6417
-327,-29,6097
-236,118,5852
-507,288,5709
-878,354,5673
-1113,224,5649
-1143,53,5636
-986,-37,5485
-712,25,5348
-418,77,5226
-256,27,5045
-259,-36,4874
-395,-75,4770
-571,-72,4700
-730,9,4658
-814,26,4610
-776,-50,4520
-617,-94,4451
-444,-81,4354
-352,-24,4241
-325,21,4173
-344,39,4147
-405,24,4108
-519,26,4126
-629,4,4146
-626,-64,4148
-546,-91,4079
-383,-60,4061
-278,-53,3976
-277,0,3947
-344,62,3993
-442,41,4064
-485,-27,4090
-483,-65,4097
-491,-38,4050
-474,13,4020
-463,47,4030
-412,51,4067
-364,70,4083
-322,54,4071
-303,25,4067
-315,-9,4123
-354,-9,4171
-380,44,4156
-429,91,4175
-500,40,4203
-547,-2,4186
-524,53,4193
-478,78,4175
-390,83,4152
-326,104,4146
-312,121,4143
-329,120,4140
-337,83,4145
-348,49,4148
-404,66,4168
-469,86,4193
-515,97,4227
-523,66,4215
-510,59,4209
-497,51,4210
-488,35,4201
-488,36,4201
-508,51,4233
-481,66,4261
-438,68,4220
-385,84,4190
-401,84,4133
-496,81,4148
-611,76,4186
-683,62,4208
-702,105,4225
-653,107,4193
-568,96,4162
-477,108,4142
-473,121,4142
-537,100,4146
-641,96,4178
-731,105,4242
-732,77,4251
-711,70,4189
-672,96,4139
-629,105,4117
-650,99,4092
-676,96,4099
-761,102,4124
-907,57,4174
-1070,39,4247
-1204,43,4299
-1308,58,4313
-1349,57,4251
-1361,88,4160
-1433,127,4114
-1559,116,4077
-1654,25,4090
-1695,-67,4096
-1726,-63,4050
-1780,12,4066
-1930,86,4179
-2142,116,4259
-2178,50,4317
-2021,-69,4239
-1752,-158,4126
-1478,-184,4018
-1363,-108,3921
-1440,-36,3924
-1567,-64,4032
-1702,-143,4088
-1800,-193,4139
-1719,-249,4185
-1514,-343,4181
-1242,-381,4107
-1005,-292,3943
-914,-111,3945
-984,-73,3974
-1085,-198,4033
-1160,-328,4085
-1172,-327,4162
-1103,-223,4292
-945,-152,4346
-769,-87,4258
-566,-84,4196
-415,-185,4169
-352,-277,4119
-426,-303,4091
-588,-214,4199
-708,-109,4397
-787,-34,4570
-855,-18,4573
-809,-90,4451
-651,-229,4319
-505,-351,4211
-338,-369,4199
-204,-305,4204
-289,-188,4225
-469,-113,4340
-598,-197,4437
-616,-297,4378
-576,-287,4271
-516,-248,4185
-436,-238,4155
-350,-209,4081
-298,-126,4082
-237,-106,4165
-176,-134,4212
-161,-104,4251
-225,-80,4293
-209,-136,4327
-128,-216,4264
-35,-205,4206
17,-158,4145
67,-137,4151
105,-106,4208
60,-100,4238
25,-114,4229
-14,-153,4203
-56,-181,4207
-91,-161,4258
-68,-151,4295
-26,-111,4294
11,-34,4217
2,4,4158
-69,-42,4107
-163,-86,4097
-257,-80,4119
-335,-78,4160
-412,-64,4172
-457,-56,4157
-446,-30,4159
-426,-19,4157
-441,-34,4135
-488,-70,4120
-507,-108,4091
-508,-95,4022
-570,-35,4040
-687,-14,4108
-787,-20,4157
-817,-50,4194
-749,-65,4163
-667,-26,4128
-653,15,4127
-685,23,4117
-730,9,4137
-782,4,4180
-812,8,4191
-815,50,4193
-856,92,4198
-897,80,4240
-915,40,4283
-909,46,4302
-861,76,4300
-822,119,4301
-836,136,4310
-860,95,4310
-874,47,4307
-879,19,4302
-905,46,4273
-926,75,4250
-933,90,4242
-942,90,4257
-929,65,4254
-875,49,4242
-815,66,4203
-835,91,4201
-897,103,4215
-949,109,4243
-955,123,4254
-944,134,4240
-939,137,4218
-916,123,4196
-874,102,4168
-875,110,4125
-873,130,4109
-866,120,4118
-868,100,4148
-877,117,4141
-899,121,4148
-915,111,4148
-902,97,4135
-864,138,4129
-871,163,4121
-904,170,4127
-888,144,4139
-849,142,4145
-836,168,4138
-861,145,4141
-891,145,4155
-922,136,4191
-916,122,4188
-903,108,4196
-864,114,4157
-834,130,4136
-837,123,4130
-845,100,4153
-834,103,4161
-820,97,4152
-823,99,4164
-846,70,4170
-859,48,4141
-861,71,4118
-879,111,4135
-907,141,4153
-920,156,4179
-910,143,4194
-863,117,4181
-805,122,4140
-784,118,4125
-810,129,4108
-872,155,4128
-934,145,4184
-906,138,4165
-877,137,4147
-871,146,4142
-853,153,4131
-835,171,4125
-823,163,4117
-819,146,4139
-825,134,4143
-862,142,4152
-902,152,4178
-916,152,4175
-928,142,4182
-925,125,4169
-919,131,4168
-933,159,4194
-925,165,4224
-888,146,4236
-829,133,4195
-811,147,4157
-828,197,4183
-869,204,4236
-891,175,4248
-866,151,4207
-826,140,4184
-822,171,4183
-893,197,4193
-947,183,4210
-892,152,4228
-806,157,4224
-786,179,4200
-797,178,4195
-783,158,4180
-789,151,4157
-844,161,4161
-919,149,4196
-949,143,4206
-922,143,4214
-894,165,4186
-831,159,4171
-774,154,4185
-743,159,4185
-756,167,4153
-825,181,4153
-895,172,4175
-920,159,4173
-898,168,4173
-850,177,4156
-818,181,4117
-826,183,4124
-811,187,4149
-783,180,4137
-759,186,4133
-741,198,4125
-743,200,4123
-760,198,4090
-798,205,4101
-819,193,4132
-840,174,4137
-856,167,4153
-844,172,4143
-812,165,4153
-787,172,4157
-768,185,4154
-770,195,4142
-803,183,4149
-823,173,4140
-851,179,4153
-848,169,4159
-839,174,4157
-844,171,4170
-829,164,4179
-804,161,4171
-796,168,4171
-800,179,4168
-815,181,4164
-830,172,4188
-845,176,4188
-816,161,4162
-788,171,4188
-759,169,4181
-757,158,4193
-779,161,4204
-821,149,4218
-836,150,4218
-821,148,4198
-812,147,4185
-813,148,4170
-804,155,4172
-815,172,4173
-844,169,4156
-843,157,4175
-845,142,4183
-846,131,4185
-843,118,4167
-823,139,4174
-829,160,4168
-858,164,4163
