AccelerometerX,AccelerometerY,AccelerometerZ
-356,599,4188
-369,617,4197
-406,613,4198
-431,599,4199
-441,585,4204
-428,574,4185
-401,596,4179
-395,606,4181
-399,608,4187
-426,594,4190
-423,588,4181
-418,568,4190
-399,563,4190
-380,575,4180
-380,580,4187
-375,565,4192
-391,550,4183
-398,563,4185
-415,566,4188
-415,562,4173
-426,574,4167
-433,582,4181
-431,601,4183
-410,613,4180
-408,627,4192
-412,628,4201
-427,601,4203
-397,578,4188
-354,586,4174
-338,589,4183
-340,583,4207
-341,571,4189
-345,571,4181
-356,587,4196
-387,602,4208
-430,613,4216
-453,628,4226
-446,624,4236
-432,628,4228
-415,628,4219
-413,631,4208
-399,623,4209
-377,608,4205
-373,603,4209
-393,593,4231
-408,588,4242
-392,598,4247
-383,612,4246
-380,612,4238
-394,594,4239
-388,596,4208
-375,612,4208
-387,617,4222
-399,614,4226
-406,620,4224
-400,621,4206
-377,617,4185
-368,627,4184
-361,641,4216
-370,632,4200
-373,632,4194
-380,621,4186
-362,615,4181
-345,639,4173
-364,641,4180
-385,646,4175
-388,638,4169
-387,641,4185
-392,662,4187
-388,646,4184
-387,636,4169
-361,638,4157
-348,635,4144
-343,651,4137
-349,653,4167
-364,668,4218
-378,667,4239
-404,640,4228
-405,623,4187
-385,625,4165
-370,641,4158
-349,665,4185
-362,661,4227
-398,653,4214
-408,666,4203
-420,662,4225
-455,641,4242
-417,661,4253
-388,665,4251
-369,658,4243
-353,637,4218
-359,627,4205
-363,626,4203
-372,631,4210
-376,637,4233
-358,638,4227
-345,641,4232
-353,647,4229
-351,650,4240
-333,641,4242
-324,641,4255
-338,644,4260
-339,630,4253
-324,622,4235
-323,631,4212
-266,636,4234
-280,638,4223
-305,630,4191
-330,622,4187
-319,622,4194
-301,619,4209
-311,621,4215
-319,634,4213
-319,647,4203
-329,660,4213
-327,651,4217
-324,647,4221
-314,648,4207
-318,628,4189
-314,626,4178
-305,627,4180
-322,643,4179
-331,650,4187
-331,667,4200
-325,676,4203
-307,666,4199
-288,661,4185
-279,657,4158
-282,659,4160
-276,673,4168
-286,698,4151
-311,698,4152
-334,674,4153
-340,659,4172
-331,658,4177
-322,664,4159
-314,678,4154
-295,685,4145
-285,705,4141
-296,721,4161
-306,713,4181
-331,708,4188
-346,680,4196
-337,655,4183
-301,635,4166
-291,632,4165
-270,644,4180
-246,652,4189
-258,652,4200
-275,654,4197
-285,651,4204
-311,657,4222
-307,670,4219
-291,669,4220
-283,683,4210
-294,688,4199
-308,672,4191
-284,657,4173
-269,658,4154
-269,669,4163
-266,684,4182
-251,691,4193
-264,697,4188
-290,681,4186
-321,670,4188
-318,649,4178
-293,653,4156
-271,653,4169
-270,655,4191
-283,663,4202
-285,667,4223
-296,652,4226
-295,636,4218
-280,629,4199
-282,646,4204
-283,658,4233
-292,684,4251
-328,679,4270
-359,670,4283
-348,667,4277
-335,671,4259
-323,667,4234
-320,648,4230
-301,671,4239
-304,673,4237
-305,660,4221
-296,654,4221
-257,660,4204
-256,657,4179
-263,648,4158
-281,651,4164
-296,651,4164
-320,644,4177
-335,633,4176
-305,635,4144
-276,651,4106
-271,657,4092
-286,652,4094
-265,647,4100
-236,668,4106
-244,656,4104
-242,637,4109
-223,643,4098
-201,645,4089
-206,659,4116
-229,661,4146
-233,652,4166
-232,659,4187
-256,665,4209
-274,653,4221
-284,641,4261
-276,632,4269
-258,629,4296
-245,618,4300
-246,620,4297
-288,616,4314
-327,615,4318
-309,614,4309
-247,609,4268
-216,624,4273
-239,652,4286
-289,655,4282
-315,644,4298
-341,648,4319
-357,642,4307
-331,614,4284
-293,611,4259
-252,636,4250
-246,648,4264
-271,654,4303
-296,643,4351
-311,633,4412
-275,661,4449
-236,718,4497
-253,790,4657
-281,865,4913
-404,844,5269
-486,826,5612
-510,913,5931
-584,1046,6280
-684,1103,6734
-731,1095,7339
-712,1064,7899
-597,980,8147
-391,947,8157
-199,973,8074
-92,1110,7979
-73,1390,8032
-256,1643,8170
-593,1609,8383
-839,1394,8355
-806,1107,7995
-529,824,7428
-175,677,6801
43,700,6293
81,792,6019
14,767,5732
-73,640,5424
-173,494,5061
-216,384,4584
-200,328,4028
-184,247,3557
-214,150,3025
-153,206,2661
-60,365,2323
-3,429,1959
-11,541,1604
-68,701,1288
12,759,932
147,802,564
350,946,272
621,1141,9
872,1251,-335
997,1323,-695
1039,1346,-966
1059,1293,-1152
1146,1265,-1293
1308,1303,-1531
1440,1405,-1762
1426,1486,-1916
1360,1519,-1998
1297,1593,-1820
1196,1682,-1560
1205,1673,-1359
1263,1575,-1247
1343,1469,-1191
1461,1399,-1182
1518,1370,-1106
1466,1355,-932
1375,1264,-644
1239,1129,-371
1134,982,-170
1032,841,16
1001,714,180
938,675,405
807,740,713
573,828,1038
365,741,1281
312,426,1533
335,50,1759
349,-158,2106
121,10,2707
-402,447,3329
-952,750,3922
-1363,834,4471
-1538,764,5002
-1535,521,5356
-1200,264,5550
-935,369,5873
-1123,798,6482
-1399,1011,7375
-1648,1026,8312
-1870,1027,9154
-2010,1048,9893
-2007,1085,10391
-1855,1162,10724
-1543,1273,10843
-1107,1492,10909
-683,1609,11083
-345,1637,11347
-187,1604,11614
-53,1467,11739
57,1240,11508
134,1058,11094
195,936,10586
290,815,10031
352,844,9563
247,1060,9293
-28,1187,9077
-372,1225,9038
-677,1188,9050
-749,1040,8819
-682,739,8393
-555,367,7782
-287,15,6967
-28,-195,6206
158,-316,5544
328,-455,4897
436,-617,4247
383,-711,3720
172,-670,3232
-116,-642,2729
-406,-556,2271
-579,-412,1827
-607,-298,1333
-544,-209,760
-412,-82,309
-195,116,-152
80,345,-799
295,604,-1455
458,828,-1996
567,1000,-2303
603,1192,-2433
799,1348,-2486
822,1517,-2510
620,1763,-2415
375,1980,-2297
231,2084,-2209
230,2075,-2123
412,1989,-2061
754,1852,-2045
1033,1704,-2082
1204,1619,-2016
1344,1514,-1959
1427,1532,-1825
1437,1662,-1660
1343,1778,-1542
1142,1756,-1322
911,1555,-1095
746,1386,-898
575,1403,-596
358,1469,-245
173,1474,103
-28,1411,491
-278,1300,941
-517,1122,1359
-700,872,1770
-901,682,2147
-929,693,2439
-1001,910,2743
-1254,1163,3031
-1434,1078,3218
-1337,640,3454
-992,224,3683
-633,152,3870
-428,485,4110
-598,1031,4478
-1118,1519,4951
-1595,1675,5672
-1857,1648,6435
-2041,1625,7192
-2056,1507,7811
-1646,1566,8130
-1137,1739,8201
-1038,1726,8312
-1005,1425,8580
-842,979,9105
-767,518,9589
-733,274,9718
-707,392,9469
-863,741,8982
-1217,1032,8449
-1504,1193,8000
-1629,1314,7617
-1705,1337,7211
-1768,1248,6777
-1761,1111,6341
-1616,1029,5894
-1397,908,5465
-1136,811,5067
-912,828,4729
-816,984,4427
-808,1135,4180
-833,1118,3955
-844,1010,3782
-833,879,3706
-777,777,3664
-685,731,3635
-608,731,3591
-605,789,3554
-682,891,3612
-776,945,3686
-813,925,3722
-802,881,3785
-748,864,3853
-663,841,3878
-577,851,3865
-570,900,3862
-564,952,3820
-552,998,3828
-561,1040,3857
-576,1073,3943
-599,1053,4012
-674,992,4097
-757,975,4186
-784,953,4212
-732,937,4191
-660,945,4141
-615,963,4110
-587,952,4106
-579,930,4113
-587,917,4116
-599,918,4138
-590,932,4135
-591,954,4110
-583,990,4077
-613,1009,4072
-621,998,4092
-643,968,4107
-650,947,4099
-611,947,4083
-581,948,4090
-604,988,4112
-619,1020,4130
-610,1041,4161
-623,1020,4191
-618,980,4176
-610,940,4135
-606,917,4091
-591,927,4084
-574,985,4112
-590,1024,4145
-645,1015,4172
-681,997,4185
-688,982,4144
-640,959,4079
-600,983,4054
-581,1017,4038
-600,1046,4066
-666,1041,4120
-699,1002,4115
-698,963,4109
-651,952,4075
-597,972,4004
-572,1005,3994
-566,1040,4017
-591,1069,4041
-641,1064,4072
-690,1082,4106
-758,1086,4131
-769,1042,4120
-711,1024,4088
-654,1039,4049
-618,1067,4024
-599,1079,4023
-620,1073,4056
-666,1073,4089
-718,1066,4098
-739,1083,4127
-714,1084,4155
-665,1069,4123
-633,1092,4085
-650,1125,4088
-670,1108,4128
-687,1070,4174
-685,1060,4195
-664,1071,4191
-660,1058,4187
-628,1056,4174
-580,1080,4174
-574,1076,4151
-598,1078,4181
-636,1059,4221
-632,1011,4164
-627,1018,4130
-646,1066,4120
-631,1077,4130
-581,1074,4124
-560,1099,4112
-587,1132,4116
-623,1110,4095
-640,1078,4086
-639,1045,4107
-600,1013,4125
-548,1033,4105
-548,1056,4088
-609,1071,4090
-659,1093,4098
-676,1090,4087
-670,1082,4080
-645,1080,4088
-612,1067,4069
-598,1058,4062
-590,1066,4078
-604,1089,4089
-644,1083,4089
-674,1058,4090
-691,1049,4087
-695,1056,4083
-696,1078,4088
-692,1089,4088
-716,1100,4087
-737,1098,4079
-748,1065,4079
-723,1054,4084
-694,1079,4097
-670,1121,4108
-661,1128,4123
-687,1117,4137
-690,1103,4140
-673,1088,4123
-685,1096,4127
-685,1091,4142
-660,1082,4156
-666,1099,4154
-701,1124,4151
-735,1111,4137
-756,1076,4113
-745,1057,4071
-784,1080,4052
-838,1115,4050
-909,1149,4073
-957,1217,4101
-1016,1251,4094
-1061,1246,4071
-1099,1225,4036
-1114,1219,4034
-1094,1216,4063
-1098,1233,4048
-1142,1245,4026
-1179,1251,4021
-1206,1262,4013
-1235,1277,4004
-1289,1302,4037
-1343,1316,4082
-1419,1297,4113
-1503,1280,4128
-1572,1258,4138
-1613,1258,4197
-1607,1252,4172
-1571,1296,4120
-1544,1323,4120
-1492,1318,4078
-1427,1348,4058
-1404,1395,4091
-1394,1440,4113
-1418,1484,4112
-1465,1467,4132
-1483,1445,4139
-1477,1435,4120
-1452,1412,4134
-1429,1384,4155
-1372,1348,4169
-1263,1320,4125
-1149,1288,4082
-1070,1247,4018
-946,1228,4002
-835,1209,4011
-740,1203,4032
-741,1224,4050
-835,1234,4048
-916,1224,4088
-914,1207,4140
-811,1176,4135
-678,1172,4105
-545,1156,4060
-427,1097,4009
-373,1040,3992
-304,1005,4000
-230,1015,3966
-230,1065,3965
-274,1084,4035
-297,1057,4077
-287,1013,4105
-245,985,4064
-233,1022,4050
-199,1027,4035
-126,980,4031
-71,905,4063
-6,858,4077
45,858,4101
63,888,4129
45,912,4105
15,913,4098
-6,918,4118
-18,956,4171
-9,978,4203
2,977,4201
12,968,4208
65,913,4162
167,898,4068
230,969,4025
273,1043,4009
279,1087,4038
193,1125,4102
51,1128,4162
-60,1086,4172
-92,1037,4186
-27,1030,4157
62,1070,4123
96,1116,4082
112,1147,4064
100,1161,4068
50,1153,4091
-4,1124,4108
-69,1104,4136
-106,1088,4147
-143,1103,4125
-166,1114,4092
-147,1131,4045
-151,1202,4055
-186,1244,4085
-246,1231,4128
-299,1180,4169
-304,1160,4178
-286,1179,4169
-269,1197,4128
-271,1207,4095
-296,1275,4105
-325,1296,4128
-359,1267,4154
-376,1229,4175
-395,1219,4132
-410,1233,4094
-409,1266,4064
-411,1304,4056
-445,1316,4088
-478,1318,4137
-491,1290,4145
-486,1267,4112
-499,1287,4079
-478,1283,4042
-437,1294,4036
-424,1316,4067
-445,1317,4106
-464,1316,4135
-486,1322,4133
-493,1313,4115
-507,1324,4096
-509,1310,4111
-495,1299,4133
-493,1305,4141
-504,1316,4107
-519,1328,4096
-525,1333,4093
-519,1330,4090
-531,1340,4133
-519,1325,4141
-513,1302,4136
-507,1311,4112
-511,1311,4050
-512,1318,4038
-505,1354,4052
-479,1359,4069
-475,1338,4072
-467,1325,4073
-472,1307,4056
-481,1305,4031
-495,1311,4015
-491,1337,4011
-461,1342,4021
-449,1330,4044
-430,1301,4039
-408,1263,4009
-409,1253,3982
-414,1272,3961
-429,1318,3961
-444,1347,3967
-459,1357,3983
-455,1363,4005
-445,1352,4016
-425,1321,4011
-410,1314,4012
-427,1335,4007
-458,1357,4016
-487,1343,4040
-500,1347,4075
-519,1336,4095
-536,1322,4115
-543,1334,4117
-557,1325,4119
-553,1329,4125
-546,1343,4128
-527,1336,4131
-514,1318,4139
-497,1322,4135
-482,1335,4127
-499,1334,4138
-524,1337,4137
-532,1318,4136
-530,1286,4104
-504,1294,4088
-482,1316,4122
-437,1327,4055
-459,1321,4044
-484,1326,4064
-507,1347,4083
-526,1345,4080
-554,1340,4095
-542,1312,4079
-526,1298,4046
-536,1295,4039
-535,1299,4036
-520,1299,4039
-511,1309,4038
-525,1305,4045
-525,1299,4028
-532,1318,4016
-542,1335,4020
-547,1349,4037
-544,1337,4053
-538,1316,4042
-553,1322,4047
-543,1324,4050
-539,1293,4015
-534,1274,4016
-536,1273,4038
-529,1277,4030
-532,1304,4022
-534,1332,4046
-538,1340,4086
-524,1340,4104
-508,1337,4107
-502,1359,4093
-498,1370,4099
-512,1352,4120
-503,1320,4143
-490,1286,4174
-481,1281,4187
-482,1269,4187
-476,1289,4180
-495,1303,4166
-516,1293,4151
-522,1310,4169
-526,1324,4173
-536,1317,4188
-546,1293,4190
-509,1294,4167
-480,1305,4123
-480,1324,4104
-463,1324,4119
-432,1294,4169
-449,1267,4224
-454,1258,4280
-409,1264,4347
-377,1285,4481
-387,1337,4679
-408,1481,4903
-488,1775,5277
-509,2066,5742
-582,2186,6294
-785,2133,6833
-1118,2089,7282
-1436,2069,7593
-1573,2052,7821
-1622,2131,7986
-1641,2338,8117
-1742,2704,8414
-1935,3116,8853
-2019,3271,9098
-2008,3060,9090
-1874,2603,8739
-1548,2163,8047
-1251,1870,7297
-930,1811,6628
-753,1764,6094
-767,1643,5690
-890,1441,5248
-1024,1145,4693
-1097,819,3997
-1309,520,3357
-1590,299,2775
-1650,166,2228
-1384,132,1735
-830,160,1084
-172,223,315
340,376,-316
642,597,-687
936,799,-970
1083,915,-1286
1107,1004,-1490
1142,1005,-1645
1284,880,-1845
1546,826,-1992
1952,866,-2127
2212,956,-2252
2197,1094,-2207
1966,1242,-2043
1757,1357,-1914
1597,1347,-1783
1482,1207,-1686
1454,1071,-1618
1504,986,-1553
1577,1026,-1469
1618,1094,-1343
1532,1140,-1182
1311,1152,-964
977,1080,-716
724,934,-516
590,728,-294
557,473,-46
628,272,146
744,235,331
767,371,535
650,463,771
431,376,1168
-82,253,1709
-406,244,2325
-466,383,3001
-784,662,3842
-1390,892,4822
-1830,1194,5858
-2093,1593,6785
-1871,2049,7739
-1600,2158,8540
-1258,1860,8986
-1053,1587,9446
-1160,1410,10021
-1202,1419,10569
-1167,1576,10919
-1125,1780,11152
-1194,1940,11241
-1212,2031,11121
-1110,2216,10986
-892,2379,10847
-463,2449,10616
-110,2442,10449
-182,2413,10307
-359,2291,10170
-456,2140,10039
-583,1990,9928
-692,1855,9781
-671,1748,9585
-639,1643,9176
-647,1622,8639
-839,1494,8127
-982,1181,7529
-912,880,6981
-844,667,6372
-692,476,5882
-735,387,5311
-918,367,4693
-1101,261,4022
-1311,149,3448
-1486,33,2882
-1617,-101,2310
-1590,-233,1710
-1436,-332,1057
-1297,-323,483
-1083,-160,-95
-766,117,-692
-350,394,-1255
107,615,-1748
359,900,-2170
544,1269,-2463
660,1594,-2709
718,1785,-2853
675,1864,-2846
587,1918,-2757
451,1997,-2629
363,2033,-2498
494,1995,-2430
770,1884,-2384
1035,1767,-2321
1235,1743,-2267
1320,1787,-2212
1324,1778,-2119
1276,1706,-2016
1276,1661,-1815
1277,1598,-1616
1199,1471,-1428
1030,1358,-1215
816,1322,-992
623,1331,-740
555,1256,-513
524,1097,-303
418,912,-29
307,728,320
158,682,886
-322,806,1788
-784,1003,2591
-1008,943,2945
-1088,522,3276
-1182,52,3494
-1074,-302,3798
-742,-194,4131
-533,368,4470
-610,1168,4682
-834,1694,4789
-1103,1599,5300
-1608,1146,6332
-2131,935,7474
-2441,1156,8403
-2400,1650,9006
-2144,2095,9057
-1979,2273,8982
-1909,2134,8951
-1893,1771,9141
-1772,1465,9325
-1573,1325,9263
-1414,1357,9013
-1317,1651,8613
-1364,1979,8137
-1370,2039,7582
-1285,1910,6993
-1121,1697,6485
-891,1455,6000
-722,1268,5523
-637,1115,5116
-527,973,4710
-457,891,4374
-477,943,4146
-618,1136,4058
-823,1301,4033
-867,1358,3931
-835,1328,3814
-798,1249,3717
-831,1121,3683
-804,1032,3709
-671,1072,3718
-517,1193,3712
-486,1309,3742
-533,1348,3787
-582,1330,3872
-560,1272,3996
-481,1187,4077
-412,1130,4085
-393,1132,4050
-440,1180,4037
-538,1263,4083
-652,1323,4108
-781,1311,4129
-867,1251,4187
-858,1218,4270
-804,1211,4316
-762,1201,4293
-765,1177,4234
-762,1161,4192
-735,1180,4202
-657,1196,4178
-629,1172,4160
-647,1150,4157
-667,1127,4171
-690,1153,4170
-708,1200,4153
-712,1233,4118
-691,1247,4077
-675,1230,4065
-695,1199,4072
-689,1188,4065
-648,1229,4089
-611,1265,4120
-628,1246,4135
-630,1204,4133
-644,1168,4121
-648,1148,4084
-621,1138,4053
-594,1132,4025
-528,1124,4012
-514,1166,4025
-538,1217,4054
-588,1247,4056
-637,1238,4049
-672,1211,4036
-698,1195,4033
-704,1191,4039
-655,1208,4036
-606,1213,4036
-616,1219,4045
-661,1194,4046
-675,1163,4050
-621,1159,4028
-580,1170,4036
-548,1170,4036
-519,1166,4028
-513,1193,4054
-556,1237,4099
-597,1248,4098
-639,1211,4075
-667,1192,4074
-656,1200,4092
-590,1226,4098
-538,1235,4077
-536,1222,4077
-542,1220,4054
-548,1226,4054
-555,1206,4069
-570,1185,4107
-573,1179,4140
-578,1175,4117
-585,1197,4095
-585,1226,4072
-567,1242,4048
-564,1254,4052
-564,1235,4072
-545,1218,4071
-521,1194,4094
-534,1191,4116
-569,1189,4137
-600,1183,4141
-581,1194,4141
-545,1194,4138
-512,1190,4125
-486,1198,4123
-481,1204,4137
-465,1197,4146
-440,1202,4143
-434,1224,4129
-456,1220,4123
-491,1177,4131
-512,1150,4134
-521,1163,4122
-513,1175,4116
-477,1208,4101
-483,1256,4077
-521,1286,4096
-544,1283,4125
-562,1249,4137
-580,1219,4156
-570,1190,4137
-509,1164,4093
-454,1176,4054
-472,1217,4044
-546,1225,4046
-604,1190,4073
-600,1168,4093
-593,1177,4097
-607,1188,4087
-613,1192,4081
-614,1219,4075
-601,1234,4044
-599,1235,4025
-624,1245,4046
-656,1239,4082
-656,1224,4110
-620,1224,4099
-609,1243,4069
-620,1264,4073
-635,1257,4108
-616,1245,4120
-592,1243,4121
-576,1256,4117
-562,1255,4116
-558,1245,4105
-578,1240,4111
-622,1240,4141
-658,1238,4179
-654,1240,4201
-668,1248,4210
-745,1279,4199
-840,1284,4211
-872,1259,4210
-881,1278,4181
-914,1331,4166
-941,1393,4150
-969,1441,4163
-1020,1500,4192
-1068,1536,4185
-1094,1523,4195
-1101,1473,4204
-1067,1441,4200
-1033,1457,4153
-1057,1518,4080
-1074,1557,4042
-1060,1587,4043
-1055,1600,4037
-1057,1602,4026
-1088,1599,4034
-1166,1581,4055
-1215,1535,4082
-1229,1515,4078
-1203,1532,4034
-1125,1571,3976
-1065,1593,3964
-1049,1600,3982
-1047,1614,4017
-1047,1627,4018
-1003,1589,3964
-991,1561,3914
-1025,1588,3891
-1023,1608,3934
-1001,1603,3959
-995,1572,3940
-1005,1557,3891
-1014,1571,3890
-964,1533,3899
-940,1483,3880
-946,1481,3861
-901,1491,3911
-827,1494,3975
-787,1477,4007
-727,1440,3999
-684,1413,3934
-647,1435,3865
-539,1457,3818
-443,1452,3789
-385,1441,3823
-336,1415,3893
-328,1381,3960
-387,1339,3945
-396,1299,3927
-362,1282,3772
-302,1338,3789
-215,1368,3799
-92,1352,3782
-59,1358,3861
-101,1387,3924
-149,1382,3945
-209,1321,3931
-221,1259,3884
-166,1210,3856
-73,1196,3818
3,1202,3856
36,1190,3993
62,1129,4026
38,1121,4000
39,1188,3945
120,1280,3894
202,1334,3925
173,1333,4013
56,1290,4100
-35,1233,4137
-86,1229,4151
-96,1276,4164
-27,1317,4161
37,1362,4150
78,1351,4156
99,1301,4185
98,1247,4208
49,1211,4221
48,1199,4201
52,1268,4135
37,1371,4129
26,1460,4167
8,1473,4194
-46,1426,4216
-90,1386,4242
-71,1363,4235
-30,1349,4201
3,1375,4162
-7,1426,4143
-25,1417,4122
-75,1418,4137
-147,1425,4154
-226,1409,4160
-237,1369,4134
-255,1358,4080
-238,1384,4033
-192,1406,4010
-158,1420,3980
-181,1451,3969
-216,1484,4003
-243,1474,4017
-280,1452,4032
-316,1449,4050
-333,1451,4034
-302,1451,4010
-281,1448,3980
-298,1435,3990
-306,1420,4015
-326,1406,4006
-378,1420,3985
-414,1468,3981
-438,1490,3976
-453,1505,3985
-456,1545,3992
-474,1582,3998
-502,1618,4029
-514,1605,4043
-517,1562,4043
-483,1521,4008
-433,1501,3991
-397,1510,3987
-398,1538,3998
-421,1578,4033
-447,1591,4067
-464,1563,4068
-467,1529,4051
-443,1511,4014
-433,1508,3986
-422,1499,3982
-426,1509,4010
-424,1523,4051
-451,1520,4073
-463,1479,4067
-460,1475,4030
-444,1508,4023
-410,1538,4032
-395,1555,4070
-419,1540,4089
-422,1504,4067
-412,1482,4067
-417,1475,4060
-397,1469,4034
-362,1484,4020
-361,1482,4009
-377,1459,3989
-410,1477,4006
-439,1497,4016
-467,1508,4017
-464,1516,4007
-461,1495,4000
-450,1475,4005
-430,1510,4027
-419,1543,4041
-446,1510,4063
-463,1461,4065
-448,1448,4028
-421,1475,3984
-394,1512,3987
-384,1514,4005
-403,1506,4010
-436,1492,4012
-467,1511,3990
-499,1542,4002
-544,1562,4045
-556,1559,4063
-548,1565,4083
-525,1535,4067
-490,1482,4038
-443,1458,3996
-425,1474,3992
-433,1484,4010
-429,1507,4006
-421,1508,4005
-443,1509,4010
-476,1496,4014
-492,1482,4009
-470,1493,4003
-448,1505,3988
-419,1516,3975
-426,1551,3995
-461,1558,4032
-452,1530,4040
-421,1491,4022
-405,1476,4014
-388,1486,4005
-394,1517,4025
-411,1550,4035
-455,1560,4046
-501,1534,4061
-501,1500,4068
-491,1483,4062
-491,1489,4059
-449,1501,4038
-445,1525,4032
-475,1519,4040
-488,1510,4044
-491,1529,4062
-487,1514,4063
-482,1477,4049
-474,1459,4022
-442,1463,3998
-427,1479,3988
-435,1500,3985
-487,1523,4014
-538,1518,4028
-539,1498,4026
-517,1488,4020
-479,1476,3993
-432,1471,3975
-407,1461,3962
-399,1470,3954
-410,1505,3964
-449,1508,3978
-479,1499,4000
-525,1509,4042
-518,1502,4051
-475,1485,4022
-423,1475,4005
-397,1477,4019
-398,1491,4041
-411,1507,4066
-443,1511,4084
-461,1487,4050
-454,1494,4029
-434,1502,4029
-407,1497,4019
-395,1498,4015
-400,1527,3977
-456,1536,4005
-486,1546,4015
-504,1522,4030
-488,1482,4030
-449,1448,4034
-420,1431,4035
-415,1460,4036
-420,1491,4037
-467,1510,4051
-502,1482,4062
-499,1457,4060
-466,1459,4050
-442,1466,4055
-430,1474,4051
-431,1483,4022
-452,1491,4029
-464,1515,4036
-477,1511,4043
-478,1471,4052
-461,1432,4037
-432,1421,4028
-431,1436,4005
-441,1480,3991
-480,1509,3999
-498,1512,4028
-499,1499,4040
-497,1470,4037
-489,1445,4035
-445,1440,4011
-405,1451,3990
-402,1471,3978
-433,1485,4003
-445,1476,4014
-446,1456,4030
-438,1450,4032
-420,1467,4044
-417,1502,4065
-398,1504,4073
-389,1516,4087
-395,1518,4104
-406,1508,4142
-410,1462,4191
-383,1424,4250
-244,1414,4315
-94,1468,4385
-27,1547,4504
-22,1653,4613
-80,1762,4939
-32,1829,5476
115,1853,6013
40,1834,6538
-145,1751,6995
-177,1731,7188
-67,1739,7303
88,1761,7433
123,1863,7680
-63,2048,8068
-518,2339,8457
-976,2696,8839
-1454,2844,9031
-1878,2839,9168
-2033,2700,9160
-1824,2476,8752
-1315,2264,8105
-790,2073,7392
-466,1997,6712
-316,1901,6108
-340,1761,5640
-408,1577,5024
-468,1432,4470
-550,1253,3937
-707,1022,3394
-1009,680,2870
-1359,398,2442
-1599,216,2088
-1520,92,1525
-1221,107,768
-768,181,-64
-390,265,-705
74,449,-1223
561,746,-1581
827,974,-1776
1111,1101,-1974
1084,1137,-2374
1050,1119,-2550
1176,1129,-2645
1285,1173,-2700
1395,1204,-2727
1448,1259,-2790
1503,1366,-2805
1700,1507,-2776
1971,1634,-2717
2144,1641,-2576
2192,1481,-2365
2107,1300,-2189
1946,1145,-2015
1774,1021,-1822
1595,967,-1603
1408,914,-1426
1261,817,-1273
1225,705,-1071
1182,658,-916
1061,601,-717
808,480,-466
529,308,-167
276,134,181
87,57,526
-101,168,1031
-274,356,1693
-594,516,2450
-1214,494,3515
-2024,338,4781
-2446,357,5639
-2142,690,6076
-1631,1182,6561
-1785,1718,7363
-1871,1845,8286
-1587,1668,9410
-1213,1543,10299
-1218,1588,11045
-1647,1871,11870
-2349,2391,12636
-2763,2837,13322
-2656,3003,13742
-2204,3037,13764
-1650,3002,13581
-993,2800,13267
-305,2567,12807
-15,2361,12170
-125,2280,11538
-430,2105,11021
-671,1845,10372
-876,1688,9764
-1008,1544,9084
-1066,1440,8394
-1101,1325,7717
-1158,1050,6955
-1127,676,6271
-1085,324,5577
-1024,7,4867
-868,-342,4102
-708,-630,3205
-575,-778,2447
-482,-805,1846
-490,-764,1317
-495,-621,921
-508,-383,615
-552,-105,146
-459,203,-370
-157,457,-812
247,616,-1273
695,736,-1680
1136,887,-2071
1462,1093,-2466
1649,1266,-2876
1733,1469,-3090
1585,1732,-3113
1315,1915,-2939
1137,1952,-2793
1086,1944,-2689
1094,1943,-2690
1117,1957,-2706
1187,1899,-2701
1310,1775,-2683
1433,1600,-2641
1487,1406,-2559
1430,1216,-2434
1316,983,-2301
1190,768,-2103
1013,615,-1934
793,519,-1765
568,491,-1530
332,480,-1335
159,481,-1201
21,489,-1089
-55,419,-974
-97,236,-838
-118,28,-714
-132,-72,-482
-173,42,3
-406,249,694
-695,301,1583
-719,148,3160
-1078,-87,5142
-1790,50,6898
-2064,564,7824
-1419,1161,7720
-1204,1568,7062
-2688,1392,7655
-4688,396,9385
-4888,-694,10821
-2938,-700,11447
-910,-37,11241
-249,712,10555
-926,1198,10068
-2026,1339,9744
-2653,1429,9415
-2694,1577,9053
-2584,1597,8558
-2575,1644,8033
-2679,1882,7534
-2727,2138,7075
-2571,2154,6703
-2194,1986,6323
-1692,1805,5872
-1319,1579,5492
-1070,1343,5109
-917,1157,4721
-832,1034,4403
-773,964,4191
-811,927,4041
-916,937,3962
-969,966,3841
-1019,975,3706
-1077,969,3663
-1154,961,3633
-1132,955,3615
-1034,962,3604
-918,980,3571
-860,1026,3556
-901,1117,3518
-930,1224,3585
-913,1266,3718
-857,1205,3781
-819,1104,3807
-921,1093,3914
-1059,1106,4030
-1064,1130,4046
-988,1165,4018
-961,1207,4035
-950,1250,3986
-926,1321,3989
-907,1324,4018
-875,1284,4035
-901,1252,4141
-946,1215,4237
-968,1179,4259
-943,1176,4222
-917,1235,4167
-924,1293,4189
-939,1289,4163
-955,1232,4126
-944,1193,4140
-907,1164,4166
-854,1139,4149
-787,1128,4087
-734,1142,4025
-708,1200,4011
-694,1222,4014
-689,1215,4026
-727,1201,4040
-780,1201,4014
-830,1197,3980
-855,1178,3934
-855,1157,3938
-835,1150,3990
-840,1167,3998
-849,1180,4047
-837,1176,4050
-825,1160,4013
-810,1132,3960
-830,1128,3929
-833,1124,3964
-781,1151,3967
-737,1200,3979
-699,1253,3999
-736,1311,4007
-797,1309,3988
-843,1261,4017
-816,1224,4048
-781,1222,4074
-772,1231,4067
-790,1220,4075
-806,1235,4084
-808,1253,4095
-783,1262,4085
-708,1268,4072
-651,1280,4056
-641,1299,4054
-633,1312,4037
-624,1321,4026
-611,1341,4008
-616,1363,3993
-645,1351,4009
-680,1329,4040
-718,1305,4065
-740,1298,4070
-750,1333,4081
-723,1347,4052
-732,1377,4025
-790,1409,4027
-813,1416,4079
-776,1378,4093
-724,1336,4110
-682,1302,4141
-698,1264,4154
-695,1239,4106
-688,1244,4072
-685,1271,4038
-689,1291,4045
-726,1286,4044
-765,1285,4070
-796,1288,4095
-805,1299,4093
-814,1310,4095
-811,1305,4073
-798,1310,4061
-775,1308,4067
-773,1288,4063
-765,1284,4029
-805,1319,4044
-854,1358,4072
-895,1378,4107
-889,1360,4124
-879,1339,4113
-875,1317,4094
-860,1312,4073
-863,1329,4083
-876,1356,4046
-931,1367,4025
-1031,1356,4023
-1127,1377,4064
-1157,1416,4088
-1154,1450,4070
-1175,1477,4049
-1200,1488,4019
-1231,1475,4010
-1255,1471,4011
-1271,1493,4016
-1309,1546,4019
-1384,1573,4009
-1453,1575,4032
-1469,1572,4032
-1438,1563,4040
-1394,1588,4037
-1369,1601,4025
-1373,1568,3989
-1384,1552,3947
-1402,1566,3924
-1398,1623,3921
-1411,1688,3929
-1451,1723,3944
-1514,1721,3940
-1535,1707,3936
-1499,1707,3933
-1439,1711,3950
-1384,1689,3926
-1356,1680,3921
-1352,1716,3923
-1355,1751,3942
-1365,1776,3946
-1332,1761,3920
-1277,1719,3930
-1176,1683,3963
-1055,1643,3967
-965,1604,3910
-934,1601,3856
-901,1663,3773
-867,1724,3720
-836,1768,3676
-858,1742,3784
-909,1643,3950
-881,1533,4016
-826,1475,3933
-779,1491,3817
-739,1580,3694
-707,1666,3616
-690,1678,3631
-693,1657,3793
-694,1592,3953
-699,1484,4042
-710,1391,3975
-720,1377,3845
-699,1416,3717
-677,1460,3637
-654,1504,3660
-632,1515,3768
-609,1462,3938
-603,1392,4020
-622,1340,4004
-622,1284,3904
-635,1251,3787
-626,1280,3650
-499,1362,3614
-378,1464,3705
-308,1484,3941
-211,1345,4118
-212,1194,4015
-231,1152,3960
-235,1211,3851
-145,1288,3808
29,1312,3878
149,1306,3916
167,1291,4051
156,1267,4155
168,1210,4167
163,1163,4129
99,1196,4097
44,1256,4105
11,1304,4149
-19,1324,4205
-52,1328,4256
-89,1327,4309
-136,1321,4316
-140,1329,4272
-95,1339,4272
-89,1343,4225
-76,1393,4166
-79,1473,4088
-135,1536,4054
-235,1584,4095
-344,1573,4162
-412,1517,4168
-431,1484,4129
-432,1512,4043
-423,1557,3988
-421,1593,3973
-432,1618,4008
-457,1609,4077
-470,1578,4131
-476,1530,4120
-475,1504,4060
-458,1501,4007
-471,1518,4000
-518,1533,4024
-519,1531,4046
-484,1535,4069
-579,1583,4086
-641,1590,4043
-695,1558,4034
-704,1500,4038
-637,1478,4024
-559,1488,4011
-557,1532,3999
-610,1593,4025
-661,1640,4059
-683,1652,4044
-686,1612,4004
-679,1579,3992
-656,1556,4017
-616,1542,4049
-588,1557,4035
-617,1573,4004
-704,1592,4006
-731,1619,4037
-697,1607,4023
-663,1571,3989
-631,1578,3960
-627,1604,3970
-625,1611,3956
-647,1624,3939
-697,1660,3971
-730,1667,3985
-718,1611,3999
-660,1525,3971
-617,1503,3934
-606,1529,3926
-582,1532,3925
-580,1541,3930
-626,1572,3953
-668,1601,3967
-673,1599,3944
-659,1547,3938
-633,1513,3946
-611,1525,3940
-575,1522,3925
-567,1527,3935
-575,1548,3962
-602,1581,4005
-620,1603,4016
-627,1604,3999
-632,1598,3975
-606,1575,3952
-578,1567,3952
-559,1560,3951
-566,1562,3946
-578,1595,3935
-626,1636,3950
-665,1646,3943
-671,1631,3943
-655,1599,3942
-604,1577,3925
-612,1564,3928
-626,1554,3964
-629,1527,3963
-632,1511,3922
-627,1523,3906
-629,1549,3910
-644,1582,3924
-656,1603,3950
-667,1619,3983
-671,1637,3979
-689,1644,3981
-738,1614,3978
-735,1589,3968
-716,1580,3973
-682,1585,3961
-682,1587,3975
-711,1619,4003
-727,1640,4039
-715,1626,4048
-712,1613,4044
-713,1605,4040
-695,1592,4023
-648,1582,4005
-630,1580,3989
-638,1590,3994
-659,1586,3990
-692,1570,4005
-726,1539,4016
-724,1514,4003
-724,1509,3974
-696,1507,3963
-667,1550,3980
-639,1603,3988
-647,1631,3959
-675,1618,3956
-683,1601,3956
-680,1587,3960
-661,1570,3973
-627,1584,3986
-613,1599,3981
-625,1601,3985
-657,1598,3990
-668,1603,4006
-699,1600,4027
-684,1564,4032
-626,1521,4002
-581,1507,3987
-567,1540,3978
-583,1551,3986
-599,1540,3987
-618,1548,3984
-651,1563,4002
-678,1585,3995
-686,1568,4005
-671,1552,4005
-675,1543,3981
-661,1555,3947
-674,1575,3952
-692,1574,3965
-700,1556,4000
-686,1528,4024
-675,1501,3994
-679,1489,3957
-654,1486,3929
-660,1492,3940
-717,1506,3990
-736,1532,4030
-733,1529,4038
-710,1510,4044
-639,1467,3956
-647,1472,3918
-638,1503,3904
-627,1544,3927
-612,1565,3982
-619,1556,4042
-628,1537,4069
-633,1530,4059
-618,1516,4030
-568,1524,4042
-555,1548,4088
-554,1556,4170
-475,1588,4273
-409,1638,4395
-410,1682,4493
-519,1666,4691
-598,1591,4905
-505,1527,5119
-433,1524,5441
-507,1532,5953
-522,1532,6408
-462,1665,6796
-347,1829,7048
-253,1906,7176
-308,1884,7316
-232,1791,7459
58,1737,7542
388,1810,7647
578,2034,7903
510,2430,8261
141,2773,8692
-323,2915,9002
-762,2903,9231
-1008,2690,9106
-917,2334,8512
-530,2049,7748
-176,1829,6887
72,1638,6105
294,1531,5537
363,1348,4890
331,1103,4198
286,819,3548
162,606,3011
-170,389,2530
-611,126,2218
-1020,-31,1920
-1226,-85,1492
-1072,-99,661
-890,-22,-282
-614,158,-1028
-156,381,-1526
385,585,-1831
1260,664,-2106
1904,653,-2465
2148,655,-2708
1832,729,-2830
1400,778,-2759
1191,773,-2667
1259,733,-2679
1537,636,-2757
1848,673,-2801
2001,831,-2732
2035,981,-2622
2001,1063,-2451
1923,1036,-2278
1842,961,-2081
1735,848,-1876
1600,709,-1684
1454,571,-1458
1237,449,-1199
1016,356,-981
908,291,-807
859,194,-671
777,34,-579
666,-210,-476
444,-453,-196
235,-630,114
102,-649,481
-124,-465,945
-535,-117,1609
-1351,265,2783
-2371,522,4327
-3222,533,5467
-3087,493,6261
-2614,701,6684
-2652,1100,7321
-2876,1456,8273
-2724,1754,9347
-2066,1643,10584
-1574,1369,11591
-1919,1247,12494
-2793,1304,13326
-3355,1594,13813
-3331,1954,14009
-2888,2333,14026
-2265,2673,14008
-1774,2638,13872
-1343,2166,13451
-845,1753,12884
-378,1542,12176
-212,1436,11483
-401,1427,10969
-668,1508,10529
-875,1556,10035
-973,1542,9447
-1093,1355,8748
-1130,1105,7882
-1142,872,6989
-1161,520,6008
-1129,112,5213
-979,-233,4424
-930,-493,3688
-986,-695,3015
-1116,-833,2512
-1448,-932,2069
-1671,-945,1572
-1667,-839,1067
-1477,-695,499
-1103,-547,-93
-672,-393,-607
-179,-177,-1074
221,129,-1463
421,474,-1716
549,749,-2065
702,988,-2503
999,1203,-2932
1342,1394,-3208
1629,1573,-3286
1693,1718,-3214
1565,1765,-3066
1517,1694,-2991
1537,1593,-2927
1530,1510,-2853
1530,1421,-2764
1553,1287,-2662
1519,1136,-2536
1467,966,-2387
1430,796,-2236
1327,648,-2031
1169,499,-1820
929,349,-1721
745,273,-1491
582,140,-1293
463,-71,-1142
319,-276,-1012
134,-403,-892
-91,-404,-608
-420,-305,-178
-600,-149,478
-579,-39,1168
-486,23,2060
-663,95,3498
-1448,362,5153
-2414,852,6485
-2872,1214,7508
-2916,1473,8311
-2921,1536,8844
-3098,928,9546
-2623,111,10333
-1429,-112,10872
-506,216,11105
-553,694,11064
-1435,1103,10915
-2513,1389,10507
-3140,1667,9853
-3155,1971,9171
-2924,2199,8573
-2462,2239,8012
-1960,2120,7352
-1542,1958,6675
-1244,1822,6070
-1081,1751,5641
-1030,1719,5382
-1042,1631,5193
-1077,1504,5055
-1092,1426,4958
-1079,1394,4715
-997,1354,4350
-771,1342,3914
-665,1346,3567
-777,1399,3478
-985,1429,3496
-1154,1332,3649
-1148,1171,3810
-1058,1095,3902
-1019,1090,3886
-1027,1087,3867
-988,1088,3867
-922,1114,3915
-834,1183,3907
-688,1300,3901
-651,1467,3862
-715,1566,3910
-757,1520,3952
-779,1409,4033
-784,1338,4118
-756,1277,4147
-710,1243,4179
-675,1229,4133
-651,1245,4041
-644,1289,3931
-661,1322,3811
-675,1378,3756
-669,1452,3806
-678,1464,3995
-670,1430,4161
-644,1358,4173
-653,1317,4089
-646,1354,3976
-644,1428,3928
-657,1447,3907
-692,1441,3937
-711,1441,3999
-722,1411,4011
-757,1379,3987
-786,1382,3983
-773,1422,3983
-722,1438,3968
-699,1390,3967
-711,1336,3967
-690,1320,3988
-632,1339,4000
-593,1361,3976
-585,1385,3966
-620,1368,3991
-670,1353,4030
-704,1345,4055
-701,1355,4048
-696,1377,4037
-707,1397,4043
-708,1378,4009
-701,1361,3978
-717,1354,3973
-730,1352,3998
-722,1367,4007
-731,1365,3999
-750,1361,3977
-773,1362,3972
-793,1381,3965
-805,1386,3968
-810,1381,3980
-787,1382,3979
-792,1401,4003
-809,1428,4044
-785,1416,4044
-783,1384,4027
-801,1360,4001
-772,1354,3990
-729,1353,3995
-699,1365,4020
-685,1384,4015
-698,1399,4039
-711,1449,4029
-753,1461,4031
-759,1442,4067
-748,1426,4089
-712,1403,4067
-701,1415,4034
-721,1429,4025
-746,1429,4023
-788,1427,4051
-816,1383,4073
-793,1339,4075
-762,1347,4067
-762,1384,4036
-761,1384,4008
-768,1365,4017
-779,1385,4055
-755,1403,4076
-738,1422,4054
-741,1419,4024
-753,1382,4009
-759,1359,4013
-729,1359,4018
-696,1393,4031
-711,1421,4053
-739,1426,4077
-769,1423,4041
-763,1388,4021
-744,1348,4027
-709,1337,4037
-671,1345,4038
-659,1378,4032
-682,1393,4016
-721,1404,3993
-794,1414,4007
-836,1416,4011
-829,1394,4002
-798,1385,4014
-741,1374,4019
-702,1389,4004
-694,1411,3995
-702,1408,3979
-728,1413,4001
-756,1436,4018
-770,1422,4028
-761,1392,4025
-747,1380,4012
-716,1371,3983
-708,1373,3976
-720,1386,4001
-747,1387,4023
-755,1374,4042
-752,1365,4060
-745,1356,4039
-751,1367,4037
-736,1394,4032
-742,1438,4013
-772,1432,4023
-785,1408,4029
-794,1408,4045
-816,1432,4059
-834,1430,4031
-842,1426,3997
-875,1406,4012
-938,1409,4020
-1004,1419,4014
-1067,1445,4040
-1131,1464,4027
-1190,1446,4034
-1265,1477,4037
-1334,1599,4010
-1415,1735,3983
-1489,1858,3998
-1539,1909,4025
-1569,1873,3990
-1604,1797,3972
-1634,1748,3942
-1662,1733,3896
-1704,1735,3872
-1763,1761,3811
-1885,1782,3825
-1919,1777,3794
-1926,1779,3810
-1931,1796,3788
-1886,1820,3847
-1843,1812,3948
-1761,1734,3941
-1721,1695,3885
-1721,1658,3820
-1697,1618,3783
-1636,1572,3818
-1540,1574,3807
-1514,1643,3895
-1469,1684,3932
-1397,1726,3932
-1329,1740,3922
-1271,1710,3883
-1244,1694,3813
-1189,1682,3869
-1118,1605,3938
-1139,1541,3935
-1116,1527,4053
-1027,1476,4011
-928,1456,3906
-819,1532,3844
-708,1567,3821
-595,1578,3834
-513,1550,3873
-474,1546,3909
-464,1552,3956
-483,1526,3919
-504,1488,3875
-478,1427,3859
-475,1365,3796
-509,1388,3862
-409,1430,3960
-294,1398,3974
-209,1354,3912
-130,1384,3848
-70,1400,3853
-11,1393,3807
24,1374,3799
12,1323,3864
15,1284,3936
28,1238,3955
18,1188,3955
-9,1149,3991
-29,1099,3990
25,1084,3970
104,1117,3969
155,1163,4000
222,1145,4019
258,1122,4093
192,1164,4055
161,1196,4057
177,1244,4065
170,1281,4098
136,1265,4113
104,1254,4126
65,1287,4158
26,1304,4185
0,1317,4194
-56,1349,4182
-117,1383,4163
-157,1432,4175
-173,1466,4182
-183,1478,4234
-174,1445,4273
-147,1398,4235
-152,1358,4204
-162,1371,4157
-159,1455,4107
-197,1525,4090
-278,1542,4122
-341,1534,4142
-367,1516,4163
-377,1504,4130
-361,1510,4123
-354,1500,4064
-369,1510,4038
-359,1575,4021
-365,1646,3989
-422,1654,3993
-486,1647,4021
-524,1635,4031
-536,1629,4033
-523,1638,4020
-483,1636,3992
-444,1639,3947
-435,1625,3924
-429,1617,3914
-474,1634,3938
-512,1661,3956
-517,1651,3986
-520,1625,3992
-522,1608,3992
-511,1599,3968
-497,1580,3933
-492,1562,3915
-518,1552,3956
-531,1567,3974
-556,1598,3988
-602,1622,4008
-621,1603,4004
-617,1579,3995
-597,1554,3986
-544,1558,3977
-516,1597,3992
-510,1631,3987
-514,1684,3995
-569,1728,4012
-598,1719,4019
-601,1669,4026
-573,1605,4005
-519,1577,3968
-471,1596,3923
-472,1612,3941
-466,1621,3928
-472,1663,3935
-496,1701,3956
-501,1706,3974
-479,1694,3987
-469,1678,3974
-468,1671,3984
-467,1686,3953
-498,1699,3937
-539,1706,3915
-567,1705,3918
-548,1718,3930
-527,1716,3933
-526,1681,3915
-549,1661,3897
-565,1654,3911
-544,1649,3893
-550,1651,3906
-583,1637,3920
-601,1627,3941
-623,1613,3958
-593,1608,3957
-582,1619,3956
-598,1631,3980
-607,1628,4022
-577,1647,4044
-551,1629,4035
-543,1595,4011
-535,1563,3989
-540,1537,4004
-536,1522,4024
-510,1551,4013
-484,1588,4000
-507,1603,3975
-562,1607,3967
-577,1626,3992
-580,1634,3967
-579,1603,3962
-558,1577,3947
-543,1566,3919
-533,1588,3905
-531,1608,3901
-552,1632,3910
-570,1660,3916
-596,1686,3943
-658,1685,3969
-682,1639,3980
-650,1589,4011
-503,1578,4009
-480,1589,4023
-479,1617,4034
-503,1619,4045
-581,1579,4095
-576,1555,4083
-573,1529,4083
-581,1538,4088
-579,1575,4066
-583,1614,4078
-587,1618,4110
-585,1588,4125
-578,1559,4126
-545,1549,4102
-506,1575,4099
-486,1632,4097
-502,1661,4129
-481,1670,4201
-422,1723,4337
-353,1822,4575
-341,1930,4865
-377,2019,5284
-342,2186,5849
-92,2384,6357
55,2452,6717
-239,2295,7256
-799,2085,8208
-1051,2068,9276
-880,2252,10213
-684,2524,10652
-671,2719,11033
-726,2660,10958
-673,2476,10407
-559,2369,9798
-442,2303,9120
-335,2203,8485
-370,2060,7760
-544,1882,6993
-770,1743,6276
-963,1546,5514
-959,1238,4841
-978,965,4222
-1144,704,3672
-1364,227,3022
-1392,-218,2553
-1217,-451,2065
-1085,-575,1434
-972,-587,601
-664,-501,-197
-187,-407,-892
260,-291,-1568
919,-171,-2210
1506,-39,-2892
2015,74,-3473
2133,266,-3646
1795,385,-3459
1486,338,-3314
1300,346,-3232
1241,480,-3218
1380,597,-3227
1672,605,-3224
1990,600,-3180
2184,611,-3098
2209,622,-2966
2111,619,-2785
1998,587,-2560
1848,496,-2338
1646,348,-2135
1420,174,-1901
1192,41,-1711
955,-72,-1563
727,-162,-1458
470,-209,-1308
196,-233,-1142
-86,-327,-993
-314,-569,-803
-331,-817,-615
-202,-838,-283
-164,-557,248
-462,-86,952
-1037,301,2692
-2037,543,4864
-3153,892,6761
-3539,1158,8132
-3710,1091,8904
-3748,945,9403
-3680,896,10040
-3521,781,10861
-3265,501,12170
-3247,552,13609
-3413,1096,14585
-3661,1743,15069
-3956,2190,15092
-3977,2414,14828
-3353,2494,14434
-2466,2462,13996
-1743,2232,13495
-1349,2001,12920
-1303,1940,12330
-1379,1952,11861
-1375,1893,11336
-1479,1865,10722
-1597,1796,10086
-1578,1581,9306
-1513,1310,8413
-1439,1057,7458
-1379,737,6513
-1366,375,5622
-1235,-17,4822
-1096,-424,3986
-1023,-774,3272
-959,-1058,2612
-978,-1299,2031
-1041,-1500,1546
-1093,-1612,983
-1144,-1549,442
-1114,-1373,-148
-802,-1096,-822
-97,-737,-1524
650,-401,-2075
1136,-42,-2463
1416,394,-2737
1524,755,-3014
1525,1019,-3181
1368,1201,-3152
1162,1303,-3077
1106,1382,-3041
1261,1433,-3074
1481,1448,-3151
1700,1416,-3162
1945,1374,-3150
2127,1397,-3109
2223,1431,-3021
2220,1438,-2860
2110,1328,-2739
1953,1165,-2498
1724,987,-2256
1484,774,-2095
1328,561,-1949
1183,396,-1809
980,292,-1672
781,182,-1527
552,72,-1442
217,-44,-1314
-143,-153,-1103
-376,-308,-893
-554,-497,-657
-690,-670,-319
-853,-754,337
-937,-747,1245
-1164,-769,2762
-1807,-928,4549
-2360,-887,6261
-2985,-458,7695
-3470,342,8540
-3780,1247,8529
-4528,1489,8663
-4898,705,9492
-3752,-198,10749
-1707,-318,11736
-317,163,12066
-388,639,11929
-1264,947,11415
-2030,1295,10694
-2373,1730,9892
-2523,1924,9198
-2595,1918,8682
-2541,1857,8291
-2323,1747,7763
-1969,1635,7070
-1600,1496,6354
-1300,1371,5752
-1010,1329,5307
-818,1327,4922
-771,1369,4666
-843,1451,4462
-989,1478,4335
-1237,1434,4254
-1435,1320,4178
-1540,1173,4042
-1512,1058,3878
-1344,1008,3595
-1154,1067,3361
-1046,1198,3220
-1057,1315,3157
-1184,1360,3227
-1388,1348,3439
-1485,1269,3644
-1488,1204,3658
-1409,1245,3724
-1317,1380,3705
-1243,1483,3688
-1259,1517,3719
-1292,1548,3786
-1284,1558,3921
-1250,1517,3973
-1189,1412,3975
-1081,1326,3979
-1010,1331,3999
-1029,1361,3997
-1025,1368,3928
-982,1428,3887
-942,1516,3901
-929,1524,3900
-988,1465,3960
-1087,1403,4025
-1131,1396,4041
-1154,1424,4078
-1141,1425,4084
-1115,1459,4038
-1095,1526,4018
-1061,1565,3967
-1050,1549,3939
-1037,1496,3930
-1029,1472,3911
-1022,1452,3935
-993,1448,3963
-952,1458,3957
-936,1455,3960
-943,1467,3952
-918,1475,3914
-893,1482,3898
-930,1452,3896
-950,1415,3900
-919,1402,3913
-916,1413,3971
-915,1436,3987
-924,1473,3982
-951,1497,3986
-980,1475,3990
-977,1450,3971
-960,1464,3966
-938,1468,3976
-943,1457,3963
-944,1462,3949
-968,1483,3976
-960,1501,3981
-965,1471,4003
-973,1428,4015
-976,1413,4032
-962,1434,4030
-947,1448,3983
-970,1442,3972
-1012,1444,3984
-1000,1449,3970
-961,1440,3932
-929,1445,3915
-917,1487,3914
-933,1537,3871
-944,1500,3858
-925,1509,3914
-952,1594,3936
-980,1621,3916
-997,1561,3910
-1020,1527,3954
-970,1562,4002
-948,1536,4010
-959,1513,4024
-879,1479,3971
-899,1504,3917
-935,1505,3892
-940,1503,3927
-959,1533,3968
-970,1546,3932
-975,1503,3883
-966,1463,3848
-935,1509,3904
-930,1543,3929
-932,1486,3887
-945,1442,3825
-959,1444,3804
-947,1523,3855
-948,1599,3903
-968,1571,3916
-982,1503,3891
-973,1477,3866
-944,1499,3877
-909,1502,3866
-876,1466,3858
-875,1460,3870
-903,1500,3906
-919,1523,3933
-937,1505,3941
-978,1506,3975
-979,1494,3973
-962,1478,3962
-947,1488,3971
-942,1503,3980
-939,1508,3994
-924,1491,3999
-909,1490,3993
-915,1508,3987
-918,1530,3970
-916,1524,3954
-913,1508,3950
-927,1516,3978
-933,1526,4006
-933,1545,4027
-952,1532,4030
-975,1493,4008
-958,1480,4005
-914,1482,3979
-883,1477,3956
-866,1491,3954
-872,1500,3976
-896,1492,3979
-904,1489,3956
-911,1500,3929
-934,1514,3923
-927,1512,3932
-908,1521,3923
-923,1540,3947
-968,1559,3982
-990,1543,3992
-983,1522,4012
-980,1508,4020
-967,1487,4005
-953,1485,3983
-947,1467,3975
-930,1449,3970
-925,1451,3950
-937,1470,3951
-963,1518,3962
-979,1558,3976
-983,1559,3978
-982,1521,3968
-974,1483,3970
-935,1461,3958
-898,1464,3935
-884,1473,3915
-905,1487,3903
-936,1474,3924
-972,1466,3938
-977,1479,3944
-959,1494,3946
-939,1511,3956
-935,1502,3947
-933,1481,3926
-916,1480,3914
-919,1501,3908
-927,1517,3910
-929,1520,3943
-929,1513,3962
-913,1505,3948
-930,1496,3932
-949,1480,3928
-944,1484,3941
-931,1502,3957
-927,1500,3949
-937,1500,3971
-954,1504,3995
-958,1509,3983
-954,1497,3964
-953,1490,3959
-936,1496,3958
-931,1495,3977
-948,1483,4010
-955,1488,4008
-969,1497,4013
-980,1469,3990
-976,1459,3994
-955,1481,3993
-943,1491,3995
-923,1478,4028
-897,1470,4011
-882,1479,4004
-902,1469,3994
-903,1460,3972
-899,1453,3968
-901,1469,3963
-901,1493,3944
-916,1488,3950
-939,1475,3939
-934,1481,3936
-934,1502,3933
-926,1511,3928
-934,1500,3930
-944,1491,3954
-939,1482,3984
-919,1469,3966
-917,1443,3949
-917,1443,3962
-924,1450,3978
-925,1457,3973
-933,1455,4011
-940,1476,3975
-967,1492,3954
-970,1480,3959
-971,1477,3968
-965,1486,3975
-949,1494,3981
-933,1506,3977
-922,1500,3981
-924,1479,3968
-936,1486,3962
-919,1490,3982
-930,1485,3991
-918,1473,3993
-909,1477,3977
-929,1489,3955
-927,1494,3944
-911,1475,3943
-914,1465,3961
-920,1469,3971
-914,1467,3968
-903,1474,3964
-895,1476,3959
-932,1479,3990
-927,1481,3997
-953,1480,3993
-964,1476,3998
-894,1507,3918
-986,1552,4021
-1011,1525,4014
-936,1443,3940
-944,1472,3961
-957,1517,3965
-926,1495,3951
-893,1449,3975
-887,1457,3941
-914,1457,3933
-932,1469,3947
-949,1494,3960
-949,1473,3966
-952,1447,3980
