AccelerometerX,AccelerometerY,AccelerometerZ
41,1792,3916
35,1775,3906
3,1791,3930
-29,1780,3928
-45,1751,3909
-27,1739,3879
10,1739,3855
28,1744,3858
-6,1751,3900
-42,1768,3944
-21,1759,3919
10,1776,3908
-11,1793,3921
-39,1788,3936
-45,1776,3950
-33,1768,3935
-39,1756,3916
-38,1753,3928
-25,1747,3921
-1,1747,3928
20,1754,3944
26,1772,3947
27,1766,3952
55,1762,3935
87,1754,3922
54,1744,3924
7,1745,3940
-21,1738,3933
-39,1747,3909
-56,1760,3930
-59,1782,3972
-34,1769,3956
-35,1763,3964
-41,1764,3985
-37,1756,3951
13,1764,3919
57,1746,3893
-3,1734,3919
-35,1723,3946
0,1740,3934
40,1771,3930
31,1756,3932
-10,1752,3942
-36,1751,3964
-13,1763,3968
26,1756,3948
11,1735,3939
-25,1731,3942
-16,1724,3945
21,1713,3953
28,1726,3935
47,1744,3908
36,1747,3916
-21,1760,3951
-34,1768,3965
-4,1779,3961
21,1785,3961
29,1777,3957
49,1766,3945
81,1766,3906
84,1755,3868
37,1752,3898
11,1765,3938
27,1785,3933
42,1805,3920
40,1805,3925
18,1798,3924
-1,1791,3936
3,1776,3956
34,1745,3949
64,1725,3927
72,1687,3893
64,1692,3856
29,1723,3894
-11,1758,3928
-44,1767,3950
-50,1780,3956
-40,1786,3941
-2,1790,3943
43,1783,3914
41,1779,3921
8,1769,3936
-13,1751,3931
7,1752,3922
34,1759,3908
54,1765,3910
66,1768,3921
59,1798,3914
19,1815,3934
-1,1802,3950
-4,1793,3948
-6,1775,3946
-7,1767,3952
-4,1770,3964
22,1772,3969
13,1746,3965
-3,1729,3948
-15,1725,3932
-13,1719,3932
24,1726,3911
14,1721,3910
-9,1734,3911
-40,1742,3930
-69,1756,3925
-91,1751,3926
-102,1758,3941
-76,1769,3958
16,1762,3936
61,1765,3900
38,1772,3913
13,1786,3932
2,1784,3953
3,1772,3942
20,1791,3959
23,1786,3946
3,1785,3974
-4,1790,3995
34,1770,3977
84,1762,3962
87,1793,3947
86,1797,3945
65,1789,3916
27,1783,3935
34,1806,3944
52,1799,3924
52,1762,3886
55,1755,3870
30,1756,3860
11,1765,3856
-32,1783,3895
-21,1778,3922
-20,1767,3920
-31,1737,3910
-34,1713,3887
-26,1700,3890
-2,1699,3899
18,1692,3898
28,1704,3907
-10,1728,3939
-56,1734,3946
-53,1745,3941
-35,1749,3927
-29,1757,3921
-14,1766,3946
-8,1768,3960
-27,1757,3978
-38,1786,3996
-13,1779,3980
26,1753,3987
41,1740,3984
29,1745,3989
14,1763,3980
33,1759,3971
37,1778,3971
47,1769,3964
63,1763,3974
61,1780,3991
65,1772,3983
62,1769,3960
27,1776,3956
9,1780,3968
29,1782,3979
45,1805,3951
31,1789,3951
37,1766,3923
59,1751,3904
76,1753,3904
88,1743,3894
68,1739,3882
20,1740,3867
-14,1767,3922
-12,1767,3943
5,1744,3902
46,1755,3886
50,1767,3887
35,1774,3893
20,1786,3916
8,1787,3908
-16,1789,3906
-23,1776,3879
-2,1759,3875
3,1782,3898
3,1812,3930
-9,1807,3940
-19,1808,3937
-10,1812,3917
10,1806,3902
5,1801,3911
-10,1783,3918
-10,1803,3950
-11,1827,3957
-11,1825,3939
30,1805,3912
52,1788,3884
46,1795,3886
49,1825,3890
28,1830,3911
-24,1832,3949
-54,1833,3960
-36,1819,3946
-35,1793,3948
-28,1768,3958
39,1751,3949
79,1747,3923
42,1754,3924
-23,1758,3939
-62,1771,3967
-57,1773,3960
-25,1781,3958
9,1796,3943
19,1797,3903
40,1797,3876
48,1788,3889
18,1796,3896
-17,1802,3933
-38,1779,3925
-30,1756,3915
16,1768,3890
59,1788,3883
100,1784,3892
94,1787,3899
55,1776,3923
16,1765,3932
-2,1763,3957
-10,1762,3955
-9,1761,3925
12,1759,3915
35,1763,3934
53,1754,3941
47,1767,3946
27,1788,3972
11,1785,3974
-4,1794,3960
5,1789,3949
39,1784,3923
31,1785,3933
21,1800,3952
31,1782,3959
37,1770,3955
38,1776,3963
14,1756,3951
28,1767,3923
53,1784,3913
60,1800,3915
59,1784,3925
63,1773,3930
60,1769,3950
77,1758,3916
70,1766,3896
32,1794,3915
8,1787,3935
12,1780,3935
32,1774,3916
53,1785,3915
42,1786,3951
55,1773,3947
46,1781,3941
9,1791,3944
1,1776,3944
39,1778,3928
57,1785,3915
81,1782,3905
74,1783,3899
31,1810,3900
-5,1838,3917
-16,1835,3934
-5,1816,3952
34,1808,3909
68,1810,3872
62,1811,3876
38,1819,3886
12,1806,3885
-12,1787,3871
-29,1769,3844
-29,1759,3801
4,1743,3719
22,1737,3656
23,1699,3579
-12,1718,3513
-78,1738,3431
-156,1699,3317
-269,1619,3172
-355,1537,2970
-425,1414,2695
-488,1252,2389
-501,1068,2138
-523,987,1682
-431,1169,1741
-388,1353,1647
-306,1380,1661
-254,1246,1664
-208,1071,1668
-113,936,1593
5,805,1426
68,651,1285
73,503,1218
30,448,1282
-106,498,1419
-264,480,1571
-443,332,1797
-657,134,2025
-809,-106,2176
-827,-348,2228
-826,-421,2349
-933,-268,2526
-1015,-90,2736
-1046,-84,3068
-997,-248,3504
-849,-519,3845
-680,-861,4053
-550,-1058,4182
-495,-1146,4322
-600,-1130,4644
-765,-1060,5165
-726,-1077,5650
-618,-1191,5971
-501,-1376,6182
-299,-1551,6253
-101,-1661,6319
-53,-1691,6587
-61,-1695,6888
-104,-1763,7092
-141,-1912,7249
-110,-2003,7368
-88,-2014,7401
13,-2030,7315
205,-2091,7137
408,-2112,6977
531,-2057,6906
512,-1952,6873
423,-1884,6866
294,-1846,6922
214,-1813,7015
173,-1784,7034
100,-1805,7003
-10,-1903,6956
-21,-1986,6880
29,-2019,6848
-29,-2042,6789
-130,-2033,6814
-258,-1946,6818
-422,-1848,6868
-618,-1707,7001
-836,-1557,7173
-1089,-1506,7308
-1352,-1611,7338
-1500,-1749,7247
-1552,-1795,7072
-1641,-1757,6905
-1794,-1704,6917
-1833,-1706,6881
-1795,-1703,6726
-1756,-1651,6624
-1796,-1567,6482
-1879,-1466,6355
-1971,-1387,6269
-2020,-1341,6143
-2002,-1312,6015
-1914,-1303,5811
-1699,-1334,5462
-1407,-1395,5037
-1104,-1404,4643
-812,-1308,4363
-603,-1180,4002
-558,-1083,3602
-617,-1001,3284
-678,-929,3037
-726,-856,2722
-810,-776,2408
-945,-683,2150
-982,-572,1894
-850,-405,1566
-586,-150,1195
-366,148,745
-159,402,381
42,634,108
178,875,27
321,1141,169
474,1443,277
423,1682,359
307,1786,531
111,1806,708
38,1763,892
107,1721,1228
154,1719,1487
125,1763,1760
27,1868,2053
-203,2013,2406
-496,2148,2844
-682,2177,3222
-722,2093,3458
-699,1976,3631
-756,1931,3760
-822,1939,3742
-711,1943,3637
-500,1929,3545
-341,1943,3566
-282,2001,3656
-275,2079,3705
-364,2165,3744
-452,2227,3732
-524,2314,3727
-604,2381,3774
-645,2379,3864
-625,2308,3946
-562,2246,3898
-354,2197,3759
-175,2182,3645
-120,2153,3625
-123,2107,3705
-162,2127,3787
-235,2161,3860
-339,2131,3874
-394,2081,3792
-341,2040,3736
-246,2064,3701
-131,2112,3694
-9,2150,3693
67,2162,3652
103,2136,3603
100,2123,3597
74,2167,3610
-14,2221,3699
-118,2257,3732
-191,2258,3724
-184,2234,3675
-118,2185,3652
-70,2141,3661
-17,2128,3668
-5,2131,3666
-87,2141,3682
-197,2147,3720
-260,2135,3745
-271,2118,3781
-255,2141,3826
-224,2165,3815
-180,2192,3796
-162,2222,3804
-184,2205,3785
-153,2198,3765
-82,2197,3741
-60,2191,3738
-50,2173,3753
-53,2166,3750
-68,2173,3738
-91,2171,3740
-107,2145,3740
-112,2140,3741
-108,2177,3757
-89,2208,3749
-93,2208,3764
-105,2178,3787
-72,2160,3751
-9,2147,3707
39,2156,3668
3,2170,3677
-64,2196,3727
-121,2207,3777
-133,2220,3797
-143,2206,3757
-156,2192,3720
-138,2165,3721
-105,2141,3722
1,2135,3687
119,2155,3661
151,2172,3669
96,2180,3679
-39,2176,3700
-183,2157,3730
-249,2140,3768
-226,2142,3749
-151,2166,3699
-82,2183,3640
-66,2210,3642
-83,2197,3667
-126,2173,3723
-167,2170,3741
-174,2168,3741
-144,2167,3717
-128,2160,3731
-161,2173,3748
-165,2203,3772
-140,2197,3761
-137,2203,3755
-113,2204,3755
-36,2189,3764
22,2184,3750
9,2198,3761
-73,2211,3777
-161,2212,3777
-239,2167,3781
-285,2167,3798
-295,2176,3836
-290,2157,3851
-312,2157,3876
-384,2167,3842
-462,2170,3803
-488,2159,3815
-423,2175,3792
-384,2238,3738
-451,2248,3736
-619,2218,3768
-822,2213,3808
-1009,2243,3815
-1109,2302,3775
-1150,2352,3762
-1147,2381,3748
-1136,2415,3694
-1184,2474,3634
-1280,2539,3651
-1342,2587,3672
-1294,2637,3700
-1194,2635,3679
-1129,2648,3633
-1081,2649,3618
-1005,2628,3585
-897,2626,3534
-811,2591,3495
-772,2563,3458
-760,2513,3428
-759,2481,3409
-710,2485,3425
-597,2465,3472
-505,2454,3527
-441,2443,3528
-366,2448,3506
-319,2455,3495
-323,2440,3485
-315,2385,3589
-318,2285,3742
-296,2214,3814
-209,2184,3808
-146,2204,3739
-88,2169,3743
24,2119,3729
193,2120,3804
321,2043,3874
365,1939,3885
375,1873,3843
327,1812,3766
274,1774,3753
276,1777,3780
298,1840,3800
258,1894,3914
227,1850,4035
249,1760,4070
316,1719,4026
428,1735,3969
573,1765,3882
628,1810,3904
589,1822,3960
556,1801,4023
563,1772,4055
628,1757,4027
725,1727,3978
816,1709,3904
823,1693,3853
749,1658,3827
638,1693,3839
526,1764,3912
467,1811,3996
469,1809,3967
524,1764,3891
566,1724,3792
605,1731,3716
613,1825,3751
567,1923,3808
472,1939,3876
320,1911,3981
249,1869,4012
331,1844,3926
439,1842,3849
456,1899,3820
430,1950,3803
392,1969,3808
328,1931,3822
247,1912,3801
189,1948,3782
126,1999,3756
66,2043,3754
11,2059,3753
-43,2052,3783
-70,2049,3836
-57,2052,3843
7,2051,3787
66,2061,3728
64,2090,3709
42,2104,3738
20,2089,3778
1,2087,3818
17,2070,3834
29,2053,3809
-15,2027,3839
-52,1993,3873
-24,2012,3889
8,2042,3871
26,2039,3852
47,2016,3847
70,2040,3828
105,2054,3833
149,2077,3859
164,2085,3868
124,2074,3887
30,2078,3892
-25,2102,3876
8,2109,3855
47,2106,3843
42,2118,3813
35,2116,3798
58,2092,3785
110,2103,3737
127,2138,3711
61,2152,3721
-32,2135,3760
-78,2116,3777
-98,2124,3817
-123,2112,3834
-97,2079,3826
-18,2066,3749
56,2091,3694
89,2104,3666
77,2099,3675
-3,2093,3757
-56,2091,3856
-56,2081,3888
-19,2087,3816
11,2089,3768
6,2109,3728
-9,2155,3719
4,2156,3739
-3,2129,3796
9,2128,3822
21,2135,3807
32,2123,3809
5,2084,3783
-54,2094,3768
-91,2093,3743
-96,2094,3751
-88,2116,3800
-56,2128,3824
-34,2116,3864
-53,2104,3879
-54,2087,3833
-27,2082,3790
-24,2103,3792
-30,2144,3785
-38,2160,3818
-57,2127,3830
-77,2093,3801
-93,2088,3792
-80,2086,3775
-42,2091,3737
-15,2133,3721
-12,2159,3746
-23,2146,3781
-57,2114,3792
-47,2094,3757
-24,2093,3700
-44,2086,3654
-99,2124,3678
-124,2159,3719
-116,2134,3742
-129,2119,3738
-134,2128,3722
-119,2128,3680
-90,2127,3633
-85,2129,3654
-70,2129,3690
-97,2126,3724
-127,2138,3780
-97,2125,3773
-27,2134,3715
33,2129,3719
102,2090,3687
101,2111,3662
-6,2154,3719
-73,2175,3763
-104,2192,3783
-138,2184,3791
-139,2167,3795
-73,2130,3752
-5,2104,3697
21,2114,3657
2,2117,3648
-40,2105,3647
-67,2061,3632
-90,2040,3557
-117,2051,3518
-94,2019,3445
-81,1972,3342
-101,1935,3235
-211,1875,3112
-365,1780,2911
-530,1653,2739
-562,1458,2413
-456,1203,1996
-342,984,1641
-255,812,1320
-170,646,990
-117,511,648
-205,402,295
-390,311,42
-613,304,-57
-966,305,-315
-1199,390,-144
-1251,620,256
-1167,890,642
-1003,1038,1007
-1128,1123,1238
-1378,1153,1592
-1650,1049,2037
-1949,803,2493
-2038,503,2911
-1895,297,3201
-1706,286,3352
-1666,471,3491
-1828,613,3770
-1933,362,3966
-1874,-233,4173
-1818,-844,4468
-1674,-1333,4653
-1364,-1629,4841
-1128,-1623,5032
-1144,-1359,5302
-1484,-1024,5589
-1888,-859,5949
-1975,-942,6353
-1915,-1223,6638
-1657,-1565,6848
-1403,-1827,6801
-976,-1966,6680
-604,-2002,6735
-447,-2030,7021
-496,-2202,7126
-533,-2541,7284
-266,-2872,7491
223,-3086,7740
652,-3206,7709
810,-3328,7483
976,-3399,7227
1232,-3325,7170
1279,-3236,7205
1079,-3330,7270
788,-3494,7477
512,-3528,7638
230,-3472,7694
-16,-3413,7684
-109,-3373,7638
-76,-3363,7557
-49,-3347,7374
-89,-3315,7229
-284,-3231,7215
-630,-3132,7252
-950,-3028,7256
-1250,-2924,7173
-1517,-2822,7032
-1793,-2701,6928
-2010,-2610,6840
-2092,-2565,6792
-2149,-2519,6697
-2136,-2480,6450
-2070,-2427,6135
-2026,-2373,5889
-1913,-2269,5569
-1804,-2211,5396
-1768,-2208,5280
-1724,-2218,5073
-1607,-2247,4761
-1470,-2233,4355
-1332,-2144,3946
-1163,-2018,3606
-1044,-1836,3310
-1056,-1605,3010
-1131,-1344,2765
-1178,-1168,2650
-1279,-1061,2510
-1423,-979,2354
-1500,-889,2130
-1443,-706,1792
-1259,-378,1363
-983,-18,1017
-691,229,722
-457,371,471
-322,541,320
72,735,324
284,999,268
265,1328,265
-13,1612,255
-350,1872,177
-620,2091,191
-640,2205,438
-418,2201,777
-106,2169,1048
95,2189,1246
228,2259,1437
278,2307,1696
339,2318,2073
427,2327,2464
403,2406,2807
234,2480,3052
54,2448,3155
-69,2395,3301
-25,2355,3477
148,2311,3590
216,2307,3653
168,2292,3751
71,2253,3817
1,2251,3900
-15,2256,3899
-7,2325,3807
-34,2432,3739
-17,2491,3687
26,2523,3645
35,2542,3609
17,2500,3564
-12,2424,3610
-37,2294,3702
6,2193,3721
64,2214,3707
54,2311,3711
32,2353,3704
35,2339,3697
21,2332,3735
45,2335,3744
78,2349,3769
47,2322,3739
70,2298,3740
168,2285,3753
244,2274,3735
232,2279,3792
127,2268,3787
67,2263,3715
35,2276,3664
35,2290,3640
59,2319,3642
76,2338,3651
43,2340,3638
33,2348,3604
35,2370,3582
65,2375,3534
142,2348,3513
145,2347,3545
59,2356,3601
-4,2323,3645
-12,2275,3642
-27,2256,3656
8,2246,3619
95,2242,3604
131,2254,3638
119,2241,3646
80,2295,3652
25,2351,3686
-5,2342,3706
-31,2326,3685
-77,2336,3713
-140,2344,3723
-162,2344,3727
-156,2333,3724
-107,2380,3712
-31,2400,3706
31,2386,3687
65,2368,3680
92,2364,3658
102,2375,3668
60,2384,3677
18,2380,3681
-17,2347,3673
-47,2322,3653
-47,2321,3640
-57,2308,3656
-45,2285,3667
-22,2262,3688
-31,2269,3688
-30,2289,3696
-35,2312,3689
-1,2328,3666
35,2337,3670
45,2340,3653
56,2313,3685
67,2295,3681
45,2307,3674
-4,2315,3657
-6,2289,3630
17,2290,3610
38,2297,3600
23,2286,3617
7,2282,3651
-10,2275,3660
-50,2309,3689
-69,2344,3712
-45,2340,3729
4,2328,3724
42,2329,3724
91,2334,3700
120,2325,3697
133,2319,3691
111,2322,3686
54,2309,3674
21,2301,3661
-2,2297,3672
-6,2281,3667
25,2284,3647
59,2304,3617
52,2317,3606
5,2316,3603
-11,2305,3596
10,2307,3602
26,2299,3595
64,2283,3559
70,2274,3551
50,2273,3566
42,2270,3590
60,2302,3616
34,2332,3643
-20,2314,3652
-92,2278,3623
-145,2272,3622
-106,2292,3633
-50,2348,3657
-27,2369,3672
-15,2371,3667
-27,2384,3649
-3,2354,3638
24,2346,3629
-31,2379,3689
-49,2386,3743
-19,2333,3724
-27,2317,3692
-32,2322,3692
9,2314,3669
34,2335,3661
33,2358,3662
10,2365,3672
2,2358,3675
9,2346,3657
-18,2360,3650
-44,2351,3636
-51,2316,3612
-65,2265,3589
-57,2244,3569
-16,2231,3554
36,2204,3542
14,2207,3541
-41,2242,3557
-80,2263,3592
-100,2280,3584
-78,2343,3561
-64,2357,3546
-86,2313,3571
-90,2303,3608
-117,2332,3640
-185,2349,3628
-241,2356,3628
-320,2400,3629
-470,2477,3668
-565,2500,3675
-638,2484,3685
-763,2472,3688
-856,2495,3675
-815,2553,3629
-791,2626,3593
-813,2686,3550
-877,2712,3521
-979,2700,3514
-1087,2692,3510
-1169,2737,3537
-1194,2794,3561
-1151,2797,3552
-1052,2793,3503
-983,2775,3460
-923,2741,3431
-810,2695,3413
-722,2701,3404
-693,2733,3460
-699,2721,3531
-668,2705,3549
-606,2737,3554
-556,2814,3562
-532,2879,3573
-531,2862,3601
-489,2793,3649
-442,2730,3725
-388,2618,3837
-255,2444,3844
-164,2383,3753
-115,2416,3759
-46,2397,3733
-14,2394,3701
20,2396,3707
68,2402,3805
158,2321,3904
279,2174,3962
418,2050,3993
607,1963,3959
835,1898,3914
1005,1845,3904
1115,1762,3923
1181,1640,3873
1167,1575,3847
1113,1563,3860
1075,1537,3863
1125,1464,3847
1177,1355,3849
1242,1240,3841
1253,1155,3847
1240,1131,3889
1243,1125,3867
1244,1159,3803
1204,1216,3807
1138,1251,3790
1109,1229,3824
1087,1194,3886
1061,1235,3879
1014,1331,3785
957,1438,3739
898,1554,3691
781,1628,3697
755,1657,3702
705,1690,3722
579,1718,3775
492,1698,3803
430,1706,3857
397,1789,3878
422,1904,3858
405,2002,3844
385,2034,3860
410,1993,3887
425,1941,3904
435,1929,3937
422,1914,4001
443,1880,4004
474,1887,3965
437,1942,3968
396,1980,3976
397,1971,3978
416,1926,3985
437,1917,3972
463,1943,3950
501,1964,3936
536,2007,3928
510,2037,3952
473,2025,3978
503,1965,3975
576,1927,3929
612,1904,3866
627,1902,3812
623,1930,3800
580,1951,3795
494,1965,3787
470,1970,3805
462,1968,3832
469,1962,3826
502,1947,3823
530,1923,3762
504,1937,3736
484,1956,3720
498,1944,3728
506,1929,3739
503,1931,3729
495,1971,3719
494,1954,3708
498,1949,3708
479,1961,3713
472,1947,3704
466,1931,3696
479,1906,3659
487,1888,3630
477,1902,3618
464,1937,3612
458,1979,3648
424,2019,3735
389,2001,3823
427,1936,3806
489,1909,3754
516,1923,3727
540,1925,3750
578,1907,3785
619,1912,3806
629,1943,3835
636,1959,3863
610,1944,3876
560,1918,3867
518,1926,3858
492,1981,3888
481,1993,3940
531,1980,3927
571,1971,3893
581,1950,3870
612,1933,3859
651,1940,3855
626,1947,3861
589,1927,3855
584,1907,3827
547,1892,3809
517,1883,3796
543,1874,3798
575,1888,3770
594,1921,3749
613,1905,3729
607,1888,3714
584,1887,3711
584,1901,3737
567,1910,3760
518,1895,3773
479,1878,3778
516,1887,3754
567,1910,3747
621,1896,3740
613,1883,3737
550,1898,3780
521,1922,3821
537,1930,3811
541,1931,3794
526,1930,3823
533,1912,3866
573,1883,3871
618,1869,3849
632,1873,3873
633,1883,3884
619,1876,3894
578,1883,3886
541,1909,3902
545,1916,3918
587,1905,3943
638,1868,3915
678,1864,3897
661,1906,3892
626,1916,3881
608,1905,3910
577,1888,3912
568,1887,3902
588,1893,3879
619,1885,3814
644,1876,3747
621,1882,3732
578,1901,3749
587,1877,3754
655,1848,3673
652,1902,3625
614,1931,3570
553,1907,3525
472,1910,3507
381,1911,3479
324,1890,3414
280,1860,3337
257,1847,3234
268,1856,3103
233,1892,3011
115,1924,2977
-52,1948,2970
-231,1977,2968
-363,1944,2924
-454,1860,2845
-527,1762,2781
-531,1663,2665
-482,1578,2523
-447,1546,2423
-451,1546,2319
-480,1530,2267
-554,1527,2311
-602,1570,2390
-635,1531,2428
-684,1417,2408
-779,1279,2361
-806,1145,2306
-804,1018,2239
-807,899,2208
-801,791,2211
-761,731,2265
-777,707,2239
-857,587,2289
-895,543,2388
-872,495,2453
-852,422,2490
-923,346,2509
-1044,334,2641
-1274,425,2655
-1533,548,2719
-1760,618,2936
-1863,647,3140
-1879,598,3365
-1799,433,3641
-1692,204,3755
-1541,33,3761
-1439,-19,3730
-1345,-109,3703
-1380,-218,3727
-1337,-360,3811
-1502,-538,4009
-1918,-568,4365
-2651,-453,4736
-3365,-276,4982
-3505,-291,5259
-3709,-541,5232
-3691,-803,5024
-3215,-1018,4905
-3320,-1188,5049
-4092,-1163,5334
-4628,-1024,5442
-5103,-1007,5514
-5776,-1074,5520
-6134,-1083,5567
-6227,-1132,5719
-6312,-1266,5828
-6302,-1420,5930
-6176,-1542,5948
-5933,-1617,5794
-5753,-1656,5713
-5753,-1674,5879
-5840,-1681,5931
-5769,-1729,5885
-5342,-1747,5693
-4339,-1680,5410
-3136,-1612,5189
-2202,-1592,5040
-1575,-1655,5015
-1256,-1759,5207
-1239,-1807,5531
-1488,-1850,5878
-1785,-1940,6030
-1999,-2009,6067
-1992,-1996,6040
-1625,-1959,5891
-1205,-1979,5893
-1015,-2014,5986
-859,-2086,6141
-844,-2206,6428
-942,-2332,6559
-996,-2478,6515
-932,-2584,6343
-633,-2609,6094
-299,-2570,5827
-65,-2504,5637
29,-2444,5425
-58,-2435,5241
-341,-2432,5149
-622,-2384,4845
-789,-2313,4589
-959,-2147,4425
-1080,-1886,4243
-1167,-1662,4090
-1177,-1474,3824
-1059,-1344,3526
-911,-1241,3182
-760,-1167,2936
-643,-1205,2622
-452,-1312,2118
-187,-1183,1511
-105,-659,1156
-178,-17,775
-347,586,449
-657,1059,398
-1030,1286,480
-1238,1370,778
-1180,1337,942
-941,1374,1009
-612,1655,1015
-400,2045,876
-340,2340,733
-315,2387,781
-143,2239,840
202,2195,1090
496,2180,1464
553,2132,1676
252,2191,1990
-151,2284,2402
-378,2276,2767
-404,2228,3073
-300,2164,3263
-14,2124,3289
267,2149,3313
437,2216,3345
542,2307,3349
605,2347,3350
582,2338,3391
448,2355,3453
285,2361,3568
117,2349,3692
-29,2363,3755
-159,2403,3823
-241,2400,3802
-219,2387,3740
-112,2396,3672
41,2393,3610
168,2368,3543
194,2295,3520
169,2259,3574
183,2227,3597
229,2204,3562
245,2225,3590
224,2262,3623
176,2297,3591
159,2328,3578
168,2350,3581
195,2372,3561
217,2403,3571
233,2413,3628
230,2408,3663
246,2377,3675
280,2316,3677
301,2267,3672
331,2260,3676
347,2319,3656
318,2362,3657
278,2318,3653
234,2314,3666
208,2323,3659
197,2331,3691
221,2316,3722
252,2318,3726
342,2323,3666
432,2317,3635
518,2329,3609
544,2330,3608
466,2324,3604
339,2322,3625
254,2320,3647
218,2313,3639
236,2318,3603
290,2333,3596
329,2357,3578
333,2385,3603
336,2387,3635
324,2384,3645
300,2351,3639
327,2297,3617
348,2286,3597
337,2290,3616
302,2269,3634
263,2254,3641
257,2266,3636
269,2296,3617
265,2326,3636
229,2324,3636
214,2327,3626
244,2336,3652
264,2366,3639
278,2362,3628
306,2334,3643
318,2321,3653
349,2337,3639
385,2338,3598
396,2329,3569
408,2350,3578
364,2355,3609
283,2331,3620
227,2314,3642
216,2307,3639
240,2340,3632
280,2351,3618
277,2365,3607
227,2383,3622
204,2391,3664
265,2353,3680
322,2291,3623
312,2286,3569
268,2281,3588
236,2275,3629
249,2284,3677
280,2306,3697
325,2343,3654
334,2363,3632
326,2347,3631
311,2343,3644
321,2325,3648
353,2292,3643
355,2293,3681
344,2307,3725
380,2267,3704
413,2243,3632
399,2286,3585
370,2321,3565
362,2342,3576
334,2342,3605
293,2366,3634
234,2411,3659
166,2423,3640
124,2416,3614
135,2406,3581
176,2393,3570
203,2369,3580
199,2378,3600
207,2391,3650
194,2378,3662
162,2380,3633
153,2369,3614
190,2318,3596
229,2317,3563
260,2332,3570
250,2337,3590
211,2355,3631
159,2359,3643
132,2336,3653
156,2324,3635
210,2313,3622
263,2313,3643
301,2297,3640
301,2284,3662
298,2269,3681
314,2265,3683
309,2255,3677
315,2264,3661
345,2303,3651
315,2333,3650
284,2327,3653
263,2310,3655
261,2305,3636
266,2297,3637
290,2290,3648
294,2318,3652
288,2348,3632
306,2348,3617
303,2330,3608
283,2331,3641
323,2297,3641
380,2278,3643
381,2292,3657
373,2286,3650
376,2273,3654
344,2268,3648
337,2253,3639
342,2249,3622
331,2280,3632
355,2301,3636
393,2339,3592
335,2363,3593
278,2352,3629
255,2313,3648
254,2293,3669
286,2291,3658
279,2315,3665
250,2347,3681
206,2349,3696
217,2345,3679
223,2315,3669
241,2291,3663
275,2286,3639
306,2305,3646
303,2329,3664
264,2321,3662
198,2330,3674
154,2331,3674
165,2350,3659
203,2379,3666
246,2354,3655
268,2318,3600
247,2300,3577
227,2314,3600
227,2329,3608
213,2327,3621
191,2336,3624
148,2365,3605
93,2373,3588
12,2349,3566
-86,2336,3557
-172,2330,3546
-274,2362,3582
-408,2453,3637
-567,2488,3673
-793,2454,3775
-966,2458,3773
-1188,2603,3808
-1366,2672,3800
-1426,2699,3711
-1454,2750,3685
-1472,2820,3717
-1438,2804,3693
-1414,2751,3652
-1368,2759,3611
-1302,2802,3588
-1226,2827,3573
-1143,2835,3546
-1070,2819,3557
-1023,2752,3566
-893,2645,3549
-709,2533,3486
-568,2433,3458
-487,2304,3479
-413,2267,3475
-393,2331,3468
-353,2387,3501
-291,2334,3601
-194,2252,3702
15,2162,3782
298,2010,3801
550,1848,3747
739,1783,3666
887,1734,3573
1039,1696,3605
1187,1682,3767
1297,1662,3842
1341,1691,3859
1277,1730,3843
1229,1722,3777
1248,1658,3818
1321,1597,3941
1415,1533,4025
1529,1470,4030
1705,1455,3946
1911,1484,3795
2061,1529,3703
2116,1615,3710
2052,1654,3784
1932,1636,3886
1817,1641,3969
1682,1666,3929
1525,1741,3914
1443,1784,3872
1417,1786,3781
1379,1784,3742
1326,1714,3727
1273,1653,3748
1169,1660,3767
1024,1756,3796
907,1860,3833
792,1924,3845
703,1942,3840
646,1931,3763
604,1943,3712
608,1950,3694
622,1981,3673
594,2017,3675
549,1992,3708
478,1976,3762
395,1990,3806
342,2017,3807
301,2057,3778
268,2063,3764
260,2062,3760
266,2085,3752
248,2089,3738
194,2071,3789
191,2059,3765
246,2115,3744
218,2204,3731
158,2262,3718
160,2263,3751
199,2208,3759
232,2164,3750
274,2134,3755
292,2109,3765
266,2130,3798
216,2164,3807
152,2200,3799
106,2226,3808
102,2204,3870
117,2161,3878
171,2136,3856
265,2127,3815
405,2105,3757
488,2109,3753
491,2124,3746
451,2132,3728
379,2155,3741
298,2157,3759
244,2179,3801
257,2190,3796
297,2184,3753
315,2161,3724
328,2189,3707
345,2208,3685
355,2187,3702
342,2180,3736
327,2197,3744
334,2172,3744
323,2162,3715
288,2150,3706
307,2125,3734
378,2113,3761
415,2130,3777
454,2121,3745
502,2127,3704
489,2151,3690
441,2147,3698
407,2118,3693
378,2098,3706
350,2103,3717
339,2111,3716
352,2144,3728
381,2170,3719
390,2176,3692
354,2185,3691
344,2163,3707
363,2131,3696
381,2122,3707
387,2106,3719
412,2081,3712
432,2103,3700
433,2131,3680
403,2164,3693
362,2166,3729
381,2156,3765
435,2132,3763
463,2133,3734
445,2142,3736
438,2146,3733
422,2145,3731
386,2152,3755
399,2149,3741
432,2148,3724
456,2144,3727
464,2131,3734
479,2141,3749
514,2131,3738
522,2141,3732
493,2156,3734
499,2113,3730
508,2071,3719
505,2054,3675
497,2041,3635
501,2011,3588
495,1994,3570
496,1981,3532
526,1951,3491
573,1921,3429
604,1877,3316
613,1831,3151
594,1794,3036
602,1688,2879
630,1501,2692
666,1263,2435
699,1042,2146
746,864,1817
716,789,1454
547,836,1265
283,921,1026
-222,995,828
-767,987,848
-1061,898,1015
-1161,711,1052
-1182,547,986
-1085,436,838
-1009,435,568
-1024,622,260
-1250,1005,112
-1497,1345,91
-1694,1408,251
-1899,1205,458
-2011,851,705
-2055,506,1004
-2145,218,1253
-2286,53,1318
-2446,54,1307
-2620,159,1421
-2693,213,1519
-2666,136,1765
-2611,-175,2218
-2614,-685,2724
-2681,-1223,3225
-2770,-1661,3379
-2854,-1940,3307
-3084,-1812,3288
-3400,-1539,3251
-3592,-1602,3597
-3834,-2189,5021
-4023,-2943,5850
-4286,-3557,6249
-4692,-3753,6145
-4947,-3565,5971
-5193,-3317,6039
-5421,-3232,6491
-5635,-3446,7634
-5811,-3770,8904
-5412,-3883,9415
-4609,-3799,9489
-3665,-3693,9231
-2824,-3712,8892
-2260,-3740,8656
-2092,-3796,8653
-2183,-3879,8646
-2245,-3882,8506
-2207,-3808,8253
-2078,-3742,7900
-1893,-3664,7464
-1705,-3547,7153
-1581,-3407,6876
-1480,-3303,6644
-1433,-3299,6355
-1449,-3366,6042
-1551,-3437,5803
-1700,-3497,5726
-1884,-3457,5770
-2165,-3394,5782
-2497,-3402,5857
-2800,-3411,5959
-3030,-3404,5985
-3221,-3422,5987
-3406,-3470,5963
-3426,-3495,5870
-3335,-3467,5727
-3381,-3379,5695
-3443,-3304,5684
-3306,-3297,5496
-3163,-3340,5318
-3086,-3309,5146
-2908,-3217,4721
-2631,-3152,4180
-2371,-3029,3814
-2159,-2842,3683
-2028,-2641,3414
-1959,-2485,3038
-1949,-2347,2681
-1952,-2194,2284
-2012,-2047,1973
-2169,-1909,1700
-2213,-1732,1276
-1986,-1372,897
-1631,-911,688
-1254,-455,343
-807,12,-98
-424,528,-427
-231,1057,-564
-12,1505,-646
-10,1832,-633
11,1996,-598
27,2038,-559
48,2053,-510
160,2093,-359
200,2130,-93
88,2172,317
-27,2147,731
-38,2119,1110
-2,2223,1398
12,2390,1660
11,2498,1942
-15,2547,2227
-76,2557,2434
-128,2592,2576
-227,2630,2737
-290,2668,2916
-264,2671,3103
-284,2689,3232
-327,2732,3276
-315,2759,3307
-263,2760,3323
-200,2805,3376
-130,2881,3435
-59,2966,3403
-46,3017,3312
-127,2991,3295
-202,2920,3315
-232,2877,3292
-231,2868,3261
-284,2853,3307
-348,2859,3318
-382,2897,3368
-403,2859,3415
-420,2799,3437
-390,2772,3446
-275,2746,3417
-123,2705,3398
-27,2661,3349
4,2618,3334
-25,2569,3348
-8,2560,3404
54,2615,3412
72,2700,3386
6,2757,3375
-71,2784,3396
-142,2766,3429
-148,2724,3429
-113,2700,3406
-102,2723,3376
-88,2729,3330
-101,2735,3337
-124,2735,3408
-95,2722,3440
-68,2708,3439
-77,2703,3397
-38,2721,3407
17,2715,3402
40,2705,3369
59,2717,3321
32,2770,3402
-10,2776,3523
5,2714,3545
8,2667,3491
-20,2656,3471
-13,2631,3475
47,2611,3436
37,2652,3437
-16,2669,3462
-24,2646,3453
-29,2634,3462
-29,2653,3453
8,2655,3420
13,2641,3401
29,2653,3396
25,2701,3400
-6,2685,3406
-64,2672,3417
-85,2695,3407
-84,2698,3418
-96,2671,3448
-106,2639,3493
-103,2616,3520
-87,2624,3521
-99,2678,3542
-78,2672,3553
-84,2647,3554
-84,2623,3554
-84,2609,3568
-58,2623,3559
-50,2614,3532
-39,2601,3482
-59,2599,3467
-91,2592,3475
-100,2591,3476
-96,2605,3435
-101,2629,3426
-119,2650,3423
-134,2654,3439
-138,2634,3457
-98,2597,3421
-83,2634,3402
-109,2674,3413
-112,2655,3390
-118,2663,3382
-120,2680,3400
-95,2650,3407
-72,2610,3396
-47,2610,3388
-56,2608,3388
-74,2614,3413
-115,2629,3455
-146,2657,3488
-165,2663,3460
-191,2644,3461
-191,2612,3472
-141,2590,3466
-83,2586,3460
-59,2627,3475
-52,2662,3484
-95,2687,3498
-153,2663,3536
-155,2617,3525
-120,2600,3496
-80,2599,3491
-63,2633,3503
-81,2685,3516
-94,2698,3515
-113,2661,3548
-122,2621,3558
-93,2593,3532
-69,2599,3495
-70,2616,3472
-73,2633,3462
-61,2640,3457
-66,2625,3473
-76,2618,3460
-68,2611,3448
-47,2582,3423
-76,2585,3419
-89,2603,3423
-95,2627,3444
-122,2626,3470
-114,2606,3479
-99,2604,3444
-86,2618,3433
-62,2610,3419
-7,2599,3427
53,2606,3438
14,2624,3436
-58,2624,3435
-132,2617,3447
-190,2632,3433
-207,2638,3435
-181,2632,3448
-139,2632,3441
-124,2641,3446
-131,2632,3416
-168,2625,3392
-240,2626,3368
-330,2637,3361
-386,2642,3344
-435,2645,3306
-565,2684,3307
-711,2693,3287
-820,2704,3268
-924,2790,3236
-1027,2897,3145
-1121,2953,3081
-1197,3009,3039
-1261,3097,3020
-1345,3196,3070
-1413,3228,3114
-1438,3214,3160
-1432,3172,3194
-1422,3162,3192
-1441,3205,3175
-1480,3217,3192
-1490,3191,3239
-1467,3148,3307
-1445,3108,3421
-1446,3059,3470
-1428,3050,3496
-1394,3030,3465
-1352,2997,3461
-1292,2971,3561
-1232,2902,3590
-1163,2836,3572
-1073,2786,3628
-1011,2669,3658
-949,2537,3711
-898,2422,3825
-863,2265,3863
-770,2135,3884
-617,2087,3900
-399,2095,3947
-174,2034,4024
21,1891,4196
287,1709,4309
622,1552,4237
929,1466,4092
1109,1450,3909
1155,1483,3897
1153,1509,4021
1184,1520,4121
1307,1509,4085
1441,1489,3996
1564,1495,3932
1641,1549,3884
1666,1600,3827
1633,1651,3861
1576,1656,3899
1567,1646,3892
1583,1662,3825
1551,1709,3755
1497,1741,3714
1398,1781,3711
1286,1857,3718
1194,1923,3706
1055,1966,3725
882,1959,3730
720,1952,3719
566,1968,3739
497,2019,3721
483,2100,3679
425,2162,3641
350,2208,3667
273,2215,3702
190,2184,3688
138,2169,3695
151,2122,3692
215,2087,3645
236,2118,3646
179,2229,3670
100,2283,3681
64,2280,3700
43,2298,3711
52,2317,3676
107,2314,3629
193,2332,3613
243,2370,3616
229,2411,3662
209,2421,3654
155,2411,3639
106,2392,3613
128,2383,3576
157,2404,3612
170,2411,3663
195,2407,3703
177,2372,3717
159,2377,3714
175,2386,3698
192,2383,3688
189,2386,3686
199,2361,3700
204,2332,3703
205,2329,3679
206,2299,3667
179,2311,3669
140,2352,3651
126,2386,3649
109,2415,3675
116,2430,3721
108,2413,3708
149,2341,3649
244,2291,3576
290,2324,3567
297,2381,3586
279,2413,3609
223,2406,3608
179,2394,3602
157,2386,3597
176,2387,3565
228,2376,3546
259,2358,3553
268,2321,3591
239,2330,3609
216,2354,3595
188,2385,3619
149,2408,3629
132,2399,3620
145,2376,3619
174,2363,3618
220,2366,3649
245,2353,3656
275,2344,3609
293,2373,3582
294,2378,3558
277,2375,3572
232,2383,3641
225,2323,3624
215,2301,3627
253,2284,3586
278,2349,3498
238,2398,3487
181,2345,3498
182,2251,3502
166,2237,3459
120,2273,3398
169,2230,3329
240,2205,3241
161,2184,3182
27,2198,3084
115,2216,2920
127,2092,2774
84,1891,2577
41,1728,2370
-27,1568,2127
-44,1390,1885
84,1224,1610
262,1107,1349
479,1047,1134
618,1038,883
519,1101,741
157,1154,655
-251,1146,692
-606,1177,860
-812,1157,1031
-783,955,1086
-575,721,1078
-335,501,1108
-42,315,1171
182,276,1283
246,368,1506
132,394,1867
-54,179,2120
-237,-175,2319
-430,-546,2520
-668,-943,2823
-742,-1202,3127
-776,-1372,3383
-890,-1353,3759
-1051,-1157,4308
-1206,-1048,4977
-1331,-1289,5516
-1316,-1760,5842
-1024,-2203,6048
-436,-2509,6063
157,-2660,6210
411,-2653,6643
258,-2528,7184
-138,-2468,7647
-474,-2569,7947
-451,-2728,8204
-157,-2818,8357
120,-2848,8461
258,-2859,8555
248,-2809,8640
130,-2734,8764
-6,-2608,8963
-160,-2442,9141
-360,-2343,9331
-498,-2238,9450
-536,-2151,9469
-576,-2102,9338
-633,-2001,9159
-696,-1787,8916
-867,-1605,8732
-1130,-1502,8642
-1410,-1409,8523
-1688,-1340,8407
-1983,-1299,8263
-2244,-1268,8064
-2482,-1294,7809
-2681,-1283,7576
-2833,-1223,7329
-2963,-1192,7117
-3024,-1258,6817
-3007,-1342,6623
-2926,-1441,6332
-2771,-1474,5964
-2602,-1430,5638
-2432,-1317,5397
-2218,-1224,5114
-2017,-1147,4761
-1883,-1064,4206
-1745,-1062,3636
-1667,-1050,3189
-1591,-1009,2726
-1526,-916,2301
-1440,-789,1863
-1335,-676,1399
-1254,-540,874
-1227,-279,411
-1203,82,-40
-1042,475,-406
-775,858,-742
-533,1197,-953
-376,1424,-1057
-58,1613,-1009
53,1828,-1059
121,1971,-964
166,1970,-668
352,1873,-289
592,1723,126
813,1629,557
842,1693,988
732,1821,1487
493,1905,1995
315,1937,2443
276,1960,2839
354,2026,3055
452,2084,3223
479,2098,3339
422,2161,3482
332,2267,3640
259,2386,3815
223,2486,3916
205,2554,3925
122,2620,3913
44,2676,3862
59,2667,3825
91,2614,3741
141,2605,3631
198,2616,3589
183,2639,3540
158,2624,3476
137,2598,3472
75,2608,3484
66,2607,3531
109,2544,3546
157,2494,3543
181,2480,3515
225,2440,3456
217,2405,3457
149,2423,3503
84,2438,3573
39,2420,3637
13,2385,3617
14,2379,3590
106,2379,3550
189,2380,3509
196,2433,3498
206,2477,3499
231,2512,3548
237,2553,3601
183,2547,3624
126,2470,3634
100,2405,3621
98,2392,3646
174,2375,3659
243,2349,3653
250,2348,3654
246,2348,3632
263,2389,3625
275,2399,3630
246,2431,3661
227,2449,3673
224,2440,3660
228,2428,3606
260,2426,3576
280,2440,3573
276,2447,3560
266,2441,3550
247,2425,3549
239,2432,3528
233,2422,3549
196,2402,3576
185,2373,3550
210,2353,3553
191,2364,3574
173,2386,3554
200,2403,3583
206,2428,3622
232,2428,3609
253,2421,3602
257,2423,3601
215,2422,3652
189,2428,3689
193,2409,3678
175,2399,3684
183,2409,3652
246,2406,3625
255,2409,3619
230,2409,3626
217,2383,3630
224,2363,3596
238,2386,3595
269,2400,3590
277,2394,3572
235,2424,3630
189,2435,3667
178,2406,3683
201,2402,3652
246,2387,3630
292,2403,3610
289,2431,3613
291,2432,3616
273,2409,3611
249,2392,3617
232,2403,3604
242,2401,3579
229,2411,3566
202,2435,3582
196,2435,3590
158,2445,3593
113,2446,3623
130,2440,3629
194,2435,3613
240,2445,3574
242,2445,3549
214,2404,3570
181,2393,3612
190,2413,3632
199,2451,3641
188,2460,3645
192,2430,3631
212,2416,3616
246,2387,3601
269,2361,3597
257,2356,3622
224,2365,3639
225,2380,3664
232,2374,3638
231,2362,3606
228,2339,3595
242,2343,3616
239,2369,3616
255,2374,3591
240,2394,3590
229,2395,3590
235,2386,3577
248,2397,3567
278,2402,3549
284,2411,3542
270,2419,3554
271,2427,3539
282,2422,3558
280,2408,3571
282,2398,3550
258,2387,3551
236,2375,3568
233,2373,3582
215,2393,3596
193,2378,3607
198,2371,3628
234,2360,3624
261,2344,3620
270,2360,3608
312,2353,3586
284,2368,3601
256,2377,3627
265,2357,3633
279,2345,3608
260,2336,3605
271,2342,3595
283,2366,3587
277,2373,3614
285,2368,3613
318,2368,3593
347,2363,3575
359,2364,3576
362,2366,3594
