AccelerometerX,AccelerometerY,AccelerometerZ
-806,871,4132
-783,873,4121
-785,879,4133
-807,861,4141
-827,846,4133
-839,853,4122
-836,868,4138
-834,873,4150
-810,870,4147
-798,881,4133
-804,875,4115
-800,873,4120
-808,863,4121
-813,874,4135
-827,861,4128
-853,852,4116
-837,864,4115
-811,881,4125
-791,890,4118
-794,875,4121
-814,857,4130
-833,859,4117
-835,873,4134
-834,880,4121
-824,870,4117
-813,863,4118
-794,872,4101
-775,875,4104
-793,877,4127
-821,885,4132
-859,882,4137
-871,864,4143
-838,861,4151
-795,863,4150
-776,877,4131
-790,875,4129
-818,866,4135
-835,865,4134
-830,859,4144
-814,860,4140
-807,869,4134
-805,874,4131
-799,876,4146
-797,864,4136
-823,856,4148
-845,863,4157
-838,857,4164
-815,865,4155
-772,866,4132
-767,866,4121
-776,868,4129
-804,872,4137
-816,883,4138
-809,878,4127
-812,870,4132
-791,875,4126
-788,869,4124
-813,859,4132
-831,868,4143
-817,876,4136
-801,878,4122
-791,879,4124
-800,875,4133
-797,869,4127
-796,883,4118
-804,881,4115
-811,870,4108
-826,872,4106
-847,872,4116
-851,866,4121
-849,860,4125
-811,873,4115
-780,880,4114
-776,869,4105
-793,860,4116
-807,872,4127
-804,870,4122
-781,875,4114
-790,867,4117
-788,859,4125
-778,863,4116
-777,867,4122
-800,865,4117
-818,870,4121
-833,866,4148
-820,868,4147
-803,854,4155
-799,872,4145
-808,871,4150
-812,862,4150
-811,864,4156
-809,858,4160
-781,860,4160
-762,873,4139
-769,858,4144
-774,858,4161
-780,860,4157
-781,859,4154
-802,857,4142
-825,860,4147
-825,864,4154
-815,864,4134
-799,863,4121
-792,864,4128
-803,869,4148
-816,866,4157
-813,870,4149
-808,866,4155
-799,862,4164
-798,844,4150
-807,837,4135
-814,848,4133
-806,854,4129
-811,861,4133
-827,879,4130
-827,879,4144
-803,873,4152
-792,875,4157
-817,896,4178
-817,880,4187
-781,864,4174
-736,850,4149
-726,851,4140
-756,855,4152
-784,851,4159
-795,861,4154
-807,854,4144
-782,861,4122
-761,859,4113
-773,869,4111
-791,878,4112
-793,866,4109
-791,860,4114
-791,861,4117
-798,848,4115
-786,850,4097
-764,849,4084
-755,856,4084
-774,865,4093
-810,881,4106
-816,872,4100
-811,876,4102
-797,880,4101
-772,890,4096
-775,882,4115
-759,880,4113
-766,874,4111
-791,878,4108
-786,889,4126
-776,876,4123
-781,868,4115
-796,878,4122
-810,867,4136
-836,858,4136
-834,868,4147
-801,873,4153
-756,875,4143
-735,883,4138
-747,880,4140
-763,872,4143
-784,877,4144
-795,874,4142
-790,875,4146
-800,880,4141
-798,866,4130
-799,876,4123
-793,879,4127
-777,870,4128
-774,876,4130
-789,876,4143
-794,875,4137
-805,869,4136
-787,868,4133
-776,874,4120
-774,880,4132
-765,876,4135
-753,869,4120
-751,870,4119
-775,865,4136
-793,858,4141
-806,856,4150
-817,864,4149
-823,866,4141
-814,867,4135
-800,866,4141
-773,856,4129
-779,854,4120
-778,858,4120
-796,869,4134
-801,863,4120
-783,863,4113
-783,863,4119
-785,860,4119
-786,863,4112
-773,853,4115
-783,834,4112
-766,840,4103
-765,842,4098
-780,844,4093
-784,841,4100
-776,854,4093
-760,848,4079
-738,831,4066
-733,820,4081
-757,828,4097
-779,823,4097
-769,819,4088
-758,795,4086
-737,792,4070
-734,811,4093
-741,824,4103
-748,834,4124
-753,821,4153
-733,812,4194
-730,819,4236
-736,838,4287
-755,849,4389
-825,845,4506
-933,870,4686
-978,941,4940
-879,989,5188
-860,1013,5400
-874,1083,5532
-861,1161,5698
-824,1183,5901
-827,1197,6031
-877,1234,6160
-855,1291,6287
-737,1300,6396
-602,1314,6488
-542,1320,6499
-549,1341,6492
-583,1417,6528
-620,1500,6553
-705,1552,6569
-851,1587,6615
-939,1599,6653
-930,1578,6585
-870,1482,6398
-703,1379,6135
-527,1307,5776
-409,1329,5476
-374,1407,5280
-434,1521,5180
-573,1632,5103
-688,1679,5105
-637,1616,4987
-513,1572,4704
-424,1648,4530
-436,1751,4380
-449,1668,4062
-411,1394,3657
-225,1098,3153
2,968,2687
59,948,2293
-96,935,1912
-352,890,1538
-565,850,1119
-721,923,708
-851,1074,391
-912,1231,207
-814,1400,125
-615,1562,46
-295,1691,-2
45,1762,22
355,1793,66
586,1856,122
738,1965,166
872,2035,235
1022,2068,265
1055,2119,366
1100,2136,437
1089,2176,517
985,2203,599
858,2189,691
744,2182,806
664,2177,895
615,2130,970
544,2049,1036
454,1980,1119
356,1908,1154
261,1799,1131
222,1747,1170
241,1789,1193
241,1857,1261
231,1877,1382
205,1843,1483
236,1811,1643
302,1828,1771
339,1838,1821
362,1761,1946
334,1550,2038
200,1274,2078
10,964,2159
-111,752,2351
-256,803,2667
-468,1117,2939
-666,1498,3141
-890,1725,3272
-1026,1714,3485
-1084,1556,3869
-1028,1394,4318
-911,1421,4580
-816,1563,4845
-802,1635,5203
-858,1673,5543
-1017,1827,5921
-1328,2006,6287
-1715,2077,6764
-2029,1949,7269
-2302,1754,7558
-2576,1670,7698
-2776,1653,7760
-2831,1608,7773
-2709,1530,7684
-2558,1468,7490
-2454,1459,7338
-2353,1478,7199
-2226,1520,6966
-2046,1493,6679
-1877,1433,6334
-1723,1378,5993
-1591,1298,5696
-1452,1204,5380
-1362,1120,5082
-1318,1099,4732
-1339,1147,4456
-1350,1175,4277
-1284,1166,4122
-1140,1125,3993
-977,1069,3834
-834,1029,3677
-765,1010,3581
-753,1017,3550
-745,1033,3538
-757,1058,3555
-743,1098,3581
-716,1135,3596
-701,1154,3600
-697,1128,3611
-679,1117,3620
-645,1114,3629
-669,1138,3659
-779,1162,3734
-839,1157,3824
-854,1166,3874
-872,1186,3905
-921,1188,3953
-951,1198,4031
-942,1190,4042
-924,1230,4040
-866,1268,4083
-832,1266,4100
-816,1248,4114
-816,1248,4142
-825,1247,4141
-828,1227,4137
-817,1217,4142
-812,1208,4166
-862,1206,4157
-882,1223,4162
-886,1211,4151
-897,1195,4130
-902,1188,4149
-882,1185,4128
-877,1179,4126
-867,1167,4111
-869,1159,4097
-844,1162,4084
-819,1160,4063
-782,1167,4039
-741,1174,4053
-780,1161,4055
-905,1168,4052
-994,1179,4075
-1055,1151,4106
-975,1139,4122
-833,1162,4088
-759,1183,4043
-747,1194,4025
-804,1193,4050
-836,1177,4075
-843,1149,4059
-866,1145,4032
-880,1147,4025
-889,1143,4030
-902,1155,4040
-922,1177,4032
-936,1213,4027
-949,1223,4032
-950,1194,4016
-933,1169,4023
-908,1155,4038
-894,1154,4032
-900,1180,4025
-917,1189,4034
-933,1204,4034
-963,1219,4040
-982,1214,4051
-989,1200,4041
-992,1196,4028
-983,1224,4028
-982,1232,4031
-994,1220,4042
-999,1203,4042
-1015,1191,4029
-1024,1219,4016
-1029,1236,4019
-1042,1238,3989
-1060,1256,3967
-1111,1250,3949
-1197,1254,3944
-1311,1267,3961
-1359,1247,3951
-1323,1244,3920
-1316,1277,3910
-1375,1287,3891
-1440,1302,3938
-1480,1295,3993
-1486,1265,3995
-1425,1240,3999
-1422,1225,3980
-1431,1220,3990
-1451,1213,4017
-1483,1195,4014
-1535,1216,4034
-1547,1227,4084
-1540,1209,4075
-1542,1220,4067
-1523,1224,4075
-1463,1213,4085
-1377,1195,4100
-1310,1176,4115
-1252,1173,4122
-1248,1196,4112
-1283,1202,4079
-1301,1210,4087
-1278,1216,4124
-1244,1177,4141
-1211,1120,4166
-1185,1064,4122
-1161,1040,4045
-1159,1035,4048
-1163,1029,4063
-1102,1000,4085
-1047,989,4099
-1027,968,4090
-992,963,4058
-914,992,4069
-836,1012,4072
-759,995,4093
-696,935,4095
-630,869,4047
-582,880,4022
-528,942,4058
-494,954,4060
-483,933,4080
-455,910,4142
-410,851,4152
-354,812,4179
-270,795,4227
-158,777,4207
-73,796,4176
-42,819,4140
-74,844,4112
-92,859,4155
-113,835,4192
-129,817,4222
-167,823,4229
-232,833,4207
-262,854,4211
-255,842,4242
-219,838,4248
-212,863,4239
-226,881,4215
-267,918,4203
-322,957,4196
-349,975,4199
-384,994,4213
-474,997,4188
-570,1019,4175
-619,1038,4174
-640,1068,4186
-633,1083,4178
-651,1063,4173
-702,1023,4174
-738,1006,4161
-744,1014,4125
-735,1030,4086
-728,1060,4059
-755,1095,4044
-811,1103,4048
-868,1105,4032
-913,1102,4028
-908,1086,4038
-884,1090,4044
-848,1096,4032
-829,1096,4030
-846,1097,4041
-881,1099,4042
-894,1105,4048
-881,1120,4072
-864,1132,4063
-857,1137,4066
-867,1128,4076
-870,1123,4064
-867,1115,4051
-863,1114,4049
-876,1126,4045
-900,1134,4079
-941,1111,4084
-960,1126,4082
-949,1134,4062
-904,1130,4045
-854,1124,4035
-848,1115,4040
-883,1117,4076
-913,1119,4074
-913,1114,4061
-908,1109,4068
-884,1114,4064
-862,1105,4072
-894,1095,4071
-917,1094,4095
-916,1105,4112
-905,1113,4116
-875,1123,4098
-842,1105,4093
-851,1089,4095
-897,1089,4102
-912,1097,4110
-898,1124,4099
-873,1131,4084
-875,1130,4074
-904,1118,4074
-924,1107,4091
-941,1107,4094
-921,1101,4084
-891,1101,4084
-886,1106,4069
-904,1123,4057
-940,1125,4065
-973,1114,4066
-997,1098,4067
-981,1100,4078
-972,1099,4073
-989,1099,4070
-1031,1086,4077
-1027,1072,4072
-960,1091,4060
-894,1098,4033
-872,1108,4029
-907,1104,4057
-947,1099,4063
-948,1091,4062
-938,1109,4049
-930,1116,4055
-949,1117,4070
-1000,1121,4076
-999,1111,4082
-960,1093,4091
-913,1080,4070
-902,1079,4073
-929,1096,4079
-961,1105,4098
-979,1113,4094
-963,1111,4104
-911,1105,4092
-883,1111,4084
-871,1089,4098
-892,1075,4102
-933,1067,4088
-983,1062,4096
-983,1063,4104
-945,1068,4101
-899,1074,4081
-876,1076,4078
-891,1085,4064
-905,1083,4062
-912,1087,4075
-913,1072,4087
-899,1063,4078
-897,1065,4074
-901,1062,4068
-899,1065,4050
-911,1068,4038
-919,1077,4031
-909,1074,4032
-930,1068,4025
-926,1059,4029
-922,1058,4033
-892,1062,4027
-867,1068,4024
-873,1084,4013
-903,1091,4020
-929,1093,4048
-943,1047,4050
-909,1029,4056
-894,1051,4051
-933,1076,4041
-963,1077,4058
-966,1089,4079
-946,1085,4091
-935,1070,4090
-894,1072,4107
-871,1078,4123
-872,1091,4118
-879,1105,4122
-896,1118,4156
-897,1137,4186
-904,1135,4204
-914,1163,4252
-921,1187,4340
-867,1197,4415
-849,1202,4476
-883,1217,4582
-932,1286,4751
-1018,1392,4956
-986,1520,5261
-847,1632,5574
-761,1693,5956
-739,1741,6366
-652,1804,6717
-501,1900,7084
-360,2042,7425
-256,2229,7792
-235,2359,8227
-388,2412,8615
-683,2413,9032
-961,2175,9242
-985,1667,9145
-894,1134,8787
-693,733,8222
-554,490,7573
-657,373,7040
-903,333,6654
-1077,344,6275
-1223,394,5874
-1388,425,5381
-1478,436,4756
-1439,511,4011
-1273,650,3350
-1157,765,2793
-1100,726,2284
-955,623,1880
-740,563,1490
-512,513,1124
-318,467,811
-181,457,493
-109,527,200
-35,645,-58
-21,814,-283
-20,1014,-455
0,1211,-504
34,1412,-477
142,1640,-405
317,1849,-317
519,1934,-278
754,1955,-189
915,1986,-111
1020,2079,-6
1084,2189,77
1089,2287,199
977,2247,394
834,2114,590
759,2027,673
745,2031,643
780,2068,576
829,2142,603
848,2189,667
782,2158,875
671,1970,1050
562,1753,1126
526,1618,1120
493,1552,986
429,1488,885
392,1436,906
347,1440,1015
250,1429,1114
191,1377,1271
139,1335,1423
113,1329,1481
199,1313,1515
357,1218,1527
549,1074,1633
683,976,1800
689,986,1995
570,1109,2204
289,1236,2442
-66,1228,2682
-327,1161,2961
-378,1118,3320
-220,1155,3585
-54,1447,3787
-105,1863,4093
-403,2113,4600
-713,2103,5156
-913,1939,5737
-1151,1722,6419
-1479,1462,6945
-1956,1320,7380
-2631,1185,7700
-3248,1013,7917
-3631,947,8013
-3745,1061,7967
-3635,1256,7809
-3504,1431,7718
-3281,1524,7600
-2931,1563,7358
-2608,1647,7075
-2327,1737,6791
-2055,1785,6554
-1818,1739,6385
-1639,1616,6192
-1550,1532,5938
-1577,1502,5659
-1738,1478,5420
-1818,1409,5235
-1754,1310,5079
-1645,1210,4887
-1574,1138,4674
-1523,1083,4477
-1391,1072,4337
-1204,1091,4217
-1027,1090,4111
-924,1049,4030
-854,990,3930
-811,960,3788
-783,986,3707
-824,1002,3704
-893,986,3715
-970,974,3742
-1006,981,3794
-1026,975,3802
-1046,973,3811
-1024,972,3848
-992,953,3870
-931,939,3840
-895,941,3818
-911,964,3847
-959,956,3917
-990,967,4022
-975,1001,4111
-937,1000,4142
-907,972,4138
-892,931,4138
-894,947,4150
-879,960,4139
-830,974,4130
-811,980,4108
-843,985,4134
-869,972,4161
-889,959,4143
-900,937,4151
-956,940,4169
-1011,936,4189
-1033,929,4188
-1021,932,4170
-997,938,4135
-976,931,4125
-968,921,4120
-946,912,4146
-933,925,4141
-929,943,4121
-955,941,4135
-988,916,4130
-1003,897,4128
-995,895,4121
-951,914,4102
-922,936,4086
-928,934,4071
-931,919,4087
-930,902,4087
-906,902,4078
-926,918,4075
-945,932,4074
-949,924,4084
-924,904,4083
-908,908,4079
-917,918,4083
-945,907,4078
-929,890,4074
-874,893,4066
-856,908,4061
-890,927,4069
-941,945,4098
-985,919,4107
-990,913,4129
-944,911,4133
-879,933,4124
-845,910,4129
-851,898,4121
-874,889,4138
-908,906,4174
-921,934,4154
-928,936,4135
-925,912,4140
-923,900,4132
-935,910,4132
-954,910,4119
-967,926,4119
-964,927,4126
-934,913,4123
-906,923,4116
-907,928,4126
-902,935,4135
-887,923,4133
-874,908,4124
-853,894,4110
-840,911,4098
-856,919,4111
-882,937,4104
-908,958,4105
-922,940,4117
-936,913,4107
-924,901,4094
-880,901,4091
-884,911,4096
-899,924,4100
-885,942,4099
-859,954,4096
-848,945,4104
-855,931,4112
-901,928,4106
-920,929,4112
-906,945,4109
-901,954,4101
-903,947,4094
-907,939,4104
-912,924,4094
-904,920,4103
-895,907,4113
-882,922,4106
-872,935,4105
-868,928,4086
-868,927,4086
-875,924,4088
-856,930,4074
-856,943,4068
-866,954,4074
-895,963,4098
-914,969,4104
-889,962,4102
-850,955,4098
-831,963,4098
-853,954,4094
-880,941,4110
-916,952,4105
-931,966,4116
-937,979,4115
-955,977,4098
-1000,976,4085
-1068,982,4083
-1095,994,4086
-1124,1002,4077
-1156,1014,4067
-1195,1029,4061
-1259,1050,4052
-1356,1068,4054
-1424,1099,4052
-1491,1103,4052
-1564,1103,4045
-1653,1127,4021
-1755,1137,4016
-1801,1148,4024
-1772,1146,4054
-1709,1132,4038
-1665,1123,4027
-1642,1132,4001
-1626,1132,4014
-1602,1135,4048
-1587,1128,4057
-1593,1152,4065
-1581,1153,4115
-1545,1113,4116
-1510,1096,4123
-1494,1103,4133
-1492,1077,4111
-1483,1052,4102
-1453,1016,4095
-1399,982,4103
-1353,946,4111
-1311,937,4065
-1290,966,4051
-1290,990,4016
-1282,1023,4002
-1227,1034,4046
-1147,1004,4049
-1129,1002,4056
-1127,970,4064
-1077,919,4018
-1018,886,3972
-1003,868,3913
-1043,871,3887
-1105,897,3951
-1126,894,3969
-1124,867,3916
-1132,866,3889
-1086,809,3898
-1011,754,3886
-932,729,3895
-813,724,3955
-726,727,3940
-692,747,3970
-635,749,4002
-572,750,4004
-541,767,4040
-504,745,4075
-453,700,4105
-371,678,4181
-276,683,4223
-181,694,4228
-152,705,4225
-123,728,4264
-96,738,4298
-56,733,4300
-30,723,4290
-37,741,4315
-54,737,4351
-74,734,4385
-45,708,4412
17,664,4414
71,632,4394
71,616,4372
45,625,4361
10,659,4355
-4,696,4342
-57,737,4298
-155,761,4282
-237,785,4261
-306,800,4255
-322,806,4245
-298,793,4219
-294,807,4176
-334,838,4164
-416,866,4198
-521,875,4224
-601,875,4244
-650,886,4219
-667,894,4194
-656,893,4173
-650,891,4138
-646,913,4110
-680,954,4105
-734,996,4108
-747,1010,4096
-768,1012,4102
-776,997,4098
-747,983,4087
-713,962,4093
-705,965,4084
-722,976,4075
-741,986,4084
-755,1009,4072
-761,1020,4086
-782,1019,4077
-792,996,4063
-798,997,4078
-777,1009,4102
-750,1027,4107
-751,1021,4101
-780,1009,4102
-799,1004,4099
-790,1020,4116
-776,1040,4120
-768,1030,4107
-786,1025,4114
-819,1021,4103
-824,1022,4127
-805,1042,4135
-794,1041,4132
-804,1031,4136
-810,1022,4142
-809,1014,4135
-798,1022,4127
-799,1040,4126
-813,1043,4141
-818,1024,4135
-826,1020,4116
-808,1042,4113
-800,1051,4115
-800,1046,4129
-795,1026,4142
-803,1009,4111
-806,1009,4084
-802,1032,4097
-802,1042,4103
-811,1009,4086
-807,994,4072
-823,992,4056
-817,987,4065
-791,978,4071
-755,1001,4055
-739,1028,4039
-747,1042,4050
-778,1031,4055
-815,1025,4069
-805,1014,4068
-793,1026,4067
-794,1025,4066
-808,1018,4076
-830,1012,4095
-848,1018,4102
-854,1033,4122
-839,1026,4130
-816,1010,4122
-822,1013,4100
-828,1020,4098
-827,1017,4119
-821,1010,4125
-825,1003,4104
-837,1015,4095
-841,1025,4112
-842,1019,4106
-830,1009,4115
-816,1014,4115
-798,1009,4118
-806,1008,4129
-801,992,4135
-778,995,4121
-758,1020,4105
-757,1020,4104
-787,1012,4098
-818,1009,4118
-839,1017,4131
-836,1008,4135
-821,994,4143
-804,993,4114
-809,999,4124
-803,1005,4124
-796,1005,4136
-808,1019,4128
-799,1022,4114
-808,1018,4107
-811,1003,4121
-809,1012,4112
-809,1005,4116
-819,1004,4129
-820,997,4119
-800,1000,4116
-773,1017,4122
-760,1013,4117
-766,1019,4090
-777,1024,4089
-781,1030,4093
-797,1032,4095
-796,1009,4104
-777,993,4087
-757,1004,4075
-755,1014,4081
-768,1018,4099
-778,1009,4094
-804,1003,4088
-807,1002,4090
-791,997,4101
-783,1003,4105
-784,996,4090
-799,1005,4086
-806,1020,4083
-796,1030,4088
-776,1039,4092
-742,1026,4096
-700,1008,4076
-697,996,4068
-688,1003,4075
-692,1001,4082
-687,1001,4082
-679,1014,4096
-686,1030,4108
-692,1045,4107
-696,1030,4116
-662,1017,4122
-636,1012,4146
-629,1008,4161
-633,1020,4201
-620,1039,4260
-596,1050,4279
-534,1074,4348
-488,1110,4438
-478,1148,4545
-477,1171,4680
-450,1177,4864
-411,1193,5038
-354,1253,5223
-298,1336,5402
-278,1406,5551
-263,1446,5702
-244,1500,5898
-211,1592,6200
-175,1672,6567
-117,1724,6923
28,1803,7199
202,1899,7392
336,2004,7607
326,2033,7788
175,2012,7964
73,1942,8098
53,1820,8141
-5,1741,8115
-149,1708,8023
-293,1583,7856
-338,1329,7649
-343,996,7281
-374,695,6769
-484,431,6164
-626,204,5618
-713,57,5018
-780,23,4358
-826,116,3840
-918,332,3499
-1065,579,3260
-1243,716,2902
-1201,668,2403
-1001,503,1845
-727,355,1287
-470,269,811
-281,212,472
-134,213,214
-62,358,33
-36,589,-38
-73,832,-94
-80,1055,-80
25,1209,-23
186,1271,-97
369,1334,-179
555,1414,-161
685,1514,-88
732,1647,4
735,1733,99
745,1708,124
769,1599,138
838,1523,162
947,1576,178
994,1709,150
1021,1810,149
1045,1822,159
1071,1745,206
1062,1653,307
956,1533,433
800,1426,514
621,1343,603
449,1314,704
334,1361,849
155,1437,986
-66,1423,1158
-265,1309,1353
-392,1182,1551
-385,1125,1775
-342,1113,1956
-267,1088,2079
-145,1029,2202
-86,1009,2349
-170,1057,2558
-347,1201,2950
-565,1415,3344
-752,1599,3719
-902,1744,4110
-1043,1804,4415
-1189,1820,4666
-1143,1793,4774
-979,1829,4990
-993,1910,5413
-1066,1914,5839
-1174,1900,6278
-1379,1894,6595
-1561,1862,6839
-1702,1741,6996
-1877,1600,7023
-2090,1506,7057
-2335,1458,7143
-2432,1492,7199
-2389,1536,7228
-2329,1470,7168
-2229,1329,7039
-2124,1183,6852
-2017,1105,6556
-1884,1125,6358
-1732,1229,6162
-1663,1337,5961
-1685,1381,5843
-1701,1369,5737
-1708,1279,5586
-1715,1165,5359
-1673,1074,5128
-1580,1034,4889
-1515,1030,4693
-1534,1012,4535
-1541,938,4436
-1532,863,4333
-1463,835,4257
-1316,819,4157
-1169,791,4040
-1061,784,3936
-1035,795,3890
-1117,802,3878
-1137,784,3870
-1087,777,3858
-1039,822,3857
-954,850,3834
-857,884,3834
-794,873,3825
-778,818,3844
-803,787,3888
-843,766,3907
-908,773,3950
-970,792,3996
-966,792,4005
-925,778,3985
-953,768,4004
-1026,773,4056
-1082,783,4115
-1111,780,4129
-1103,772,4114
-1063,784,4112
-1065,789,4139
-1079,787,4155
-1141,773,4167
-1151,750,4194
-1093,754,4236
-1047,761,4258
-1023,748,4266
-1023,740,4244
-1032,739,4226
-1038,746,4223
-1051,740,4252
-1061,734,4248
-1088,724,4245
-1099,723,4232
-1070,728,4223
-1049,730,4206
-1048,727,4204
-1050,718,4200
-1037,711,4184
-1026,711,4161
-1027,725,4168
-1035,731,4175
-1012,732,4171
-982,720,4153
-979,704,4147
-985,702,4128
-996,725,4128
-991,732,4115
-996,726,4118
-981,733,4109
-968,719,4096
-963,704,4094
-972,684,4086
-987,673,4096
-1009,677,4104
-1029,686,4109
-1046,724,4100
-1034,743,4091
-1012,743,4087
-1015,726,4082
-1024,715,4077
-1013,720,4084
-983,713,4096
-976,702,4096
-1007,706,4099
-1029,700,4108
-1035,710,4108
-1041,714,4122
-1030,704,4124
-993,690,4128
-969,707,4115
-977,724,4113
-994,742,4114
-977,743,4088
-980,741,4072
-997,731,4083
-1009,728,4110
-1012,748,4130
-1006,765,4102
-1016,783,4110
-1026,779,4120
-1036,758,4120
-977,746,4096
-912,754,4068
-901,760,4052
-940,763,4049
-1015,768,4075
-1055,765,4096
-1035,765,4099
-1010,776,4094
-1003,780,4122
-1003,775,4143
-993,771,4142
-967,770,4131
-929,765,4115
-911,762,4129
-946,755,4159
-980,742,4162
-1016,736,4165
-1019,746,4151
-1026,764,4177
-1011,758,4181
-974,740,4169
-951,738,4157
-953,742,4130
-973,748,4129
-989,770,4141
-971,777,4151
-939,773,4132
-919,768,4118
-921,776,4130
-923,775,4130
-922,765,4134
-932,775,4134
-946,778,4128
-936,766,4115
-935,742,4106
-929,740,4106
-905,743,4116
-906,752,4119
-908,751,4126
-911,744,4130
-909,737,4110
-926,754,4099
-933,774,4103
-954,765,4113
-951,753,4101
-948,760,4090
-925,777,4092
-907,773,4083
-909,769,4079
-929,772,4084
-935,771,4083
-941,769,4077
-957,774,4078
-989,769,4092
-998,758,4110
-967,767,4103
-928,780,4098
-923,793,4095
-935,795,4105
-943,790,4110
-933,783,4119
-933,788,4134
-938,784,4153
-928,783,4154
-926,772,4144
-930,779,4147
-937,781,4139
-924,790,4139
-913,789,4122
-945,783,4132
-971,779,4134
-996,777,4149
-951,769,4148
-916,781,4146
-916,780,4128
-942,785,4133
-956,791,4145
-940,791,4138
-919,774,4128
-912,769,4119
-922,781,4131
-934,773,4108
-959,782,4127
-955,795,4146
-953,791,4128
-963,785,4113
-965,782,4132
-945,779,4141
-931,763,4135
-925,759,4128
-924,765,4121
-930,781,4121
-913,801,4120
-913,813,4114
-948,807,4126
-970,806,4123
-960,788,4129
-920,784,4123
-890,787,4123
-894,793,4118
-921,770,4117
-960,763,4112
-974,771,4102
-961,783,4101
-947,787,4113
-959,796,4114
-969,804,4111
-974,805,4103
-975,797,4096
-978,809,4095
-989,828,4095
-1011,823,4089
-1026,802,4086
-1039,781,4096
-1059,778,4081
-1049,788,4089
-1050,805,4091
-1070,816,4086
-1092,827,4110
-1117,817,4115
-1125,828,4081
-1143,829,4066
-1165,858,4060
-1204,893,4047
-1256,905,4055
-1313,933,4056
-1375,950,4042
-1429,952,4048
-1459,954,4084
-1477,945,4119
-1515,904,4097
-1530,898,4069
-1564,917,4072
-1595,914,4064
-1625,900,4079
-1641,856,4113
-1659,819,4127
-1620,804,4113
-1540,789,4065
-1460,795,4019
-1425,810,4009
-1431,820,4016
-1466,834,4014
-1487,869,4025
-1485,881,4075
-1483,891,4074
-1466,892,4098
-1442,883,4126
-1417,872,4104
-1396,857,4096
-1349,831,4102
-1314,816,4075
-1320,802,4068
-1323,799,4080
-1335,817,4080
-1378,834,4050
-1437,836,4032
-1442,833,4040
-1419,807,4041
-1387,761,4029
-1358,730,4026
-1372,741,3975
-1450,777,3952
-1529,783,3977
-1555,757,4014
-1504,695,4115
-1301,631,4237
-1083,602,4172
-983,633,4126
-915,663,4170
-888,684,4157
-930,643,4175
-992,567,4190
-992,516,4178
-898,506,4240
-770,487,4271
-644,470,4209
-518,469,4195
-391,453,4183
-219,433,4177
-19,413,4192
174,407,4207
369,418,4250
509,451,4257
583,489,4283
633,536,4230
620,585,4209
547,617,4249
459,603,4289
343,612,4307
247,649,4314
180,697,4290
78,730,4274
-68,731,4266
-234,730,4228
-363,744,4217
-463,785,4222
-523,827,4210
-585,864,4175
-682,864,4159
-742,843,4159
-777,816,4129
-844,836,4107
-887,858,4100
-905,882,4094
-894,894,4069
-887,901,4058
-904,900,4058
-918,904,4069
-914,918,4075
-906,937,4070
-921,930,4076
-942,959,4084
-949,988,4090
-927,1015,4081
-930,1026,4066
-953,1007,4059
-968,974,4053
-955,950,4057
-928,944,4057
-909,973,4059
-920,986,4055
-913,979,4063
-900,988,4070
-879,994,4078
-860,1010,4091
-848,1021,4093
-866,1026,4098
-883,1011,4113
-869,977,4119
-869,980,4122
-894,1007,4138
-902,1012,4153
-881,1014,4130
-871,1033,4124
-881,1023,4115
-885,997,4118
-895,1007,4116
-901,1021,4106
-899,1018,4119
-893,1013,4119
-894,1018,4108
-899,997,4096
-891,991,4101
-901,995,4104
-919,992,4101
-906,1008,4098
-865,1006,4097
-856,987,4096
-868,979,4099
-884,987,4095
-900,991,4099
-900,994,4096
-909,995,4089
-906,985,4091
-893,960,4084
-879,954,4092
-876,969,4102
-858,968,4096
-864,951,4090
-887,955,4108
-900,956,4101
-883,958,4083
-862,966,4097
-872,970,4082
-885,966,4094
-894,959,4107
-896,969,4103
-886,971,4107
-874,958,4098
-876,958,4093
-883,953,4086
-883,950,4085
-877,953,4087
-864,965,4086
-861,967,4080
-884,967,4076
-891,968,4084
-886,982,4097
-875,977,4108
-862,981,4119
-872,967,4118
-896,938,4122
-888,926,4140
-877,931,4130
-889,924,4108
-900,932,4105
-916,964,4109
-909,974,4107
-906,970,4107
-905,954,4100
-906,942,4108
-902,939,4112
-892,941,4095
-864,957,4105
-841,976,4113
-836,985,4095
-853,977,4095
-882,968,4089
-898,957,4102
-896,942,4104
-875,937,4112
-856,944,4108
-851,962,4108
-866,964,4105
-874,955,4113
-887,955,4132
-872,958,4129
-843,949,4132
-831,965,4146
-828,987,4172
-835,975,4202
-863,953,4220
-888,945,4258
-860,964,4315
-808,1007,4358
-759,1061,4437
-693,1102,4534
-630,1120,4688
-617,1164,4837
-611,1217,5001
-607,1279,5225
-587,1328,5451
-596,1398,5656
-530,1474,5779
-466,1609,5947
-579,1731,6237
-692,1805,6681
-620,1800,7099
-427,1765,7353
-324,1788,7503
-303,1831,7587
-377,1869,7624
-480,1871,7723
-464,1862,7837
-370,1850,7799
-377,1855,7791
-404,1822,7779
-367,1627,7563
-337,1298,7183
-299,1028,6817
-288,898,6407
-395,857,5877
-598,731,5315
-726,544,4754
-789,400,4174
-759,344,3569
-775,430,3134
-861,508,2692
-984,491,2172
-1084,446,1618
-1017,407,1154
-791,411,790
-470,511,503
-167,673,255
17,862,83
98,1015,23
150,1102,3
233,1153,-16
334,1166,-25
432,1185,-69
512,1310,-46
619,1496,11
781,1626,-15
913,1670,-24
928,1638,40
868,1539,157
757,1387,228
573,1348,236
450,1350,187
409,1322,115
412,1286,91
387,1335,205
311,1412,315
256,1452,372
203,1452,439
181,1420,467
153,1310,438
147,1135,433
203,941,437
278,795,436
331,750,439
245,851,610
-65,1061,907
-411,1131,1209
-636,1038,1437
-738,918,1643
-681,785,1778
-502,663,1917
-399,639,2149
-346,797,2560
-166,1155,3155
-56,1485,3703
-83,1672,4203
-240,1790,4861
-536,1880,5785
-822,1825,6838
-1043,1603,7786
-1225,1171,8367
-1568,775,8661
-2295,541,8791
-3136,420,8839
-3649,479,8886
-3764,680,8911
-3694,968,8820
-3579,1208,8605
-3370,1347,8255
-3003,1450,7874
-2477,1447,7511
-1921,1381,7107
-1537,1367,6710
-1348,1380,6318
-1269,1368,5952
-1229,1286,5667
-1212,1198,5423
-1304,1132,5190
-1429,1070,4998
-1537,971,4804
-1575,867,4572
-1552,793,4316
-1429,758,4090
-1282,759,3949
-1204,716,3851
-1154,665,3760
-1100,695,3704
-1041,738,3684
-976,779,3665
-967,808,3649
-991,808,3648
-940,813,3628
-854,834,3593
-831,850,3612
-895,838,3658
-1032,840,3734
-1139,858,3820
-1120,858,3868
-1038,873,3883
-993,872,3910
-1012,861,3969
-1046,845,4020
-1046,826,4042
-1069,815,4069
-1071,806,4127
-1041,793,4178
-1022,766,4184
-1004,743,4220
-974,744,4257
-978,731,4263
-978,740,4261
-973,754,4255
-945,776,4269
-954,775,4261
-1010,762,4257
-1074,759,4295
-1082,745,4305
-1036,765,4268
-989,776,4238
-1001,766,4217
-1026,754,4210
-1064,741,4192
-1068,734,4168
-1025,727,4160
-996,727,4162
-1022,708,4180
-1037,690,4189
-1036,677,4183
-1030,662,4167
-1035,674,4140
-1033,697,4125
-1010,688,4107
-994,694,4096
-1011,704,4080
-1046,702,4072
-1052,723,4083
-1015,736,4071
-974,754,4059
-938,767,4070
-940,776,4079
-982,775,4072
-1032,748,4062
-1026,746,4061
-1018,749,4070
-1007,746,4082
-977,766,4073
-1004,793,4089
-1043,800,4108
-1043,770,4114
-1051,723,4119
-1043,689,4117
-979,698,4083
-934,730,4052
-973,756,4072
-1024,757,4103
-1062,758,4109
-1072,776,4112
-1044,772,4110
-997,763,4088
-1005,766,4079
-1024,773,4094
-1024,793,4092
-1014,803,4098
-1003,787,4088
-1002,788,4086
-1019,795,4100
-1020,801,4121
-1003,785,4111
-1012,772,4099
-1041,770,4087
-1042,761,4081
-1032,757,4066
-1026,772,4079
-1030,778,4111
-1032,764,4097
-1045,761,4090
-1033,767,4103
-1020,779,4090
-1009,786,4101
-998,789,4105
-989,789,4100
-980,778,4103
-969,758,4109
-968,762,4125
-998,759,4122
-1027,750,4119
-1032,749,4145
-1010,759,4148
-979,759,4134
-960,757,4128
-976,753,4124
-983,751,4113
-964,751,4140
-955,750,4142
-960,737,4135
-965,747,4119
-968,753,4127
-968,733,4128
-968,729,4123
-978,733,4126
-1004,726,4129
-1020,724,4127
-1037,724,4137
-1019,729,4153
-986,714,4141
-987,715,4120
-1003,733,4119
-1016,742,4118
-1000,746,4122
-992,751,4119
-969,755,4112
-946,753,4106
-953,755,4108
-972,745,4100
-996,748,4102
-1005,754,4112
-1004,741,4125
-1000,733,4105
-1006,727,4090
-1014,738,4106
-1001,737,4129
-979,737,4115
-974,750,4107
-977,746,4118
-972,735,4120
-963,724,4121
-946,710,4109
-941,717,4107
-950,723,4134
-955,730,4135
-968,731,4116
-998,735,4125
-1038,744,4132
-1030,731,4138
-1014,730,4118
-997,724,4111
-1011,742,4118
-1055,766,4121
-1082,765,4129
-1077,776,4120
-1079,780,4107
-1102,781,4106
-1171,781,4088
-1248,803,4068
-1303,827,4075
-1365,848,4075
-1427,863,4089
-1467,871,4097
-1484,888,4107
-1518,890,4111
-1575,856,4127
-1613,808,4156
-1644,786,4137
-1620,807,4120
-1578,822,4098
-1546,848,4099
-1544,861,4122
-1560,864,4118
-1563,880,4110
-1536,866,4110
-1491,847,4089
-1484,854,4072
-1483,874,4077
-1449,882,4099
-1421,865,4086
-1401,872,4094
-1382,875,4113
-1381,892,4089
-1395,905,4093
-1406,904,4108
-1395,877,4102
-1354,863,4119
-1298,862,4138
-1289,880,4108
-1303,897,4126
-1311,895,4119
-1322,877,4097
-1313,879,4116
-1247,872,4163
-1219,848,4146
-1231,842,4096
-1224,852,4102
-1197,858,4090
-1178,858,4080
-1128,827,4096
-1059,781,4060
-1052,785,4051
-1045,775,4106
-1012,765,4100
-962,766,4077
-931,768,4087
-918,761,4051
-906,771,4049
-895,795,4055
-913,798,4032
-971,785,4027
-969,792,4070
-947,798,4102
-952,795,4065
-940,791,4049
-890,820,4063
-831,850,4070
-787,849,4069
-746,815,4042
-738,802,4049
-745,803,4035
-754,814,4035
-712,819,4039
-650,812,4034
-541,800,4065
-429,758,4057
-372,725,4059
-340,708,4103
-322,720,4101
-304,774,4128
-272,813,4171
-221,829,4193
-208,823,4180
-236,810,4184
-263,813,4203
-276,808,4200
-290,826,4193
-307,843,4197
-349,851,4198
-406,839,4206
-458,843,4203
-492,868,4217
-480,882,4205
-491,904,4196
-503,919,4188
-536,921,4171
-540,926,4160
-513,929,4140
-520,947,4107
-563,966,4099
-629,975,4092
-683,978,4092
-712,981,4087
-740,969,4074
-727,974,4068
-710,974,4071
-690,981,4051
-686,988,4048
-710,991,4042
-772,1019,4056
-800,1033,4067
-800,1028,4066
-799,1001,4068
-790,989,4055
-779,969,4049
-762,961,4047
-765,993,4054
-781,1010,4070
-787,1003,4062
-793,991,4070
-803,992,4075
-761,1007,4060
-688,1024,4066
-698,1022,4057
-742,1029,4081
-805,1052,4099
-822,1057,4106
-823,1041,4110
-829,1039,4101
-820,1044,4113
-812,1048,4129
-794,1020,4135
-807,993,4141
-826,1026,4158
-835,1056,4165
-839,1063,4172
-842,1060,4174
-842,1054,4157
-841,1065,4136
-830,1056,4116
-842,1056,4142
-871,1066,4153
-877,1060,4135
-849,1051,4107
-819,1044,4099
-802,1045,4086
-806,1049,4086
-798,1057,4085
-776,1059,4068
-785,1065,4056
-820,1088,4096
-849,1082,4101
-851,1063,4100
-854,1052,4112
-861,1049,4105
-872,1050,4106
-870,1060,4120
-846,1058,4111
-834,1069,4084
-829,1074,4075
-819,1060,4072
-813,1051,4067
-802,1060,4059
-786,1073,4049
-801,1093,4052
-814,1075,4062
-805,1050,4056
-775,1031,4051
-763,1044,4034
-759,1055,4047
-770,1058,4052
-811,1066,4057
-843,1060,4071
-843,1047,4078
-851,1032,4077
-856,1030,4085
-839,1030,4105
-835,1033,4100
-835,1048,4096
-832,1054,4094
-804,1059,4080
-792,1058,4075
-785,1067,4073
-811,1067,4080
-829,1056,4089
-824,1032,4076
-821,1028,4076
-821,1038,4104
-819,1052,4105
-811,1055,4109
-807,1048,4107
-808,1046,4107
-810,1039,4101
-804,1047,4106
-796,1038,4123
-789,1037,4117
-773,1042,4111
-782,1045,4124
-805,1048,4123
-816,1043,4124
-835,1029,4104
-843,1030,4114
-814,1039,4114
-801,1051,4110
-819,1054,4110
-823,1037,4118
-834,1043,4134
-844,1043,4146
-828,1044,4147
-799,1033,4137
-782,1038,4127
-789,1053,4118
-814,1043,4126
-830,1037,4127
-852,1025,4128
-863,1026,4130
-839,1022,4107
-808,1018,4090
-785,1021,4096
-793,1046,4094
-784,1034,4086
-783,1036,4083
-792,1033,4071
-792,1024,4066
-802,1018,4050
-812,1018,4057
-833,1008,4048
-834,991,4056
-813,988,4031
-807,991,4030
-799,1017,4057
-787,1023,4067
-805,1034,4061
-818,1035,4055
-801,1043,4073
-778,1030,4095
-764,1009,4088
-781,992,4107
-788,996,4129
-758,1023,4197
-622,1062,4289
-492,1076,4391
-268,1076,4618
-83,1126,4933
-47,1192,5289
-189,1370,5661
-525,1596,6043
-931,1795,6451
-1002,1871,6918
-721,1775,7203
-317,1659,7332
-60,1602,7445
99,1588,7554
159,1588,7651
212,1690,7807
177,1939,8115
-241,2152,8528
-1028,2083,8835
-1438,1847,9024
-1134,1638,9053
-413,1586,8739
172,1679,8491
415,1652,8279
215,1437,7851
-310,1166,7340
-927,963,6814
-1450,823,6213
-1778,664,5501
-1978,505,4834
-2020,391,4084
-2069,363,3254
-2194,342,2428
-2238,215,1581
-2169,48,858
-1883,-123,396
-1433,-212,122
-1052,-186,-153
-776,-48,-408
-570,144,-563
-390,330,-613
-184,495,-588
4,730,-498
247,1008,-409
498,1266,-293
738,1436,-239
1019,1606,-184
1255,1713,-199
1463,1738,-138
1475,1804,12
1270,1972,158
1000,2140,154
724,2235,138
449,2237,226
237,2180,272
46,2049,279
-128,1878,288
-195,1686,294
-161,1478,286
-67,1294,246
32,1297,213
118,1536,173
170,1753,135
211,1684,81
277,1403,115
447,1068,155
676,775,139
901,565,170
1116,501,222
1192,562,205
1032,642,178
844,761,272
708,942,508
591,1103,729
393,1156,931
152,1196,1216
-149,1236,1487
-376,1267,1851
-334,1329,2336
-136,1520,2947
-46,1799,3748
-99,1928,4647
-37,1794,5714
35,1336,6527
-274,911,7154
-1010,624,7881
-1995,385,8511
-3128,250,8967
-4163,283,9332
-5006,564,9735
-5543,839,9906
-5646,1104,9606
-5296,1405,9002
-4651,1556,8405
-3789,1609,7815
-2960,1703,7280
-2349,1836,6835
-1927,1942,6413
-1623,1950,6076
-1495,1871,5808
-1446,1734,5528
-1463,1583,5334
-1578,1414,5128
-1754,1279,4879
-1904,1193,4723
-1908,1119,4494
-1775,1098,4287
-1616,1096,4193
-1489,1034,4134
-1367,981,4037
-1264,929,3978
-1136,895,3952
-995,862,3941
-867,824,3894
-734,831,3755
-624,904,3625
-663,987,3611
-844,988,3686
-984,932,3768
-1030,920,3820
-1014,948,3859
-982,954,3838
-978,965,3845
-1004,972,3857
-1053,947,3871
-1094,929,3903
-1134,919,3966
-1204,896,4047
-1283,849,4088
-1360,832,4112
-1402,814,4132
-1406,806,4156
-1356,802,4170
-1273,821,4161
-1199,845,4141
-1189,864,4153
-1216,860,4171
-1249,851,4189
-1244,854,4197
-1267,867,4187
-1319,865,4199
-1378,853,4220
-1411,844,4217
-1404,843,4196
-1364,845,4163
-1318,828,4134
-1268,810,4115
-1244,794,4100
-1237,803,4107
-1240,814,4116
-1252,829,4124
-1247,828,4131
-1214,823,4152
-1170,812,4137
-1157,821,4119
-1159,828,4105
-1110,828,4071
-1076,828,4065
-1061,846,4101
-1094,860,4127
-1144,852,4138
-1167,836,4144
-1140,810,4149
-1069,795,4135
-1040,797,4091
-1051,798,4101
-1087,808,4107
-1128,813,4096
-1149,811,4090
-1136,800,4089
-1114,785,4091
-1095,784,4101
-1071,793,4114
-1071,792,4098
-1104,783,4087
-1116,791,4093
-1103,805,4092
-1095,804,4089
-1094,799,4078
-1106,791,4081
-1103,790,4090
-1116,809,4074
-1112,806,4073
-1090,808,4061
-1078,806,4058
-1073,787,4070
-1056,782,4079
-1055,788,4078
-1059,798,4085
-1048,792,4064
-1044,783,4054
-1042,797,4073
-1032,809,4089
-1041,813,4092
-1056,810,4087
-1039,793,4084
-1015,794,4103
-1024,794,4095
-1028,800,4093
-1010,798,4116
-994,792,4093
-1007,795,4098
-1023,815,4114
-1029,820,4125
-1029,827,4108
-1014,823,4099
-1006,801,4098
-1005,811,4099
-1029,845,4103
-1047,861,4103
-1068,846,4110
-1065,825,4114
-1046,826,4121
-1023,837,4113
-1015,836,4107
-1029,841,4114
-1023,846,4128
-1026,848,4122
-1034,832,4115
-1034,826,4115
-1016,834,4118
-997,835,4109
-990,828,4104
-1015,834,4109
-1034,843,4101
-1037,836,4099
-1045,827,4099
-1052,825,4071
-1044,821,4052
-1042,842,4066
-1035,860,4091
-992,856,4070
-974,853,4055
-1011,852,4046
-1017,830,4060
-1000,836,4068
-988,855,4070
-996,856,4058
-1000,872,4065
-1010,871,4080
-1028,847,4096
-1007,818,4088
-990,819,4079
-991,829,4090
-973,836,4120
-960,837,4108
-949,844,4093
-956,853,4093
-994,852,4095
-1017,847,4094
-1016,845,4072
-1003,838,4081
-1003,850,4099
-1013,860,4108
-1015,864,4116
-997,850,4108
-979,857,4095
-971,846,4086
-980,825,4117
-987,807,4137
-982,811,4099
-1003,831,4101
-1025,846,4117
-1020,830,4118
-1004,821,4110
-986,839,4109
-982,851,4111
-981,863,4109
-960,865,4105
-950,868,4092
-978,848,4105
-1013,834,4128
-1020,820,4121
-985,827,4098
-966,839,4085
-975,837,4070
-1005,850,4078
-1025,861,4090
-1015,862,4082
-989,863,4074
-1001,870,4084
-1001,857,4097
-980,862,4100
-975,863,4091
-966,862,4090
-979,860,4089
-1007,864,4100
-1017,852,4115
-992,864,4116
-965,864,4112
-961,857,4114
-992,864,4105
-1027,867,4129
-1022,868,4132
-991,877,4115
-975,887,4100
-963,873,4107
-976,851,4101
-962,854,4101
-946,874,4094
-965,886,4095
-973,871,4106
-978,847,4108
-970,844,4102
-947,855,4104
-949,869,4106
-963,871,4111
-982,855,4118
-961,844,4107
-945,858,4091
-926,866,4084
-941,867,4097
-967,873,4109
-981,870,4112
-967,870,4116
-959,864,4118
-943,856,4114
-932,849,4103
-939,842,4105
-958,843,4106
-975,849,4107
-973,850,4102
-982,853,4114
-991,855,4121
-962,836,4116
-929,834,4109
-906,847,4101
-923,859,4103
-944,856,4104
-958,869,4099
-951,873,4093
-938,861,4090
-948,850,4076
-945,848,4084
-967,853,4097
-986,867,4101
-954,857,4114
-913,858,4096
-912,871,4081
-941,872,4096
-948,857,4116
-938,849,4112
-927,854,4108
-934,871,4092
-958,868,4093
-954,860,4088
-967,868,4084
-987,875,4096
-972,854,4106
-958,850,4107
-956,858,4111
-945,867,4114
-942,872,4113
-949,866,4105
-953,864,4115
-952,853,4106
-933,872,4099
-938,875,4114
-963,871,4125
-992,869,4139
-982,865,4143
-972,868,4140
