AccelerometerX,AccelerometerY,AccelerometerZ
-646,1744,3868
-631,1745,3865
-626,1755,3870
-640,1763,3869
-655,1764,3866
-659,1770,3869
-681,1763,3869
-677,1748,3876
-666,1753,3872
-650,1752,3867
-646,1759,3869
-643,1762,3876
-651,1757,3887
-657,1762,3897
-641,1751,3895
-640,1764,3898
-650,1759,3903
-654,1744,3913
-657,1757,3919
-677,1762,3914
-697,1755,3930
-714,1758,3942
-708,1760,3943
-704,1765,3947
-670,1751,3951
-641,1755,3948
-633,1754,3941
-638,1766,3931
-660,1771,3927
-679,1754,3936
-688,1760,3946
-684,1759,3951
-666,1744,3945
-663,1754,3930
-673,1763,3931
-669,1769,3917
-663,1747,3935
-674,1753,3940
-672,1760,3938
-677,1770,3921
-678,1771,3912
-684,1769,3901
-688,1765,3925
-682,1757,3921
-668,1745,3913
-666,1741,3910
-672,1737,3908
-678,1740,3916
-670,1743,3905
-656,1742,3901
-658,1753,3879
-658,1760,3888
-669,1761,3895
-669,1763,3889
-657,1761,3885
-649,1757,3877
-633,1755,3882
-624,1750,3875
-618,1756,3880
-622,1757,3892
-650,1759,3899
-652,1754,3905
-655,1751,3899
-654,1745,3905
-645,1746,3923
-644,1754,3935
-636,1771,3930
-632,1764,3937
-640,1751,3933
-648,1744,3922
-651,1744,3927
-665,1746,3934
-652,1763,3928
-669,1757,3934
-684,1754,3925
-689,1750,3936
-677,1751,3930
-663,1753,3933
-666,1747,3941
-657,1746,3933
-646,1753,3925
-642,1754,3903
-651,1766,3904
-649,1770,3901
-644,1774,3898
-638,1778,3904
-636,1755,3908
-632,1751,3912
-629,1754,3899
-611,1758,3885
-606,1770,3883
-612,1780,3891
-624,1784,3906
-630,1767,3905
-634,1760,3897
-626,1763,3898
-624,1766,3900
-608,1762,3902
-614,1770,3890
-624,1771,3890
-636,1774,3895
-650,1773,3909
-649,1769,3914
-639,1772,3917
-625,1769,3904
-617,1759,3904
-616,1766,3905
-645,1764,3910
-641,1759,3921
-629,1757,3916
-619,1751,3906
-614,1760,3907
-628,1751,3899
-628,1751,3900
-642,1755,3903
-634,1765,3902
-623,1760,3892
-625,1752,3877
-618,1744,3890
-626,1749,3886
-633,1755,3891
-627,1754,3891
-623,1745,3904
-632,1757,3900
-637,1776,3899
-639,1763,3908
-625,1763,3910
-613,1762,3903
-614,1757,3905
-635,1741,3913
-639,1760,3931
-635,1772,3927
-641,1773,3928
-650,1776,3925
-635,1771,3919
-646,1760,3924
-648,1753,3926
-659,1742,3939
-650,1747,3933
-644,1746,3924
-642,1755,3919
-649,1760,3922
-665,1748,3928
-677,1748,3925
-678,1748,3927
-663,1765,3935
-670,1764,3934
-656,1755,3931
-655,1759,3934
-675,1764,3944
-683,1755,3955
-665,1752,3944
-657,1755,3939
-650,1756,3946
-641,1754,3942
-638,1755,3921
-642,1756,3925
-656,1765,3934
-650,1767,3930
-655,1753,3923
-646,1749,3924
-646,1738,3920
-653,1739,3925
-665,1738,3922
-676,1737,3921
-682,1744,3934
-674,1745,3935
-649,1752,3915
-631,1757,3898
-626,1759,3903
-629,1755,3896
-630,1745,3901
-638,1747,3910
-650,1744,3898
-625,1752,3894
-619,1766,3898
-614,1757,3889
-615,1750,3888
-635,1750,3896
-644,1754,3921
-645,1742,3923
-627,1750,3918
-628,1754,3919
-624,1754,3921
-616,1751,3927
-599,1748,3926
-601,1755,3925
-612,1753,3913
-619,1769,3921
-634,1756,3920
-630,1736,3915
-619,1732,3908
-614,1745,3900
-605,1752,3899
-623,1759,3896
-620,1762,3890
-606,1757,3885
-616,1754,3884
-626,1759,3900
-614,1751,3896
-603,1748,3900
-610,1761,3908
-612,1747,3899
-617,1753,3901
-627,1746,3909
-637,1742,3912
-652,1742,3914
-650,1748,3910
-655,1760,3917
-646,1776,3918
-630,1785,3910
-613,1780,3919
-620,1764,3932
-619,1773,3947
-626,1771,3960
-624,1765,3959
-635,1764,3955
-628,1772,3964
-615,1776,3955
-614,1780,3956
-631,1777,3965
-644,1767,3965
-643,1767,3954
-636,1775,3953
-620,1770,3929
-613,1768,3919
-616,1776,3924
-622,1778,3904
-623,1781,3909
-624,1786,3924
-619,1797,3924
-610,1794,3922
-604,1775,3912
-598,1772,3896
-609,1768,3880
-608,1761,3887
-616,1776,3882
-632,1782,3878
-641,1792,3878
-641,1794,3894
-629,1780,3887
-613,1781,3897
-595,1787,3905
-594,1801,3900
-594,1794,3900
-617,1802,3887
-633,1815,3883
-630,1817,3882
-628,1822,3874
-632,1820,3877
-639,1809,3856
-637,1789,3879
-630,1787,3881
-628,1787,3879
-612,1790,3870
-614,1786,3862
-614,1785,3852
-618,1795,3847
-649,1804,3856
-649,1808,3843
-629,1812,3830
-627,1810,3838
-635,1802,3844
-654,1818,3864
-657,1815,3842
-658,1811,3844
-661,1808,3873
-653,1815,3878
-622,1813,3892
-615,1822,3889
-625,1826,3896
-648,1815,3894
-648,1809,3904
-639,1802,3896
-629,1804,3886
-635,1818,3885
-654,1811,3883
-660,1821,3869
-659,1827,3871
-639,1832,3900
-628,1830,3926
-640,1824,3947
-642,1803,3938
-624,1785,3906
-626,1791,3898
-633,1823,3900
-652,1831,3907
-659,1805,3889
-668,1806,3878
-680,1820,3910
-670,1828,3936
-636,1808,3942
-605,1796,3917
-602,1796,3887
-619,1806,3903
-648,1800,3914
-659,1797,3889
-662,1808,3879
-665,1822,3895
-671,1819,3895
-674,1799,3894
-666,1788,3887
-653,1791,3869
-646,1768,3848
-646,1763,3810
-665,1763,3782
-688,1755,3766
-715,1747,3749
-704,1721,3697
-679,1713,3645
-692,1708,3588
-713,1695,3516
-738,1646,3454
-773,1653,3422
-789,1667,3378
-772,1627,3324
-748,1549,3245
-723,1484,3130
-696,1441,3033
-619,1409,3009
-565,1419,2961
-556,1479,2933
-541,1569,3017
-558,1615,3061
-682,1595,3077
-716,1555,3120
-661,1487,3143
-584,1380,3107
-533,1315,3065
-573,1248,3008
-659,1158,2951
-721,1106,2946
-714,1099,2974
-687,1054,2934
-704,982,2916
-800,949,2936
-903,912,2939
-952,858,2923
-962,828,2909
-932,823,2944
-906,845,2963
-896,829,2995
-926,761,3020
-1005,668,3068
-1095,570,3159
-1187,472,3110
-1332,453,3233
-1455,463,3312
-1480,475,3419
-1434,426,3513
-1307,315,3520
-1157,193,3463
-1076,95,3462
-1044,27,3519
-1109,-30,3581
-1266,-89,3668
-1448,-154,3820
-1551,-234,3964
-1574,-300,4083
-1548,-343,4160
-1468,-379,4136
-1382,-415,4176
-1283,-450,4240
-1202,-461,4290
-1238,-532,4387
-1377,-658,4516
-1518,-751,4665
-1654,-821,4817
-1743,-894,4951
-1788,-964,5085
-1804,-1044,5230
-1759,-1107,5425
-1686,-1203,5522
-1630,-1253,5620
-1720,-1296,5765
-1870,-1329,5870
-2003,-1360,5918
-2129,-1401,5931
-2289,-1469,5917
-2407,-1520,5868
-2432,-1547,5800
-2357,-1535,5759
-2254,-1487,5678
-2254,-1391,5609
-2375,-1304,5602
-2533,-1247,5596
-2674,-1211,5534
-2749,-1216,5429
-2755,-1254,5336
-2703,-1281,5281
-2612,-1296,5226
-2601,-1283,5119
-2722,-1243,5128
-2837,-1187,5175
-2880,-1115,5154
-2900,-1038,5135
-2964,-975,5119
-3070,-891,5127
-3208,-810,5146
-3300,-761,5149
-3335,-745,5142
-3411,-748,5126
-3438,-723,5143
-3406,-655,5170
-3375,-611,5173
-3331,-599,5169
-3253,-591,5144
-3156,-575,5109
-3059,-539,5066
-2951,-520,5039
-2830,-492,5003
-2731,-420,4961
-2626,-334,4949
-2569,-243,4902
-2540,-169,4857
-2465,-134,4820
-2377,-93,4747
-2272,-38,4661
-2183,3,4624
-2120,27,4544
-2051,49,4482
-1953,84,4419
-1805,130,4316
-1627,191,4133
-1495,284,3960
-1350,395,3828
-1203,510,3716
-1077,611,3616
-949,702,3537
-834,771,3488
-732,782,3388
-619,777,3259
-485,781,3141
-373,801,2995
-357,819,2877
-422,813,2739
-505,820,2648
-575,877,2609
-576,932,2547
-524,961,2434
-428,949,2340
-297,980,2214
-186,1108,2128
-107,1204,2076
-71,1267,2024
-8,1305,2012
8,1291,1972
-60,1265,1929
-201,1279,1907
-409,1369,1911
-594,1510,2013
-651,1632,2121
-665,1724,2244
-674,1751,2383
-678,1732,2466
-635,1711,2558
-496,1708,2612
-370,1761,2641
-301,1871,2727
-279,1989,2836
-259,2101,2938
-265,2170,3080
-333,2172,3216
-434,2142,3368
-540,2124,3480
-597,2121,3553
-594,2158,3613
-532,2252,3650
-418,2342,3653
-326,2415,3645
-302,2453,3689
-335,2463,3743
-391,2448,3779
-419,2416,3805
-411,2411,3829
-418,2431,3844
-427,2421,3826
-451,2415,3828
-479,2416,3838
-514,2392,3814
-531,2362,3798
-555,2342,3801
-572,2339,3793
-606,2316,3767
-625,2309,3749
-648,2294,3723
-659,2286,3707
-645,2268,3675
-627,2236,3630
-637,2243,3607
-627,2266,3583
-582,2292,3591
-548,2299,3572
-552,2307,3571
-561,2303,3580
-600,2288,3593
-612,2293,3599
-621,2290,3561
-629,2266,3544
-623,2265,3561
-630,2284,3568
-620,2289,3576
-619,2276,3615
-632,2274,3617
-662,2266,3652
-687,2272,3659
-663,2291,3645
-640,2292,3647
-647,2301,3686
-630,2299,3721
-615,2309,3733
-592,2314,3719
-575,2307,3705
-567,2313,3701
-583,2313,3704
-614,2294,3707
-634,2280,3695
-643,2269,3689
-659,2259,3707
-628,2251,3721
-587,2266,3696
-567,2276,3673
-570,2285,3686
-578,2270,3691
-596,2266,3689
-611,2283,3694
-596,2287,3687
-624,2280,3694
-622,2265,3685
-622,2249,3657
-620,2242,3654
-617,2254,3645
-632,2250,3661
-634,2250,3667
-628,2256,3685
-637,2258,3676
-638,2255,3667
-641,2267,3686
-653,2267,3705
-643,2251,3712
-610,2236,3700
-591,2249,3698
-588,2261,3691
-597,2262,3713
-625,2261,3736
-619,2265,3725
-617,2257,3712
-614,2252,3702
-637,2256,3711
-631,2242,3707
-616,2237,3696
-615,2231,3684
-625,2238,3693
-626,2252,3702
-633,2243,3691
-635,2229,3696
-619,2232,3687
-607,2243,3663
-617,2222,3658
-613,2229,3666
-607,2237,3654
-611,2245,3658
-622,2242,3661
-633,2235,3663
-615,2237,3672
-594,2234,3671
-580,2242,3668
-574,2245,3684
-608,2240,3708
-635,2259,3709
-629,2236,3721
-606,2221,3729
-588,2216,3742
-587,2199,3747
-610,2203,3741
-643,2228,3732
-671,2255,3734
-658,2246,3735
-627,2224,3741
-590,2224,3731
-580,2208,3703
-584,2207,3693
-595,2214,3684
-613,2221,3680
-636,2214,3677
-643,2212,3675
-632,2243,3673
-608,2231,3651
-602,2207,3646
-606,2211,3648
-622,2218,3628
-634,2219,3625
-637,2234,3625
-635,2230,3637
-602,2216,3633
-574,2220,3626
-580,2224,3630
-604,2210,3645
-639,2214,3659
-647,2210,3647
-635,2200,3652
-629,2217,3653
-628,2237,3662
-618,2256,3685
-607,2254,3700
-611,2237,3702
-608,2238,3702
-603,2236,3700
-595,2239,3701
-608,2230,3699
-603,2235,3708
-604,2232,3706
-609,2224,3698
-614,2217,3700
-622,2224,3695
-638,2234,3697
-639,2226,3692
-623,2231,3696
-620,2243,3701
-610,2234,3699
-592,2222,3705
-603,2214,3720
-602,2207,3716
-587,2187,3704
-578,2194,3693
-598,2208,3688
-620,2209,3696
-626,2208,3705
-624,2204,3707
-623,2197,3701
-604,2203,3702
-592,2208,3703
-581,2214,3695
-604,2224,3685
-610,2219,3695
-619,2221,3707
-631,2216,3704
-634,2201,3708
-631,2195,3704
-627,2210,3707
-616,2212,3706
-622,2208,3708
-638,2206,3712
-643,2210,3707
-640,2206,3720
-633,2194,3729
-605,2175,3714
-605,2184,3708
-606,2206,3700
-627,2205,3707
-657,2204,3724
-653,2195,3718
-634,2193,3710
-611,2191,3712
-591,2192,3706
-598,2198,3691
-626,2201,3702
-636,2203,3717
-633,2199,3726
-605,2186,3711
-579,2181,3702
-577,2192,3711
-585,2205,3699
-604,2210,3713
-628,2203,3725
-658,2186,3719
-664,2187,3717
-664,2190,3720
-667,2202,3715
-680,2202,3708
-692,2213,3694
-686,2235,3675
-706,2238,3666
-724,2217,3666
-741,2215,3662
-755,2217,3641
-771,2247,3617
-807,2263,3607
-862,2278,3593
-897,2270,3604
-937,2263,3603
-975,2273,3597
-988,2301,3602
-976,2340,3596
-1022,2361,3571
-1065,2353,3567
-1095,2360,3582
-1104,2349,3610
-1083,2329,3602
-1076,2313,3582
-1098,2315,3608
-1122,2299,3611
-1124,2285,3626
-1115,2259,3646
-1104,2229,3642
-1070,2212,3669
-1077,2189,3661
-1116,2191,3666
-1166,2192,3674
-1226,2174,3677
-1260,2139,3694
-1240,2106,3686
-1188,2092,3697
-1121,2082,3714
-1099,2069,3684
-1088,2074,3700
-1086,2056,3724
-1085,2033,3740
-1010,2002,3752
-952,1983,3737
-932,2030,3774
-923,2073,3807
-888,2082,3833
-803,2057,3913
-757,2031,3912
-772,2053,3938
-760,2050,3972
-753,1991,3971
-768,1985,3933
-771,2008,3944
-721,2013,3966
-646,2008,3984
-538,1981,4018
-435,1927,3985
-366,1900,3974
-344,1884,3999
-320,1895,4018
-287,1868,3990
-282,1848,3957
-255,1866,3976
-199,1836,3971
-136,1791,3939
-65,1762,3972
31,1699,3981
122,1631,3964
172,1632,3939
194,1701,3941
220,1721,3961
220,1673,3964
175,1613,3951
198,1616,3977
275,1660,3983
394,1708,3976
515,1706,3952
563,1685,3926
566,1699,3944
550,1729,3949
528,1729,3931
484,1746,3911
396,1784,3900
321,1823,3900
245,1831,3886
206,1826,3859
185,1835,3879
154,1830,3871
114,1842,3858
25,1871,3839
-83,1881,3819
-166,1907,3827
-184,1941,3838
-165,1952,3817
-149,1934,3785
-136,1928,3771
-142,1950,3754
-166,1981,3734
-182,1990,3736
-207,1996,3745
-219,2000,3739
-238,1990,3732
-252,2005,3736
-254,2025,3759
-248,2035,3783
-260,2019,3778
-291,2010,3773
-292,2013,3779
-293,2011,3779
-302,2040,3793
-326,2071,3797
-330,2073,3806
-336,2056,3808
-354,2055,3811
-362,2052,3828
-355,2033,3826
-352,2014,3821
-353,2016,3823
-352,2021,3818
-352,2031,3817
-342,2035,3808
-281,2039,3803
-164,2016,3806
-52,1986,3815
4,2000,3791
9,2040,3799
-21,2061,3807
-66,2044,3833
-121,2042,3844
-161,2035,3864
-189,2049,3871
-180,2068,3859
-185,2087,3861
-227,2094,3865
-254,2075,3875
-244,2049,3884
-260,2035,3870
-273,2035,3872
-296,2039,3870
-303,2039,3853
-299,2040,3839
-268,2044,3809
-223,2045,3785
-200,2041,3778
-193,2051,3772
-226,2067,3764
-254,2065,3765
-270,2038,3771
-268,2033,3772
-237,2043,3760
-228,2038,3751
-235,2042,3745
-244,2080,3765
-276,2085,3782
-302,2078,3791
-280,2064,3810
-248,2044,3818
-223,2050,3803
-229,2049,3808
-231,2056,3831
-255,2064,3848
-263,2044,3849
-257,2032,3843
-258,2031,3842
-265,2040,3835
-267,2043,3833
-260,2035,3835
-251,2019,3835
-256,2019,3822
-262,2043,3823
-261,2051,3834
-237,2031,3830
-211,2031,3821
-202,2053,3830
-218,2035,3829
-233,2019,3828
-229,2018,3811
-223,2011,3800
-229,2004,3805
-234,2012,3803
-224,2024,3780
-237,2029,3782
-262,2020,3792
-246,2002,3807
-205,1992,3786
-168,1999,3781
-173,2017,3774
-190,2032,3782
-194,2037,3809
-214,2033,3820
-217,2044,3809
-196,2045,3814
-184,2032,3818
-194,2012,3826
-216,2019,3828
-225,2034,3838
-237,2049,3838
-250,2037,3861
-263,2010,3880
-244,2001,3882
-224,2018,3862
-211,2020,3856
-205,2005,3822
-211,2013,3826
-216,2017,3833
-229,2021,3821
-223,2026,3803
-217,2027,3796
-207,2026,3784
-193,2025,3787
-183,2019,3792
-194,2028,3797
-195,2032,3819
-209,2024,3828
-230,2027,3830
-232,2025,3824
-214,2027,3824
-198,2024,3834
-208,2030,3828
-212,2037,3834
-223,2039,3831
-240,2044,3836
-243,2039,3834
-241,2041,3831
-249,2043,3824
-233,2046,3837
-219,2042,3836
-216,2034,3826
-225,2060,3813
-230,2049,3828
-226,2031,3829
-217,2031,3814
-215,2035,3801
-212,2032,3798
-222,2044,3798
-213,2040,3799
-183,2049,3793
-181,2051,3779
-194,2033,3783
-194,2029,3784
-212,2033,3792
-214,2022,3800
-187,2023,3784
-146,2023,3775
-144,2024,3781
-170,2032,3791
-178,2068,3786
-170,2066,3790
-153,2066,3777
-156,2081,3782
-152,2093,3804
-152,2092,3815
-145,2086,3810
-143,2076,3821
-151,2060,3826
-150,2052,3817
-138,2042,3808
-134,2060,3812
-140,2060,3796
-155,2056,3789
-182,2053,3777
-179,2042,3762
-182,2041,3718
-192,2045,3721
-198,2039,3688
-228,2018,3654
-259,2012,3601
-262,2013,3559
-277,1991,3522
-305,1964,3459
-323,1939,3406
-343,1926,3308
-337,1921,3298
-377,1910,3259
-452,1885,3203
-481,1843,3134
-491,1773,3071
-470,1688,2976
-477,1604,2898
-492,1523,2809
-478,1454,2721
-456,1413,2641
-432,1377,2603
-444,1356,2557
-516,1361,2533
-589,1360,2544
-620,1337,2568
-596,1279,2564
-520,1190,2553
-404,1115,2511
-332,1102,2478
-314,1148,2496
-332,1188,2558
-364,1173,2609
-419,1080,2643
-495,1041,2717
-547,1049,2832
-598,1008,2932
-618,935,3025
-591,822,3095
-526,707,3173
-417,618,3225
-327,606,3263
-358,713,3324
-475,781,3390
-600,724,3484
-652,589,3601
-691,437,3741
-737,281,3860
-762,156,3968
-777,68,4012
-814,40,4081
-825,21,4164
-761,-4,4189
-766,0,4236
-914,-14,4363
-1076,-74,4533
-1194,-184,4692
-1285,-355,4795
-1363,-512,4864
-1389,-616,4919
-1371,-684,4977
-1302,-742,5003
-1239,-805,4979
-1332,-798,5109
-1454,-803,5339
-1551,-859,5556
-1665,-928,5746
-1823,-1022,5905
-1932,-1120,6053
-1973,-1192,6138
-1991,-1255,6206
-2083,-1291,6311
-2149,-1334,6409
-2224,-1341,6465
-2417,-1295,6522
-2628,-1256,6602
-2844,-1206,6646
-2997,-1210,6624
-3042,-1221,6565
-3025,-1232,6460
-2997,-1245,6325
-3029,-1214,6228
-3102,-1167,6132
-3140,-1135,6076
-3094,-1102,5991
-3042,-1033,5851
-2959,-956,5773
-2866,-927,5646
-2859,-939,5494
-2930,-954,5363
-3014,-954,5252
-3099,-918,5147
-3144,-868,5027
-3112,-845,4906
-3034,-837,4860
-2934,-827,4784
-2823,-797,4676
-2727,-743,4569
-2645,-690,4472
-2591,-656,4421
-2519,-598,4406
-2465,-512,4349
-2441,-433,4316
-2380,-357,4308
-2322,-307,4292
-2241,-296,4270
-2126,-277,4212
-2004,-219,4158
-1890,-133,4074
-1825,-42,3979
-1798,39,3941
-1748,104,3916
-1680,181,3812
-1600,275,3734
-1523,368,3666
-1458,431,3619
-1411,516,3560
-1372,627,3519
-1344,723,3497
-1359,782,3487
-1405,805,3487
-1493,823,3425
-1629,848,3415
-1686,892,3390
-1641,917,3303
-1509,941,3252
-1324,961,3216
-1122,1007,3121
-959,1066,3028
-847,1129,2953
-778,1203,2841
-716,1261,2767
-667,1318,2673
-609,1417,2542
-596,1554,2437
-617,1686,2364
-665,1777,2365
-703,1810,2358
-715,1788,2329
-702,1774,2323
-638,1773,2279
-549,1810,2231
-447,1868,2202
-375,1895,2201
-371,1894,2226
-395,1902,2244
-449,1893,2304
-434,1903,2377
-467,1959,2447
-530,2017,2537
-510,2032,2619
-400,2048,2697
-247,2073,2765
-146,2121,2809
-111,2197,2886
-112,2281,2969
-148,2332,3038
-206,2342,3133
-281,2376,3225
-373,2410,3345
-485,2452,3452
-605,2477,3528
-652,2492,3620
-588,2475,3664
-495,2455,3701
-431,2440,3715
-420,2467,3740
-459,2519,3732
-541,2549,3727
-617,2521,3764
-652,2488,3796
-669,2490,3801
-676,2490,3782
-671,2475,3769
-627,2431,3751
-618,2407,3639
-611,2404,3603
-613,2393,3597
-608,2402,3589
-587,2401,3574
-600,2390,3568
-623,2379,3583
-623,2371,3556
-639,2369,3535
-662,2371,3541
-653,2377,3538
-640,2355,3516
-640,2333,3504
-613,2347,3507
-593,2371,3497
-602,2420,3488
-630,2422,3494
-646,2400,3506
-632,2376,3525
-622,2360,3532
-626,2343,3536
-647,2349,3542
-651,2364,3550
-636,2366,3554
-633,2367,3578
-634,2375,3580
-637,2392,3593
-625,2381,3605
-610,2378,3598
-612,2380,3607
-629,2367,3629
-639,2355,3629
-665,2356,3627
-699,2361,3654
-709,2376,3658
-701,2377,3674
-677,2364,3683
-653,2347,3688
-646,2332,3691
-657,2319,3684
-665,2313,3686
-682,2318,3692
-685,2322,3681
-668,2324,3683
-679,2320,3653
-683,2314,3659
-680,2314,3659
-694,2307,3645
-710,2312,3636
-696,2329,3645
-683,2352,3624
-691,2346,3626
-698,2343,3633
-681,2332,3628
-635,2331,3647
-608,2336,3658
-617,2317,3647
-620,2314,3651
-620,2318,3651
-622,2304,3657
-641,2290,3645
-645,2284,3649
-657,2278,3660
-666,2285,3658
-682,2295,3665
-680,2293,3672
-669,2285,3671
-649,2295,3658
-631,2292,3642
-630,2288,3650
-642,2281,3647
-645,2291,3659
-642,2301,3657
-637,2296,3660
-628,2306,3652
-634,2319,3663
-637,2301,3653
-634,2282,3647
-654,2292,3651
-660,2291,3653
-657,2287,3649
-659,2288,3637
-636,2303,3634
-635,2306,3628
-662,2287,3642
-674,2279,3645
-677,2264,3646
-656,2265,3627
-637,2277,3631
-644,2285,3624
-666,2268,3620
-672,2272,3649
-669,2280,3646
-635,2277,3652
-621,2259,3646
-623,2260,3653
-620,2264,3670
-625,2259,3672
-620,2248,3675
-599,2256,3674
-578,2269,3661
-589,2301,3649
-610,2313,3653
-622,2320,3662
-634,2322,3660
-648,2311,3662
-665,2299,3658
-665,2284,3655
-660,2282,3637
-657,2280,3642
-669,2278,3648
-677,2281,3648
-677,2276,3641
-693,2269,3650
-689,2250,3648
-675,2257,3645
-665,2272,3642
-661,2292,3655
-684,2291,3658
-695,2280,3678
-680,2269,3673
-658,2264,3658
-645,2288,3668
-650,2305,3673
-651,2299,3677
-654,2284,3671
-652,2280,3674
-663,2275,3665
-663,2289,3660
-670,2289,3654
-666,2292,3667
-668,2303,3669
-683,2304,3663
-688,2304,3662
-709,2287,3674
-708,2280,3665
-683,2284,3663
-648,2283,3663
-629,2290,3662
-634,2303,3685
-645,2307,3689
-663,2300,3664
-665,2268,3652
-675,2251,3675
-686,2267,3666
-682,2279,3663
-674,2275,3654
-671,2271,3630
-666,2276,3617
-652,2263,3614
-632,2253,3603
-638,2270,3607
-653,2278,3612
-648,2277,3606
-648,2266,3605
-646,2262,3614
-647,2272,3626
-637,2268,3630
-643,2256,3622
-650,2250,3620
-641,2262,3597
-638,2275,3595
-645,2269,3601
-661,2275,3594
-674,2275,3600
-682,2264,3604
-692,2265,3596
-691,2275,3583
-709,2284,3580
-711,2285,3569
-697,2289,3562
-704,2290,3554
-715,2296,3535
-713,2294,3521
-727,2290,3509
-748,2305,3528
-778,2305,3530
-805,2282,3508
-814,2268,3489
-836,2268,3474
-880,2274,3485
-912,2270,3491
-954,2265,3503
-969,2247,3513
-980,2238,3521
-988,2220,3501
-989,2205,3502
-1006,2210,3531
-1046,2202,3536
-1100,2197,3539
-1120,2193,3545
-1129,2195,3553
-1145,2217,3595
-1173,2203,3644
-1180,2167,3664
-1148,2137,3683
-1137,2109,3690
-1168,2104,3703
-1190,2087,3721
-1201,2076,3733
-1224,2071,3750
-1259,2074,3746
-1292,2055,3764
-1287,2045,3791
-1264,2019,3784
-1232,1995,3774
-1219,1985,3802
-1205,1939,3818
-1203,1909,3802
-1197,1930,3847
-1232,1970,3867
-1260,1987,3882
-1240,1957,3894
-1232,1934,3865
-1224,1941,3854
-1195,1925,3855
-1190,1886,3851
-1197,1866,3891
-1211,1850,3917
-1205,1848,3949
-1169,1847,3983
-1141,1829,3975
-1129,1820,3962
-1153,1809,3999
-1196,1779,4021
-1157,1748,4076
-1045,1715,4088
-962,1705,4075
-915,1711,4097
-852,1668,4154
-757,1641,4132
-700,1642,4123
-689,1636,4105
-699,1637,4098
-640,1620,4166
-493,1564,4179
-344,1528,4103
-239,1570,4068
-176,1611,4063
-155,1586,4062
-118,1559,4106
-43,1533,4171
80,1483,4196
218,1449,4153
359,1458,4143
456,1474,4109
512,1483,4089
535,1505,4088
540,1540,4090
551,1555,4063
562,1575,4027
565,1601,3993
563,1595,3960
550,1619,3925
540,1668,3882
509,1704,3862
448,1707,3840
370,1706,3819
316,1721,3804
285,1748,3776
230,1760,3759
141,1769,3764
52,1757,3765
-2,1756,3770
-44,1759,3763
-86,1775,3766
-152,1804,3770
-221,1821,3779
-274,1839,3812
-287,1840,3833
-285,1812,3822
-285,1828,3823
-292,1852,3820
-309,1896,3830
-316,1924,3841
-323,1941,3870
-358,1937,3871
-396,1929,3886
-412,1920,3891
-427,1909,3900
-457,1922,3914
-469,1941,3922
-465,1944,3916
-457,1944,3931
-445,1927,3934
-456,1917,3952
-473,1918,3963
-486,1912,3949
-491,1896,3952
-507,1891,3948
-507,1895,3944
-497,1896,3938
-506,1897,3937
-509,1903,3937
-485,1912,3929
-464,1908,3899
-447,1909,3896
-426,1922,3897
-416,1935,3870
-413,1958,3870
-443,1966,3886
-460,1955,3891
-467,1947,3873
-423,1929,3881
-386,1918,3876
-374,1918,3875
-397,1920,3883
-432,1923,3889
-433,1911,3884
-413,1922,3871
-396,1941,3864
-393,1949,3860
-397,1945,3867
-393,1928,3861
-388,1907,3852
-389,1901,3840
-385,1918,3826
-382,1923,3839
-400,1908,3830
-423,1910,3817
-416,1929,3817
-408,1938,3829
-418,1934,3826
-418,1921,3824
-389,1902,3822
-374,1904,3822
-383,1907,3825
-409,1925,3834
-420,1927,3836
-410,1922,3838
-386,1916,3846
-387,1915,3845
-383,1906,3862
-367,1899,3864
-390,1909,3863
-417,1924,3869
-421,1935,3884
-418,1938,3890
-412,1921,3888
-403,1919,3883
-377,1925,3888
-366,1923,3869
-374,1928,3860
-401,1948,3869
-420,1951,3888
-418,1951,3888
-419,1939,3889
-410,1932,3887
-410,1926,3890
-405,1925,3881
-410,1919,3876
-425,1921,3871
-427,1917,3867
-441,1912,3849
-440,1919,3838
-429,1919,3825
-425,1914,3817
-408,1915,3825
-411,1924,3800
-415,1935,3799
-408,1955,3829
-409,1960,3846
-411,1946,3851
-410,1935,3831
-407,1931,3823
-416,1937,3830
-434,1935,3841
-431,1938,3834
-433,1939,3823
-440,1948,3835
-437,1947,3845
-408,1934,3837
-393,1921,3833
-403,1923,3836
-404,1926,3850
-416,1937,3859
-425,1952,3862
-414,1953,3862
-398,1945,3859
-371,1945,3856
-369,1945,3855
-371,1934,3862
-353,1925,3869
-366,1926,3877
-386,1936,3875
-400,1942,3901
-394,1942,3879
-376,1945,3877
-397,1952,3883
-407,1950,3884
-411,1939,3889
-407,1928,3876
-416,1929,3885
-422,1940,3892
-415,1930,3888
-405,1929,3877
-396,1924,3886
-388,1917,3886
-399,1931,3882
-394,1942,3871
-389,1956,3889
-376,1940,3883
-356,1928,3865
-348,1924,3876
-361,1910,3869
-361,1913,3867
-361,1920,3869
-357,1921,3862
-373,1922,3849
-370,1923,3867
-378,1917,3865
-373,1910,3851
-365,1923,3859
-364,1931,3859
-353,1925,3858
-363,1925,3852
-385,1926,3851
-392,1936,3847
-381,1932,3837
-385,1928,3842
-401,1922,3847
-406,1910,3847
-408,1912,3844
-405,1913,3843
-389,1931,3850
-380,1936,3847
-383,1930,3831
-390,1933,3834
-398,1932,3847
-385,1929,3846
-379,1940,3843
-374,1938,3829
-376,1939,3817
-373,1951,3817
-395,1950,3831
-394,1939,3840
-400,1942,3852
-410,1947,3843
-397,1946,3842
-381,1924,3853
-369,1929,3837
-373,1935,3822
-366,1934,3830
-365,1951,3833
-382,1956,3832
-379,1945,3837
-386,1935,3838
-387,1938,3835
-396,1925,3834
-394,1916,3845
-388,1916,3815
-377,1918,3802
-367,1911,3788
-382,1904,3757
-381,1894,3724
-356,1892,3697
-341,1891,3654
-334,1883,3618
-337,1868,3580
-351,1866,3549
-381,1868,3509
-404,1842,3482
-420,1821,3436
-402,1779,3376
-376,1735,3310
-368,1708,3222
-377,1668,3132
-407,1635,3079
-412,1607,3046
-445,1569,2957
-529,1521,2864
-595,1480,2787
-586,1455,2693
-584,1388,2604
-613,1355,2542
-653,1310,2489
-690,1275,2409
-726,1279,2392
-748,1268,2412
-750,1202,2418
-771,1122,2403
-835,1058,2420
-851,1049,2433
-848,1016,2397
-826,929,2370
-818,842,2375
-858,783,2411
-927,745,2472
-1013,744,2547
-1062,713,2605
-1090,608,2605
-1123,462,2610
-1140,305,2644
-1132,183,2678
-1121,95,2704
-1151,47,2760
-1163,0,2800
-1208,-55,2812
-1322,-75,2897
-1423,-96,3033
-1491,-226,3166
-1511,-451,3240
-1546,-671,3275
-1613,-899,3375
-1675,-1159,3504
-1727,-1400,3699
-1713,-1606,3954
-1650,-1717,4220
-1601,-1796,4462
-1560,-1925,4637
-1579,-2115,4796
-1663,-2353,4949
-1740,-2575,5107
-1764,-2753,5254
-1840,-2890,5361
-1954,-2968,5523
-2065,-3005,5703
-2146,-3006,5854
-2108,-3021,5969
-1998,-3056,5991
-1950,-3076,5939
-2000,-3087,5911
-2128,-3081,5876
-2346,-3065,5858
-2542,-3042,5879
-2691,-3025,5846
-2804,-2983,5864
-2884,-2944,5828
-2986,-2864,5758
-3108,-2737,5722
-3258,-2652,5703
-3402,-2687,5699
-3441,-2729,5692
-3397,-2703,5673
-3356,-2595,5657
-3395,-2475,5541
-3537,-2437,5445
-3684,-2414,5396
-3817,-2325,5348
-4002,-2193,5297
-4240,-2070,5251
-4431,-2010,5230
-4444,-1993,5226
-4320,-1978,5126
-4233,-1935,5059
-4244,-1899,4990
-4326,-1827,4844
-4484,-1776,4769
-4655,-1718,4759
-4743,-1642,4759
-4693,-1552,4694
-4504,-1467,4646
-4235,-1430,4585
-3994,-1432,4473
-3817,-1428,4414
-3674,-1373,4332
-3548,-1260,4223
-3457,-1156,4131
-3359,-1084,4015
-3218,-1034,3889
-3054,-950,3730
-2898,-796,3634
-2738,-647,3604
-2558,-536,3597
-2410,-456,3578
-2264,-361,3522
-2080,-282,3434
-1872,-184,3336
-1690,-69,3231
-1502,89,3105
-1288,261,2993
-1059,426,2846
-895,576,2738
-782,682,2656
-660,713,2608
-562,682,2537
-521,653,2404
-530,657,2273
-539,711,2130
-567,782,2001
-548,829,1883
-551,883,1747
-597,957,1643
-660,1019,1588
-793,1087,1529
-897,1168,1534
-934,1221,1569
-853,1277,1607
-642,1360,1610
-456,1462,1635
-342,1538,1700
-239,1576,1789
-171,1623,1929
-167,1662,2024
-177,1702,2102
-205,1757,2272
-307,1827,2505
-412,1863,2741
-449,1887,2908
-458,1985,3021
-457,2118,3122
-448,2253,3216
-433,2378,3273
-402,2477,3321
-411,2510,3382
-437,2495,3420
-470,2475,3454
-483,2491,3495
-491,2525,3540
-491,2571,3530
-478,2656,3533
-480,2748,3573
-506,2779,3572
-560,2773,3545
-592,2703,3536
-624,2611,3569
-648,2565,3614
-677,2536,3648
-729,2538,3656
-767,2546,3638
-774,2571,3648
-733,2568,3658
-694,2519,3674
-654,2467,3701
-629,2418,3713
-612,2404,3710
-587,2385,3704
-571,2400,3699
-554,2404,3698
-570,2419,3682
-625,2431,3677
-641,2423,3693
-631,2415,3707
-583,2399,3676
-546,2393,3636
-532,2382,3612
-531,2366,3631
-568,2331,3633
-626,2347,3614
-636,2385,3632
-617,2376,3647
-615,2355,3614
-602,2366,3597
-563,2359,3576
-549,2382,3573
-552,2395,3563
-535,2368,3551
-501,2359,3532
-490,2382,3532
-515,2402,3546
-561,2391,3564
-580,2379,3583
-601,2388,3577
-595,2403,3573
-550,2398,3586
-489,2365,3587
-457,2331,3571
-456,2351,3565
-483,2399,3580
-516,2424,3598
-563,2414,3604
-594,2410,3613
-585,2398,3600
-561,2383,3596
-558,2377,3600
-567,2383,3604
-593,2387,3592
-595,2393,3602
-580,2390,3592
-571,2396,3597
-578,2391,3608
-587,2373,3631
-589,2352,3633
-587,2343,3613
-607,2367,3603
-605,2376,3592
-594,2366,3603
-593,2347,3599
-580,2339,3596
-550,2339,3595
-522,2336,3574
-521,2334,3562
-549,2347,3559
-571,2355,3571
-591,2357,3555
-595,2373,3545
-585,2377,3542
-564,2366,3541
-569,2363,3550
-585,2357,3552
-585,2347,3552
-569,2339,3542
-561,2345,3539
-566,2346,3551
-584,2332,3561
-605,2343,3575
-600,2366,3597
-558,2356,3598
-525,2341,3579
-517,2340,3570
-529,2335,3570
-547,2346,3583
-565,2342,3597
-569,2345,3624
-585,2352,3640
-615,2350,3646
-616,2339,3665
-583,2334,3658
-556,2345,3673
-533,2345,3681
-548,2323,3666
-576,2353,3674
-585,2367,3692
-570,2342,3700
-560,2323,3687
-565,2322,3708
-573,2329,3709
-586,2334,3716
-594,2316,3730
-591,2309,3745
-576,2304,3730
-583,2306,3717
-596,2307,3704
-594,2289,3716
-585,2271,3718
-572,2277,3715
-573,2303,3707
-592,2294,3695
-612,2292,3689
-614,2291,3696
-590,2282,3693
-574,2273,3684
-561,2265,3669
-565,2263,3646
-596,2274,3652
-620,2289,3662
-597,2277,3658
-558,2275,3657
-558,2286,3647
-568,2276,3633
-572,2258,3626
-583,2275,3631
-592,2287,3631
-594,2286,3631
-598,2281,3632
-609,2273,3635
-599,2264,3641
-575,2256,3649
-566,2264,3655
-576,2264,3646
-576,2254,3651
-572,2263,3649
-579,2264,3641
-595,2251,3652
-596,2245,3668
-577,2253,3656
-568,2250,3649
-570,2250,3647
-578,2244,3646
-587,2245,3654
-585,2252,3664
-580,2242,3658
-571,2241,3651
-560,2262,3661
-574,2258,3655
-573,2241,3668
-578,2240,3682
-575,2244,3679
-557,2236,3685
-550,2230,3673
-568,2216,3664
-578,2214,3666
-562,2213,3659
-573,2212,3656
-583,2237,3666
-596,2238,3673
-587,2245,3676
-570,2226,3686
-551,2207,3687
-552,2210,3685
-565,2220,3693
-573,2218,3694
-554,2235,3697
-529,2238,3686
-517,2226,3684
-532,2213,3677
-575,2235,3692
-610,2260,3704
-621,2244,3695
-618,2236,3678
-616,2256,3668
-634,2273,3673
-667,2270,3672
-688,2266,3671
-707,2267,3664
-722,2268,3641
-739,2277,3623
-774,2306,3619
-831,2306,3596
-882,2307,3565
-909,2337,3553
-919,2349,3563
-952,2327,3533
-1012,2336,3541
-1057,2342,3562
-1099,2305,3567
-1106,2290,3550
-1089,2284,3530
-1079,2255,3490
-1091,2229,3497
-1102,2210,3503
-1146,2213,3488
-1182,2222,3528
-1189,2189,3539
-1199,2147,3531
-1248,2125,3536
-1293,2128,3556
-1344,2101,3545
-1390,2077,3570
-1439,2040,3618
-1528,2010,3637
-1587,2027,3687
-1587,2009,3711
-1548,1945,3690
-1501,1916,3741
-1438,1930,3806
-1421,1922,3806
-1433,1937,3814
-1401,1961,3832
-1372,1956,3883
-1333,1944,3916
-1268,1957,3943
-1242,1971,3930
-1225,1986,3958
-1138,1953,4013
-1018,1930,4009
-917,1940,4010
-857,1932,4063
-831,1887,4091
-828,1876,4085
-793,1892,4058
-745,1915,4046
-758,1924,4057
-797,1903,4069
-787,1908,4107
-728,1893,4114
-625,1825,4058
-538,1792,4032
-477,1769,4020
-408,1723,3991
-368,1720,3970
-356,1714,3955
-316,1698,3993
-252,1673,4011
-199,1643,4010
-185,1608,4004
-130,1646,4094
-70,1602,4140
-25,1526,4134
78,1521,4140
241,1502,4120
415,1508,4092
564,1513,4058
622,1520,4034
586,1527,4009
483,1560,3983
366,1626,3942
287,1696,3925
284,1701,3885
295,1688,3830
299,1698,3789
283,1718,3751
229,1754,3718
146,1798,3704
62,1854,3698
9,1893,3690
-45,1895,3689
-111,1849,3693
-145,1796,3709
-159,1774,3716
-177,1792,3710
-206,1817,3716
-241,1850,3728
-295,1882,3737
-331,1903,3764
-347,1919,3783
-348,1939,3814
-356,1929,3830
-362,1913,3855
-373,1925,3878
-393,1967,3899
-398,1981,3903
-394,2006,3899
-405,2013,3894
-417,1988,3897
-421,1959,3915
-443,1946,3915
-473,1937,3922
-497,1920,3929
-509,1931,3921
-511,1955,3912
-513,1958,3913
-492,1965,3912
-471,1962,3910
-488,1968,3907
-542,1963,3888
-572,1957,3899
-563,1944,3897
-523,1948,3885
-505,1973,3882
-492,1973,3882
-465,1957,3886
-474,1947,3880
-484,1946,3870
-515,1947,3884
-524,1955,3897
-533,1954,3910
-526,1953,3893
-522,1962,3870
-517,1964,3865
-494,1965,3856
-485,1954,3856
-443,1951,3857
-420,1977,3859
-417,1980,3848
-428,1963,3831
-446,1954,3836
-462,1958,3833
-466,1962,3833
-444,1953,3823
-459,1942,3812
-478,1947,3814
-485,1940,3812
-475,1931,3803
-468,1942,3798
-475,1946,3807
-453,1937,3818
-418,1939,3833
-389,1942,3827
-388,1943,3826
-409,1959,3825
-404,1967,3826
-386,1948,3825
-388,1935,3818
-390,1946,3842
-402,1944,3853
-411,1944,3860
-388,1950,3856
-346,1953,3847
-312,1956,3840
-314,1954,3852
-335,1952,3828
-360,1947,3835
-363,1943,3823
-370,1938,3815
-393,1939,3834
-412,1948,3834
-434,1953,3851
-420,1942,3853
-407,1930,3837
-390,1932,3836
-386,1933,3837
-390,1939,3844
-377,1942,3845
-364,1939,3838
-348,1944,3844
-339,1950,3859
-331,1938,3863
-347,1942,3867
-363,1938,3871
-385,1939,3868
-403,1946,3880
-385,1957,3887
-347,1971,3882
-330,1959,3898
-341,1952,3888
-359,1942,3902
-369,1936,3911
-366,1941,3905
-369,1929,3905
-376,1934,3908
-365,1935,3900
-372,1931,3894
-393,1932,3894
-402,1938,3908
-385,1935,3912
-349,1930,3922
-324,1952,3930
-307,1963,3904
-292,1983,3905
-294,1981,3909
-314,1954,3892
-339,1968,3889
-350,1960,3889
-341,1946,3872
-350,1940,3844
-372,1938,3827
-384,1938,3833
-407,1953,3825
-443,1958,3810
-455,1964,3812
-454,1959,3795
-415,1941,3759
-384,1957,3734
-376,1975,3726
-374,1956,3724
-383,1940,3711
-413,1923,3693
-439,1916,3660
-460,1921,3619
-487,1912,3588
-508,1896,3544
-487,1870,3528
-462,1861,3508
-470,1875,3467
-459,1871,3417
-434,1832,3369
-444,1801,3297
-473,1767,3248
-502,1719,3195
-540,1658,3134
-560,1597,3055
-557,1530,2978
-561,1481,2879
-556,1446,2801
-568,1399,2734
-595,1355,2676
-686,1369,2672
-788,1376,2678
-846,1329,2644
-877,1255,2595
-872,1134,2531
-820,1086,2495
-716,1095,2506
-602,1123,2546
-550,1100,2568
-582,995,2598
-593,862,2637
-565,767,2708
-539,688,2715
-513,647,2745
-503,681,2829
-559,726,2915
-667,752,3039
-704,731,3142
-634,722,3247
-519,726,3363
-411,660,3459
-327,504,3496
-261,319,3459
-251,234,3593
-318,193,3686
-462,236,3762
-645,335,3923
-819,378,4203
-955,341,4474
-940,232,4645
-828,93,4737
-740,-76,4758
-694,-239,4758
-717,-357,4791
-784,-463,4817
-963,-512,4912
-1239,-550,5137
-1415,-600,5435
-1516,-682,5681
-1642,-809,5856
-1773,-903,5949
-1859,-999,5933
-1763,-1083,5832
-1688,-1159,5757
-1783,-1196,5830
-1981,-1156,6092
-2142,-1067,6363
-2227,-930,6496
-2325,-782,6540
-2524,-734,6549
-2632,-741,6557
-2560,-739,6532
-2401,-726,6487
-2310,-690,6412
-2351,-648,6402
-2487,-608,6412
-2642,-569,6437
-2669,-554,6402
-2638,-565,6337
-2664,-563,6245
-2694,-525,6139
-2706,-472,6053
-2663,-465,5980
-2608,-470,5860
-2579,-480,5711
-2525,-465,5621
-2515,-417,5521
-2531,-374,5401
-2557,-281,5279
-2570,-165,5247
-2564,-102,5200
-2555,-129,5092
-2504,-200,4949
-2456,-257,4745
-2403,-239,4569
-2342,-174,4459
-2290,-96,4331
-2296,-10,4234
-2321,79,4187
-2311,160,4074
-2270,194,3986
-2187,202,3956
-2075,216,3857
-2005,252,3780
-1986,319,3650
-1942,415,3589
-1865,520,3567
-1761,591,3524
-1619,630,3471
-1472,671,3391
-1348,726,3263
-1245,829,3147
-1135,952,3115
-1032,1032,3084
-932,1058,3033
-945,1072,3024
-1111,1082,3010
-1278,1113,2976
-1364,1193,2900
-1284,1273,2830
-1116,1335,2712
-932,1386,2593
-783,1423,2517
-684,1439,2492
-637,1427,2461
-584,1415,2408
-581,1472,2371
-696,1576,2358
-888,1664,2357
-1003,1704,2390
-998,1716,2472
-888,1694,2522
-658,1676,2532
-390,1720,2534
-177,1797,2478
-69,1879,2488
-25,1919,2543
-50,1928,2636
-114,1907,2738
-187,1921,2835
-242,1993,2930
-230,2090,3012
-165,2150,3056
-128,2164,3085
-146,2197,3119
-155,2229,3189
-150,2269,3250
-149,2337,3300
-140,2396,3347
-138,2404,3375
-131,2382,3408
-152,2376,3434
-202,2402,3488
-234,2413,3548
-275,2418,3574
-282,2417,3592
-259,2424,3613
-252,2415,3632
-271,2399,3635
-311,2395,3635
-386,2402,3652
-458,2389,3686
-497,2384,3715
-485,2372,3724
-459,2343,3721
-449,2331,3716
-459,2335,3703
-452,2340,3704
-450,2349,3709
-447,2364,3712
-445,2373,3710
-440,2383,3686
-441,2397,3679
-431,2396,3680
-434,2387,3659
-444,2383,3643
-450,2378,3639
-506,2380,3645
-548,2370,3667
-554,2361,3699
-557,2390,3728
-545,2406,3735
-526,2392,3727
-474,2368,3712
-451,2359,3703
-459,2350,3710
-460,2328,3709
-483,2340,3704
-489,2361,3700
-503,2400,3710
-518,2410,3717
-535,2363,3723
-543,2333,3709
-501,2334,3690
-454,2347,3666
-425,2358,3654
-424,2347,3639
-433,2327,3619
-451,2321,3618
-493,2335,3605
-527,2360,3618
-508,2353,3633
-472,2341,3627
-458,2343,3615
-462,2346,3616
-463,2326,3633
-432,2314,3635
-392,2314,3634
-370,2308,3638
-394,2319,3638
-440,2321,3660
-472,2335,3661
-501,2333,3646
-511,2339,3634
-488,2351,3623
-478,2345,3619
-497,2337,3608
-487,2339,3609
-473,2348,3627
-469,2332,3630
-470,2332,3615
-492,2342,3632
-501,2332,3634
-486,2310,3635
-464,2309,3634
-472,2336,3623
-476,2338,3632
-460,2341,3629
-436,2350,3623
-447,2347,3621
-465,2322,3607
-464,2319,3588
-465,2310,3583
-473,2315,3595
-478,2318,3602
-478,2345,3585
-475,2362,3592
-475,2348,3615
-466,2328,3609
-451,2319,3610
-451,2321,3596
-465,2324,3599
-456,2315,3593
-446,2319,3619
-426,2312,3624
-420,2309,3616
-432,2311,3626
-460,2327,3651
-494,2323,3659
-483,2295,3666
-433,2296,3656
-416,2309,3649
-423,2330,3667
-437,2347,3678
-473,2354,3677
-485,2338,3685
-449,2326,3674
-412,2330,3662
-427,2323,3673
-449,2335,3697
-462,2343,3698
-478,2345,3695
-461,2326,3697
-420,2314,3712
-415,2308,3705
-433,2307,3704
-450,2284,3704
-472,2280,3697
-476,2283,3688
-469,2289,3677
-459,2306,3673
-454,2297,3690
-483,2294,3706
-486,2290,3704
-482,2285,3681
-465,2276,3696
-451,2264,3684
-458,2267,3681
-463,2289,3650
-467,2283,3640
-478,2296,3652
-489,2304,3646
-505,2305,3632
-507,2291,3625
-494,2279,3619
-493,2283,3640
-485,2280,3639
-493,2277,3620
-504,2284,3632
-509,2281,3655
-493,2285,3662
-486,2284,3643
-472,2295,3630
-470,2305,3632
-467,2310,3637
-472,2303,3652
-488,2306,3654
-490,2294,3652
-479,2284,3643
-462,2283,3664
-461,2289,3667
-465,2280,3671
-468,2278,3675
-477,2289,3688
-477,2293,3700
-467,2289,3697
-479,2292,3698
-479,2295,3699
-462,2288,3699
-460,2294,3688
-495,2287,3686
-528,2277,3669
-534,2260,3653
-514,2282,3661
-527,2303,3668
-562,2310,3674
-568,2275,3682
-539,2260,3676
-513,2278,3676
-493,2267,3668
-504,2268,3679
-506,2266,3691
-512,2263,3684
-502,2253,3681
-508,2258,3701
-518,2252,3693
-520,2264,3694
-521,2275,3687
-517,2269,3679
-512,2259,3676
-524,2270,3664
-531,2284,3651
-543,2279,3628
-574,2275,3624
-577,2292,3642
-561,2282,3651
-552,2263,3621
-574,2264,3599
-606,2270,3588
-636,2297,3589
-665,2315,3586
-690,2310,3563
-740,2311,3547
-785,2316,3541
-805,2309,3556
-812,2308,3555
-844,2315,3538
-883,2335,3545
-904,2329,3565
-942,2297,3545
-956,2308,3518
-975,2319,3504
-1034,2323,3510
-1067,2323,3543
-1094,2304,3543
-1141,2287,3589
-1185,2265,3674
-1235,2236,3711
-1277,2226,3758
-1250,2195,3819
-1183,2151,3801
-1119,2158,3780
-1101,2171,3791
-1146,2160,3798
-1165,2180,3865
-1172,2155,3953
-1208,2086,3978
-1253,2070,4018
-1292,2075,4040
-1304,2067,3993
-1319,2076,3986
-1301,2067,3963
-1288,2047,3935
-1287,2063,3945
-1238,2049,3988
-1187,2000,3949
-1135,2026,3925
-1059,2026,3958
-1019,1975,3920
-1016,1946,3885
-963,1931,3917
-909,1876,3888
-896,1845,3863
-849,1831,3868
-785,1799,3825
-732,1792,3844
-708,1779,3857
-796,1773,3811
-915,1820,3855
-910,1846,3901
-810,1773,3938
-690,1678,3977
-596,1596,4001
-526,1567,3972
-419,1588,3967
-291,1617,3971
-135,1641,3958
26,1622,3904
144,1618,3904
231,1610,3919
296,1593,3912
322,1554,3899
355,1553,3911
340,1549,3912
307,1566,3923
277,1595,3938
135,1597,3956
-35,1586,3960
-6,1582,3936
183,1617,3934
351,1643,3864
399,1663,3798
379,1709,3774
315,1743,3769
260,1781,3768
205,1816,3759
127,1833,3774
35,1810,3815
-60,1802,3829
-144,1805,3846
-167,1803,3865
-204,1809,3886
-234,1809,3881
-247,1808,3871
-247,1843,3863
-284,1870,3862
-320,1880,3862
-335,1890,3872
-340,1895,3861
-344,1906,3870
-335,1921,3864
-354,1908,3858
-388,1915,3859
-407,1936,3858
-407,1942,3860
-407,1949,3864
-429,1948,3857
-452,1948,3867
-464,1941,3886
-452,1950,3893
-455,1955,3893
-456,1954,3896
-471,1935,3889
-471,1913,3881
-460,1908,3886
-488,1904,3880
-533,1918,3876
-540,1935,3888
-537,1944,3884
-529,1957,3890
-530,1961,3906
-509,1959,3916
-496,1941,3887
-460,1951,3875
-416,1964,3866
-422,1964,3866
-432,1978,3880
-424,1988,3885
-432,1979,3878
-458,1962,3871
-484,1956,3884
-499,1953,3888
-494,1944,3880
-479,1955,3869
-467,1974,3858
-477,1981,3852
-472,1982,3848
-459,1978,3839
-459,1965,3833
-451,1949,3841
-464,1953,3836
-477,1951,3849
-496,1952,3861
-499,1948,3866
-484,1965,3857
-468,1968,3851
-466,1968,3834
-467,1955,3829
-437,1953,3838
-439,1971,3826
-440,1979,3833
-434,1966,3816
-435,1959,3803
-433,1954,3792
-437,1937,3784
-447,1920,3777
-445,1938,3767
-424,1950,3764
-435,1957,3767
-457,1967,3781
-483,1969,3796
-479,1978,3808
-482,1965,3818
-463,1945,3831
-433,1949,3824
-413,1950,3834
-436,1958,3847
-473,1966,3852
-497,1969,3874
-506,1984,3885
-483,1975,3893
-445,1958,3902
-444,1957,3899
-473,1948,3915
-483,1943,3903
-479,1927,3897
-483,1955,3885
-449,1962,3864
-389,1965,3865
-369,1967,3823
-398,1956,3809
-444,1953,3808
-440,1948,3824
-445,1949,3830
-456,1948,3816
-457,1954,3821
-445,1969,3815
-419,1963,3804
-404,1953,3801
-402,1964,3787
-403,1959,3786
-401,1946,3785
-425,1938,3784
-463,1936,3789
-502,1942,3807
-506,1942,3803
-498,1943,3792
-474,1963,3772
-472,1952,3758
-477,1936,3741
-477,1920,3744
-475,1911,3733
-455,1906,3721
-426,1896,3694
-411,1904,3665
-412,1902,3632
-424,1894,3620
-448,1875,3595
-467,1850,3554
-481,1819,3504
-477,1796,3463
-479,1768,3407
-517,1733,3322
-521,1688,3264
-504,1626,3199
-524,1556,3101
-554,1485,2966
-558,1427,2834
-557,1391,2726
-600,1367,2626
-677,1331,2542
-748,1342,2471
-818,1375,2449
-873,1378,2427
-895,1326,2408
-892,1238,2418
-873,1162,2428
-821,1069,2409
-723,941,2362
-654,846,2326
-602,799,2340
-599,879,2398
-670,977,2428
-739,996,2525
-829,928,2623
-857,836,2729
-806,730,2808
-687,591,2862
-570,429,2862
-526,311,2891
-557,233,2977
-656,188,3063
-804,148,3185
-937,93,3319
-990,62,3468
-1019,23,3636
-998,-5,3816
-960,-12,3992
-916,-62,4124
-895,-163,4240
-846,-296,4399
-773,-465,4556
-751,-640,4710
-799,-812,4867
-893,-969,5035
-1015,-1109,5114
-1163,-1239,5158
-1304,-1382,5243
-1408,-1484,5352
-1492,-1495,5502
-1569,-1483,5756
-1682,-1521,5979
-1830,-1624,6135
-1931,-1782,6287
-1994,-1909,6366
-2083,-1976,6438
-2216,-2010,6569
-2374,-2012,6732
-2578,-1998,6980
-2776,-2047,7234
-2876,-2136,7337
-2784,-2177,7334
-2618,-2123,7157
-2557,-1966,6941
-2616,-1805,6795
-2720,-1624,6713
-2862,-1488,6731
-3004,-1482,6693
-3099,-1521,6582
-3166,-1507,6503
-3187,-1482,6375
-3112,-1449,6157
-2980,-1423,5973
-2842,-1425,5765
-2800,-1378,5545
-2865,-1287,5419
-2957,-1233,5319
-3118,-1221,5195
-3312,-1213,5127
-3337,-1197,5076
-3216,-1140,4963
-3112,-1086,4848
-3057,-1042,4731
-2999,-969,4637
-2969,-869,4537
-2922,-787,4418
-2809,-705,4340
-2698,-613,4262
-2626,-548,4184
-2558,-514,4064
-2490,-428,3975
-2399,-323,3886
-2302,-226,3803
-2217,-128,3717
-2154,14,3627
-2090,153,3566
-2049,247,3496
-1957,337,3418
-1794,439,3327
-1604,578,3195
-1442,756,3098
-1301,898,3014
-1132,975,2931
-937,1061,2780
-793,1133,2582
-651,1237,2393
-563,1353,2186
-497,1475,1973
-482,1558,1885
-493,1594,1771
-472,1623,1686
-442,1650,1659
-407,1666,1646
-363,1682,1659
-325,1628,1640
-294,1578,1597
-290,1565,1571
-306,1590,1550
-294,1651,1632
-264,1718,1786
-247,1794,1968
-217,1819,2101
-140,1808,2174
-60,1827,2285
22,1854,2418
108,1887,2542
187,1935,2661
223,1988,2773
230,2024,2878
215,2090,2953
149,2150,3060
55,2215,3197
-27,2256,3309
-49,2271,3382
-5,2304,3415
58,2352,3433
73,2393,3483
32,2414,3543
-47,2400,3604
-101,2408,3638
-156,2439,3650
-209,2476,3656
-220,2492,3691
-231,2479,3743
-251,2458,3777
-288,2473,3774
-317,2469,3732
-318,2470,3739
-348,2465,3745
-398,2464,3769
-450,2452,3774
-465,2455,3782
-425,2432,3761
-373,2391,3739
-346,2363,3742
-374,2366,3753
-433,2378,3749
-451,2367,3722
-416,2331,3698
-389,2322,3703
-382,2325,3706
-430,2327,3712
-467,2297,3712
-458,2289,3683
-416,2310,3644
-389,2326,3619
-379,2291,3587
-337,2294,3549
-357,2334,3517
-423,2346,3517
-439,2334,3521
-430,2367,3509
-404,2401,3525
-404,2385,3543
-430,2361,3578
-454,2349,3607
-456,2351,3629
-446,2343,3644
-425,2334,3666
-415,2310,3688
-435,2298,3706
-466,2312,3710
-477,2340,3720
-502,2343,3734
-493,2315,3752
-480,2307,3771
-464,2302,3754
-469,2280,3741
-503,2267,3740
-525,2272,3743
-539,2278,3741
-529,2284,3758
-534,2278,3758
-578,2270,3752
-612,2286,3760
-580,2293,3754
-551,2295,3733
-522,2282,3717
-508,2267,3707
-541,2272,3698
-563,2291,3690
-563,2304,3698
-575,2311,3698
-572,2287,3707
-541,2268,3712
-475,2278,3716
-418,2272,3697
-399,2277,3665
-405,2291,3667
-425,2293,3679
-454,2294,3667
-494,2291,3662
-511,2299,3652
-530,2288,3652
-549,2280,3645
-552,2274,3630
-528,2269,3619
-499,2266,3612
-501,2254,3620
-495,2245,3639
-498,2241,3668
-494,2265,3674
-462,2281,3687
-422,2271,3680
-382,2276,3681
-381,2287,3679
-382,2281,3670
-406,2267,3667
-429,2235,3661
-483,2225,3680
-523,2235,3687
-514,2245,3698
-481,2259,3673
-460,2271,3650
-486,2280,3635
-476,2281,3642
-432,2278,3672
-380,2283,3650
-355,2290,3650
-383,2297,3659
-432,2284,3675
-471,2255,3699
-455,2249,3702
-452,2266,3694
-463,2259,3708
-451,2230,3717
-447,2217,3714
-457,2230,3725
-469,2241,3736
-483,2229,3740
-486,2220,3758
-489,2206,3755
-494,2204,3753
-505,2208,3741
-535,2207,3747
-534,2234,3758
-529,2243,3740
-502,2224,3719
-486,2214,3707
-482,2221,3707
-487,2209,3709
-498,2206,3686
-510,2213,3690
-506,2214,3686
-502,2216,3682
-498,2237,3701
-477,2222,3714
-465,2198,3709
-476,2196,3708
-486,2222,3714
-481,2232,3720
-478,2230,3705
-463,2212,3711
-452,2209,3726
-454,2207,3705
-483,2207,3694
-510,2209,3692
-509,2206,3698
-502,2211,3687
-489,2228,3667
-493,2217,3671
-504,2217,3680
-531,2223,3667
-532,2216,3668
-532,2208,3674
-526,2216,3672
-530,2214,3694
-500,2196,3702
-470,2202,3708
-470,2215,3733
-463,2204,3739
-473,2198,3752
-481,2191,3753
-466,2196,3755
-457,2191,3744
-476,2201,3747
-498,2222,3753
-512,2222,3749
-534,2213,3747
-529,2213,3753
-489,2208,3730
-460,2202,3703
-463,2211,3721
-493,2235,3725
-529,2230,3727
-517,2210,3732
-499,2198,3734
-489,2196,3728
-485,2179,3711
-497,2179,3721
-505,2191,3727
-516,2210,3732
-530,2216,3715
-513,2211,3723
-523,2202,3729
-505,2204,3724
-477,2187,3722
-472,2172,3722
-478,2181,3720
-494,2213,3723
-491,2230,3709
-504,2243,3706
-504,2242,3708
-486,2212,3715
-467,2202,3710
-457,2208,3702
-447,2211,3693
-472,2201,3705
-482,2196,3715
-495,2183,3701
-496,2170,3699
-500,2189,3712
-487,2199,3709
-480,2189,3711
-487,2213,3707
-496,2239,3710
-504,2236,3719
-493,2201,3711
-468,2193,3698
-466,2204,3694
-481,2201,3700
-502,2183,3696
-511,2189,3691
-501,2201,3672
-488,2210,3688
-479,2213,3696
-500,2205,3695
-519,2209,3695
-507,2207,3696
-482,2214,3706
