AccelerometerX,AccelerometerY,AccelerometerZ
-831,-929,4108
-811,-951,4101
-793,-945,4126
-814,-956,4086
-830,-970,4037
-795,-966,4034
-799,-955,4045
-823,-947,4010
-808,-949,3974
-796,-952,3987
-798,-982,3983
-833,-977,3979
-872,-982,4000
-868,-989,3988
-842,-993,3983
-844,-970,4005
-838,-969,4025
-838,-979,4025
-841,-956,4023
-843,-945,4049
-827,-971,4055
-831,-978,4067
-848,-977,4042
-922,-979,4022
-916,-973,4029
-905,-958,4050
-930,-969,4055
-891,-978,4074
-848,-969,4071
-862,-966,4055
-839,-968,4080
-859,-971,4077
-875,-983,4062
-880,-978,4071
-888,-993,4063
-868,-1004,4055
-844,-995,4054
-863,-983,4047
-870,-972,4033
-862,-955,4021
-838,-956,4041
-797,-982,4029
-773,-972,4053
-785,-987,4047
-820,-1000,4036
-857,-1015,4041
-862,-1039,4044
-862,-1041,4037
-882,-1022,4046
-890,-1019,4050
-832,-1002,4031
-793,-987,4010
-768,-983,4019
-723,-977,4024
-710,-961,4031
-704,-964,4031
-709,-958,4053
-719,-967,4044
-760,-956,4028
-820,-974,4039
-820,-1010,4044
-815,-997,4054
-830,-985,4060
-831,-977,4060
-784,-979,4059
-776,-980,4051
-785,-967,4037
-770,-978,4039
-773,-986,4077
-794,-997,4104
-751,-1000,4134
-772,-984,4172
-871,-979,4183
-905,-988,4213
-884,-1004,4206
-838,-1013,4257
-840,-1003,4291
-844,-994,4303
-833,-978,4329
-871,-942,4340
-942,-924,4367
-974,-941,4412
-1016,-981,4523
-1000,-1015,4642
-914,-1043,4717
-912,-1058,4789
-972,-1054,4836
-1000,-1046,4891
-916,-1025,5008
-943,-1024,5050
-953,-952,5102
-926,-918,5289
-989,-973,5544
-1001,-1022,5688
-1001,-1107,5647
-990,-1100,5654
-996,-1028,5794
-999,-1039,5865
-918,-1058,5785
-799,-1044,5756
-715,-956,5844
-694,-886,6005
-607,-910,5970
-520,-831,5924
-504,-709,6200
-364,-641,6521
-279,-733,6723
-133,-885,6733
-8,-949,6621
75,-937,6457
21,-966,6171
-62,-1000,5923
-140,-959,5645
-202,-942,5397
-39,-972,5274
103,-988,5008
234,-874,4541
270,-765,4107
219,-683,3649
234,-434,3158
197,-83,2955
39,9,2728
127,5,2516
407,157,2470
570,303,2445
460,278,2178
443,309,1728
433,392,1229
149,510,853
-157,687,799
-238,920,1005
-225,1015,1123
-71,1096,1086
406,1271,1103
671,1374,1281
626,1515,1456
346,1523,1433
230,1544,1400
433,1615,1548
588,1665,1704
540,1690,1786
538,1749,1842
635,1850,2028
714,1868,2230
955,1805,2278
1096,1781,2319
1191,1714,2497
1452,1660,2858
1697,1651,3116
1938,1606,3173
2261,1595,3226
2554,1607,3415
2678,1584,3615
2725,1602,3709
2824,1646,3779
2980,1619,3882
3243,1571,3920
3382,1589,3934
3391,1644,3993
3189,1593,4001
3033,1537,3967
2947,1494,3845
2860,1493,3709
2785,1473,3583
2748,1343,3410
2694,1257,3243
2598,1293,3187
2499,1249,3028
2351,1099,2799
2143,1044,2603
1904,965,2352
1791,938,2136
1689,951,2041
1549,1112,1919
1350,1355,1902
1127,1395,2059
1019,1182,2045
1073,962,1923
1342,871,1869
1203,708,1659
714,776,1526
280,1005,1687
-117,958,1838
-478,865,2017
-511,735,2213
-436,495,2233
-385,410,2216
-483,403,2265
-864,403,2251
-1308,498,2287
-1713,407,2569
-2120,157,2782
-2253,149,2955
-2157,184,2974
-2013,172,2984
-1796,120,3024
-1852,16,2905
-2169,-72,2792
-2371,-59,2875
-2564,-63,2997
-2873,-118,2981
-3060,-104,3059
-3126,-218,3214
-3272,-469,3173
-3440,-631,3200
-3687,-793,3318
-4030,-931,3369
-4342,-967,3517
-4598,-987,3847
-4685,-1085,4124
-4587,-1312,4358
-4442,-1595,4520
-4186,-1751,4607
-3879,-1756,4591
-3937,-1844,4450
-4175,-1927,4275
-4298,-1928,4448
-4230,-2048,4825
-3968,-2302,4977
-3069,-2427,5275
-2556,-2614,5447
-2388,-2708,5355
-2420,-2591,5358
-2709,-2682,5475
-2665,-2720,5650
-2188,-2724,5797
-1997,-2949,5811
-1806,-3189,5810
-1620,-3190,5808
-1799,-3141,5694
-1726,-3077,5879
-1675,-3092,5914
-1636,-3176,5699
-1416,-3084,5656
-1410,-3127,5454
-1184,-3145,5146
-756,-2999,5167
-305,-2886,5319
-95,-2803,5096
213,-2476,5138
254,-2343,5129
282,-2380,4757
717,-2285,4665
1263,-2164,4657
1312,-2087,4404
1345,-1940,4279
1417,-1786,4226
1306,-1744,4024
1306,-1620,3876
1446,-1566,3870
1647,-1591,3935
1707,-1548,3909
1506,-1498,3831
1273,-1465,3786
1146,-1476,3790
948,-1486,3787
744,-1450,3809
538,-1469,3798
365,-1447,3761
245,-1430,3886
134,-1456,3965
-38,-1439,4014
-213,-1386,4047
-269,-1364,4027
-232,-1318,3932
-228,-1240,3880
-93,-1256,3890
144,-1248,3836
338,-1229,3784
410,-1211,3731
352,-1158,3738
219,-1130,3710
65,-1126,3728
-85,-1131,3795
-240,-1174,3834
-358,-1178,3806
-418,-1154,3804
-461,-1165,3873
-508,-1227,3925
-544,-1217,3911
-534,-1196,3951
-542,-1184,3980
-548,-1154,4022
-506,-1149,4031
-466,-1102,4013
-511,-1084,3972
-522,-1085,3966
-470,-1114,4006
-429,-1127,4047
-436,-1142,4056
-465,-1161,4129
-506,-1168,4160
-565,-1172,4154
-620,-1188,4152
-654,-1198,4132
-677,-1211,4121
-668,-1201,4131
-640,-1160,4105
-564,-1135,4112
-572,-1150,4081
-570,-1146,4059
-522,-1114,4021
-533,-1126,3991
-521,-1156,3980
-483,-1170,3988
-493,-1148,4008
-548,-1169,4044
-549,-1175,4090
-588,-1140,4068
-614,-1127,4050
-593,-1131,4070
-618,-1127,4053
-555,-1116,4030
-481,-1123,4034
-484,-1147,4020
-519,-1128,3997
-567,-1147,3993
-589,-1159,3992
-633,-1179,4012
-620,-1175,4014
-626,-1169,4013
-578,-1186,4050
-528,-1188,4101
-498,-1178,4100
-482,-1173,4097
-515,-1184,4091
-523,-1183,4108
-524,-1195,4104
-541,-1183,4104
-569,-1180,4110
-574,-1194,4092
-532,-1203,4100
-535,-1202,4110
-547,-1205,4117
-532,-1192,4093
-523,-1184,4091
-572,-1188,4105
-601,-1198,4104
-564,-1199,4097
-578,-1207,4115
-596,-1201,4113
-580,-1211,4114
-548,-1211,4135
-564,-1226,4126
-582,-1216,4084
-595,-1223,4098
-609,-1236,4096
-588,-1231,4070
-553,-1226,4051
-529,-1223,4046
-539,-1214,4011
-523,-1204,4000
-492,-1191,3982
-500,-1193,3960
-478,-1194,3980
-469,-1198,3982
-465,-1208,3990
-462,-1205,3991
-470,-1191,3950
-501,-1175,3928
-494,-1169,3925
-508,-1159,3910
-532,-1174,3894
-516,-1175,3880
-537,-1160,3883
-575,-1155,3869
-593,-1137,3872
-598,-1125,3938
-585,-1109,4007
-650,-1096,4110
-745,-1130,4244
-792,-1137,4367
-788,-1150,4603
-903,-1193,4883
-1132,-1249,5170
-1116,-1290,5454
-1030,-1344,5830
-954,-1405,6304
-849,-1429,6710
-737,-1438,6963
-695,-1378,7231
-729,-1353,7593
-781,-1457,7896
-742,-1498,8180
-666,-1533,8402
-575,-1664,8522
-427,-1778,8501
-399,-1886,8336
-508,-2004,8072
-580,-2092,7696
-623,-2187,7225
-680,-2272,6641
-563,-2208,5928
-501,-2045,5459
-516,-1931,5135
-322,-1872,4579
126,-1723,4032
350,-1505,3532
322,-1318,3108
235,-1146,2773
44,-1013,2349
-14,-833,2088
-21,-715,1867
87,-583,1607
317,-364,1321
428,-171,1132
413,-5,934
499,245,823
575,477,882
728,537,893
877,580,864
1012,633,848
1130,745,855
1218,837,938
1143,870,989
1111,988,1158
1362,1107,1388
1744,1222,1724
2219,1413,2109
2618,1537,2319
3158,1705,2552
3564,1820,2945
3632,1759,3192
3630,1705,3385
3759,1721,3580
3774,1620,3727
3760,1479,3834
3826,1359,3851
3658,1256,3714
3330,1202,3546
3090,1120,3383
2809,970,3165
2528,883,2893
2266,846,2628
1966,857,2366
1571,892,2138
1350,896,1946
1364,945,1843
1362,902,1784
1291,820,1636
1168,844,1540
944,891,1553
756,895,1437
627,963,1421
562,959,1630
453,809,1784
371,635,1803
324,619,1861
299,657,1902
-24,569,1842
-451,540,1714
-698,508,1896
-846,236,2133
-1041,-23,2090
-1005,18,2007
-1179,25,2016
-1584,76,1902
-1891,167,1851
-2085,85,1996
-2194,-155,2111
-2349,-336,2202
-2502,-370,2262
-2834,-267,2320
-3336,-279,2417
-3581,-348,2544
-3678,-486,2890
-3609,-809,3276
-3410,-1001,3444
-3452,-1032,3437
-3908,-1047,3240
-4415,-1052,3218
-4657,-1166,3320
-4614,-1381,3499
-4129,-1551,3924
-3756,-1796,4040
-3501,-1772,3984
-3565,-1676,4017
-4062,-1667,4061
-4437,-1651,4186
-4352,-1735,4367
-4240,-1968,4515
-3851,-2043,4895
-3521,-2182,5080
-3555,-2281,5082
-3673,-2249,5165
-3876,-2308,5251
-3857,-2341,5487
-3414,-2454,5745
-2964,-2621,5846
-2817,-2727,5825
-2809,-2882,5818
-2932,-2974,5707
-3059,-3033,5661
-2898,-3153,5627
-2626,-3185,5541
-2398,-3091,5589
-2107,-3056,5649
-1817,-3131,5542
-1658,-3173,5478
-1609,-3156,5361
-1497,-3071,5214
-1358,-3015,5076
-1185,-3010,4931
-588,-2899,4985
-117,-2782,4822
75,-2710,4514
43,-2537,4396
-307,-2513,4189
-593,-2456,4015
-474,-2364,4024
-59,-2352,4138
514,-2272,4177
982,-2197,4156
1112,-2080,4120
891,-1979,3916
709,-1874,3759
623,-1779,3769
675,-1807,3762
1153,-1784,3808
1518,-1735,3852
1423,-1655,3740
1224,-1538,3738
844,-1548,3701
577,-1501,3711
495,-1460,3791
452,-1533,3777
604,-1493,3771
587,-1421,3759
373,-1388,3753
329,-1356,3775
134,-1334,3683
-112,-1344,3638
-114,-1338,3664
-65,-1302,3633
-135,-1262,3564
-219,-1218,3576
-311,-1191,3578
-312,-1189,3567
-255,-1232,3635
-266,-1256,3653
-369,-1265,3661
-468,-1286,3684
-517,-1313,3727
-554,-1302,3798
-625,-1300,3857
-643,-1317,3896
-624,-1307,3926
-599,-1316,3946
-593,-1309,3968
-637,-1292,3975
-684,-1289,3994
-766,-1298,4036
-771,-1322,4043
-735,-1338,4062
-778,-1326,4105
-799,-1323,4120
-817,-1312,4123
-841,-1311,4105
-853,-1308,4100
-878,-1320,4084
-872,-1315,4056
-870,-1305,4027
-839,-1312,4039
-808,-1317,4036
-803,-1321,3997
-811,-1300,3977
-903,-1315,3936
-882,-1321,3937
-805,-1315,3932
-804,-1328,3910
-792,-1322,3899
-809,-1275,3935
-800,-1256,3945
-741,-1261,3937
-711,-1237,3980
-743,-1227,3995
-806,-1231,3970
-806,-1254,3985
-771,-1272,4028
-763,-1293,4011
-758,-1280,3995
-773,-1270,3989
-808,-1268,3979
-857,-1268,3973
-860,-1272,3994
-825,-1283,4000
-767,-1277,4004
-777,-1276,4031
-799,-1263,4070
-784,-1277,4053
-783,-1280,3999
-778,-1279,4006
-780,-1305,4009
-777,-1303,3974
-718,-1301,3977
-697,-1303,4003
-739,-1284,4008
-738,-1269,4018
-742,-1279,3989
-747,-1276,3985
-710,-1277,4007
-709,-1293,3999
-701,-1289,3984
-663,-1285,3966
-681,-1298,3966
-717,-1304,3965
-741,-1314,3961
-773,-1330,3957
-827,-1311,3940
-785,-1296,3948
-744,-1312,3963
-761,-1286,3963
-762,-1255,3979
-768,-1265,3987
-754,-1278,4000
-742,-1278,4006
-748,-1285,3999
-709,-1291,4013
-686,-1282,3998
-678,-1276,3974
-683,-1284,3983
-671,-1285,3976
-669,-1291,3982
-690,-1293,3989
-685,-1312,3970
-635,-1318,3970
-677,-1319,3984
-720,-1342,3989
-729,-1347,3980
-777,-1350,3990
-828,-1342,3986
-802,-1344,3984
-735,-1346,4002
-703,-1340,3983
-668,-1336,4011
-658,-1314,4011
-688,-1335,3960
-672,-1337,3944
-716,-1345,3976
-723,-1325,3991
-762,-1333,3992
-763,-1319,4019
-745,-1313,4051
-771,-1312,4053
-779,-1300,4084
-766,-1275,4153
-760,-1277,4222
-727,-1274,4363
-758,-1297,4406
-797,-1290,4431
-831,-1301,4519
-924,-1314,4629
-938,-1289,4767
-879,-1324,4875
-751,-1356,5011
-713,-1392,5205
-810,-1416,5417
-867,-1426,5656
-812,-1524,5828
-703,-1531,5934
-786,-1560,6035
-939,-1549,6111
-925,-1486,6212
-948,-1447,6410
-950,-1365,6774
-894,-1435,7099
-800,-1557,7338
-603,-1741,7392
-499,-1855,7169
-674,-1853,6841
-1012,-1847,6414
-974,-1722,6036
-1018,-1683,5917
-1029,-1675,5867
-553,-1602,5601
6,-1457,5324
44,-1300,5083
-63,-1226,4799
26,-1169,4411
38,-1115,3976
-13,-1087,3557
-43,-1046,3062
-45,-908,2506
-42,-715,2010
-53,-541,1557
36,-379,1238
271,-232,999
611,-65,821
869,109,790
1077,259,804
1291,408,913
1442,511,1246
1638,526,1554
2111,566,1869
2675,592,2288
3266,695,2666
3736,968,3097
3990,1197,3470
4190,1277,3758
4313,1156,3942
4203,983,4026
3937,850,4067
3699,785,4098
3649,768,3968
3424,674,3842
3113,573,3703
2872,495,3522
2604,443,3280
2258,427,2966
2014,441,2662
1786,419,2429
1580,376,2207
1429,361,2055
1357,388,1868
1203,493,1739
955,518,1711
888,544,1769
777,511,1705
587,520,1559
392,537,1548
86,413,1575
-180,331,1568
-262,441,1597
-489,500,1623
-786,503,1610
-978,516,1646
-1129,432,1702
-1141,312,1912
-1122,158,2022
-1257,67,1908
-1361,108,1866
-1454,61,1863
-1636,100,2002
-1920,166,2199
-2020,152,2363
-1871,0,2535
-1729,-162,2589
-1718,-260,2631
-1880,-407,2587
-2166,-412,2589
-2512,-435,2651
-2642,-504,2802
-2507,-461,3046
-2492,-571,3179
-2606,-763,3234
-2690,-979,3273
-2746,-1087,3292
-2831,-1106,3307
-3044,-1142,3382
-3333,-1210,3564
-3412,-1339,3795
-3113,-1452,4097
-2878,-1584,4322
-2728,-1728,4432
-2712,-1843,4332
-3003,-1896,4110
-3500,-1954,4001
-3674,-1971,4157
-3685,-2104,4328
-3240,-2327,4566
-2792,-2557,4680
-2536,-2647,4808
-2507,-2640,4777
-2893,-2704,4686
-3309,-2761,4703
-3485,-2902,4841
-3399,-3088,4889
-3030,-3101,5039
-2801,-3034,5161
-2727,-3103,5104
-2705,-3255,5060
-2806,-3412,5009
-2822,-3449,4945
-2713,-3460,5069
-2517,-3543,5341
-2005,-3679,5481
-1344,-3700,5657
-1282,-3748,5601
-1469,-3780,5431
-1721,-3772,5311
-1882,-3786,5149
-1651,-3725,5076
-1378,-3753,4957
-569,-3600,5122
42,-3423,5201
90,-3366,5042
166,-3194,4902
49,-3138,4644
-9,-3116,4316
200,-3079,4193
517,-3073,4153
825,-3012,4005
960,-2838,3749
839,-2562,3632
403,-2454,3467
256,-2421,3329
417,-2325,3303
680,-2237,3399
1055,-2191,3488
1199,-2109,3441
1174,-2035,3496
957,-2064,3475
680,-2018,3385
597,-2004,3363
772,-2018,3428
971,-2007,3508
1000,-1990,3558
1012,-1975,3593
897,-1966,3545
653,-1916,3443
412,-1877,3374
319,-1821,3389
294,-1804,3446
467,-1817,3591
591,-1874,3703
531,-1887,3665
394,-1849,3644
168,-1897,3690
43,-1887,3717
-64,-1871,3732
-188,-1872,3722
-160,-1882,3783
-122,-1877,3822
-249,-1859,3815
-304,-1852,3812
-363,-1853,3820
-361,-1854,3841
-291,-1851,3843
-287,-1819,3864
-353,-1781,3857
-403,-1768,3855
-415,-1787,3880
-411,-1805,3853
-363,-1790,3868
-370,-1779,3866
-401,-1763,3875
-444,-1757,3880
-438,-1781,3927
-430,-1812,3946
-471,-1800,3944
-500,-1782,3937
-512,-1795,3949
-480,-1792,3963
-486,-1771,3948
-484,-1733,3927
-535,-1714,3900
-570,-1706,3886
-518,-1706,3894
-495,-1717,3906
-485,-1727,3900
-469,-1737,3878
-494,-1720,3875
-555,-1707,3844
-593,-1709,3804
-566,-1710,3826
-635,-1732,3813
-638,-1691,3790
-515,-1663,3781
-492,-1694,3791
-538,-1694,3788
-543,-1665,3795
-532,-1674,3827
-561,-1694,3843
-601,-1707,3852
-581,-1704,3874
-582,-1692,3858
-579,-1685,3857
-538,-1711,3876
-525,-1710,3881
-521,-1710,3889
-514,-1712,3906
-511,-1713,3905
-511,-1710,3922
-514,-1720,3936
-523,-1727,3934
-520,-1730,3929
-496,-1750,3933
-513,-1743,3942
-517,-1741,3945
-482,-1754,3943
-509,-1740,3918
-514,-1726,3904
-490,-1741,3887
-456,-1743,3865
-467,-1744,3868
-511,-1746,3858
-493,-1725,3853
-490,-1731,3874
-497,-1741,3885
-502,-1726,3876
-491,-1738,3865
-493,-1742,3849
-539,-1747,3854
-535,-1750,3827
-512,-1755,3821
-511,-1767,3840
-494,-1770,3863
-498,-1763,3874
-459,-1779,3909
-488,-1798,3885
-567,-1769,3851
-567,-1767,3874
-554,-1793,3896
-562,-1797,3897
-553,-1798,3892
-509,-1799,3911
-501,-1807,3912
-520,-1829,3915
-516,-1838,3907
-553,-1828,3893
-559,-1824,3885
-566,-1811,3877
-525,-1779,3908
-488,-1773,3943
-442,-1784,3952
-407,-1768,3971
-436,-1767,3928
-434,-1768,3912
-445,-1770,3926
-475,-1778,3898
-496,-1773,3901
-540,-1781,3897
-522,-1776,3903
-496,-1779,3908
-490,-1770,3915
-467,-1763,3908
-454,-1766,3898
-436,-1759,3878
-444,-1769,3878
-459,-1770,3868
-457,-1768,3876
-485,-1778,3869
-509,-1767,3847
-495,-1763,3845
-494,-1751,3842
-514,-1742,3850
-513,-1727,3836
-497,-1737,3827
-459,-1736,3848
-440,-1755,3853
-457,-1733,3837
-497,-1733,3836
-489,-1739,3831
-494,-1701,3867
-487,-1717,3917
-439,-1741,3960
-425,-1764,4002
-447,-1758,4009
-481,-1750,4065
-546,-1744,4152
-578,-1761,4222
-546,-1798,4317
-512,-1841,4441
-514,-1852,4551
-561,-1870,4642
-610,-1905,4750
-687,-1928,4819
-740,-1931,4905
-729,-1903,5046
-686,-1919,5233
-562,-1981,5374
-417,-2017,5489
-420,-2004,5588
-522,-1999,5576
-588,-2008,5587
-680,-2032,5653
-695,-2063,5665
-593,-2021,5712
-492,-1983,5801
-428,-1960,5834
-370,-1851,5989
-443,-1836,6110
-354,-1832,6280
-213,-1818,6508
-122,-1828,6673
-126,-1942,6771
-114,-2047,6869
-244,-2059,6769
-478,-2066,6664
-599,-2127,6531
-538,-2197,6223
-497,-2192,5836
-502,-2060,5620
-491,-2067,5324
-264,-2009,4929
-102,-1832,4667
-257,-1763,4326
-284,-1603,3921
-103,-1343,3751
-112,-1293,3510
25,-1183,3145
265,-951,2879
284,-842,2635
259,-719,2442
247,-624,2118
229,-518,1728
267,-318,1496
258,-148,1292
367,104,1230
467,255,1178
532,326,1037
682,450,957
828,601,888
806,738,845
817,856,832
931,1006,993
1012,1040,1145
1158,1138,1308
1347,1263,1544
1503,1319,1757
1699,1435,2007
1990,1565,2286
2233,1591,2621
2456,1608,2887
2446,1600,3110
2303,1579,3357
2305,1512,3705
2400,1435,3991
2444,1349,4070
2512,1365,4149
2508,1341,4247
2438,1301,4302
2358,1291,4281
2284,1253,4135
2212,1219,3948
2076,1183,3774
1943,1136,3542
1864,1133,3311
1675,1111,3130
1562,1084,2954
1538,1134,2738
1515,1198,2554
1442,1199,2478
1334,1127,2375
1259,1090,2238
1074,1037,2210
877,948,2183
846,899,2107
776,919,1996
567,950,1878
421,998,1839
285,1034,1843
118,1007,1875
-66,919,1845
-194,833,1868
-309,747,1898
-556,735,1887
-798,733,1974
-960,636,2085
-1117,580,2127
-1247,500,2194
-1252,343,2266
-1291,307,2345
-1443,370,2331
-1611,340,2355
-1725,362,2325
-1885,355,2383
-1866,166,2605
-1863,-23,2826
-1915,-156,2927
-1747,-140,2865
-1816,57,2868
-2095,58,2905
-2333,-61,2988
-2583,-244,3112
-2688,-493,3122
-2756,-687,3156
-2815,-786,3241
-2859,-761,3277
-3019,-727,3271
-3138,-789,3255
-3154,-949,3371
-3070,-1161,3692
-2888,-1361,3913
-2666,-1481,3914
-2576,-1500,3906
-2903,-1563,3927
-3357,-1620,3824
-3509,-1716,3836
-3341,-1821,4205
-2920,-1955,4578
-2513,-2072,4657
-2183,-2060,4694
-2436,-2134,4620
-3030,-2295,4528
-3395,-2423,4597
-3419,-2612,4778
-3039,-2859,5152
-2548,-2970,5359
-2211,-2928,5285
-2246,-2848,5247
-2754,-2900,5258
-3066,-2992,5283
-2960,-3193,5297
-2569,-3457,5370
-1913,-3657,5582
-1523,-3803,5672
-1163,-3774,5849
-1063,-3671,5837
-1240,-3547,5619
-1390,-3529,5363
-1345,-3580,5072
-1130,-3570,4918
-561,-3552,5099
463,-3454,5388
939,-3358,5251
759,-3201,4970
415,-2991,4797
-139,-2915,4528
-320,-2914,4116
-75,-2928,3808
592,-2821,4021
1177,-2806,4144
1520,-2767,3962
1710,-2422,4047
1142,-2250,3876
701,-2225,3553
985,-2119,3510
1074,-2119,3553
1161,-2172,3647
1504,-2150,3739
1601,-2128,3760
1373,-2166,3750
1026,-2220,3694
697,-2190,3590
491,-2174,3532
431,-2170,3553
344,-2144,3604
461,-2160,3742
598,-2179,3834
564,-2144,3793
470,-2085,3728
311,-2051,3703
127,-2030,3686
149,-2002,3659
173,-2022,3631
175,-1973,3639
150,-1956,3637
82,-1958,3627
69,-1939,3595
33,-1899,3529
-31,-1882,3452
-36,-1887,3460
-92,-1894,3542
-139,-1880,3563
-122,-1867,3584
-93,-1862,3640
-30,-1860,3719
-45,-1859,3734
-40,-1844,3736
-88,-1828,3760
-148,-1843,3829
-169,-1848,3845
-176,-1825,3840
-161,-1846,3889
-148,-1882,3900
-154,-1861,3855
-165,-1845,3844
-171,-1840,3878
-219,-1845,3853
-253,-1837,3837
-220,-1830,3890
-176,-1844,3908
-151,-1843,3864
-208,-1831,3839
-251,-1826,3858
-259,-1830,3897
-233,-1817,3910
-227,-1790,3903
-245,-1796,3917
-227,-1815,3948
-238,-1807,3950
-285,-1845,3927
-290,-1853,3905
-341,-1839,3898
-389,-1863,3893
-382,-1870,3883
-318,-1867,3884
-298,-1845,3875
-289,-1827,3864
-270,-1824,3836
-269,-1803,3817
-281,-1799,3828
-271,-1800,3843
-230,-1801,3868
-222,-1798,3850
-220,-1787,3819
-233,-1791,3827
-262,-1812,3829
-317,-1836,3841
-309,-1829,3856
-295,-1839,3866
-323,-1835,3908
-358,-1838,3920
-351,-1835,3905
-330,-1856,3917
-313,-1868,3935
-310,-1876,3931
-319,-1878,3889
-297,-1861,3880
-284,-1867,3887
-319,-1878,3872
-358,-1867,3869
-356,-1861,3892
-332,-1868,3907
-318,-1856,3903
-297,-1848,3922
-283,-1856,3917
-301,-1857,3900
-310,-1848,3891
-301,-1864,3882
-280,-1876,3869
-265,-1882,3862
-279,-1889,3857
-251,-1871,3867
-242,-1878,3862
-279,-1881,3851
-288,-1867,3845
-299,-1878,3867
-312,-1869,3887
-351,-1887,3895
-387,-1902,3877
-401,-1897,3881
-425,-1907,3872
-483,-1906,3870
-519,-1883,3876
-499,-1879,3895
-469,-1901,3915
-420,-1883,3921
-407,-1869,3927
-396,-1889,3941
-425,-1884,3912
-453,-1896,3873
-484,-1897,3818
-502,-1887,3838
-457,-1871,3891
-436,-1876,3884
-448,-1860,3845
-462,-1837,3826
-448,-1840,3860
-449,-1839,3822
-509,-1813,3782
-517,-1798,3796
-460,-1791,3836
-414,-1797,3880
-419,-1826,3884
-459,-1789,3895
-581,-1753,3947
-642,-1781,4059
-639,-1813,4268
-685,-1815,4559
-679,-1857,4908
-619,-1911,5252
-683,-1919,5549
-720,-1963,5810
-692,-2047,6084
-739,-2136,6271
-746,-2165,6409
-735,-2174,6715
-852,-2257,6958
-857,-2221,7114
-719,-2104,7292
-738,-2156,7522
-619,-2184,7779
-601,-2317,7816
-567,-2483,7587
-598,-2514,7254
-688,-2508,6995
-995,-2553,6749
-1285,-2533,6416
-1204,-2479,6204
-956,-2497,6127
-786,-2518,5920
-588,-2488,5574
-436,-2421,5081
-408,-2177,4658
-561,-1995,4508
-669,-2005,4139
-439,-1952,3707
-140,-1803,3418
91,-1656,3111
275,-1516,2833
358,-1296,2480
274,-1007,2240
224,-721,2268
340,-623,2187
567,-569,2123
731,-469,2149
845,-468,2048
848,-393,1780
764,-201,1584
458,-120,1449
162,-23,1183
173,304,1145
58,429,1268
160,483,1215
580,748,1378
828,832,1547
1230,919,1565
1544,1084,1790
1551,1065,1981
1494,969,1971
1322,914,1870
1252,942,1859
1527,966,2014
1882,1028,2203
2160,1295,2478
2492,1494,2784
2969,1633,3061
3336,1672,3518
3586,1551,3902
3778,1503,4115
3684,1476,4205
3488,1492,4294
3201,1357,4378
2882,1127,4255
2636,1160,4021
2440,1158,3902
2367,1029,3699
2225,975,3396
1956,1050,3134
1687,1033,2858
1528,1021,2542
1409,1067,2286
1192,1019,2088
1093,997,1923
1167,1102,1774
963,1184,1661
695,1293,1581
673,1408,1554
809,1371,1596
825,1230,1641
769,1026,1688
709,922,1628
566,1045,1522
284,1185,1491
11,1141,1437
-175,1157,1405
-307,1087,1496
-335,835,1674
-224,581,1771
-277,457,1717
-492,464,1593
-803,613,1558
-1217,594,1679
-1474,506,1902
-1559,368,2163
-1482,72,2385
-1244,-138,2452
-1232,-123,2456
-1640,-191,2418
-2016,-288,2386
-2233,-415,2385
-2404,-545,2545
-2527,-651,2796
-2725,-688,2930
-2829,-728,3021
-2898,-907,3095
-3139,-1089,3200
-3413,-1240,3335
-3477,-1433,3506
-3452,-1539,3774
-3336,-1650,4054
-3266,-1762,4149
-3375,-1701,4267
-3635,-1676,4450
-3809,-1825,4516
-3589,-1990,4695
-3492,-2258,4820
-3267,-2396,5083
-3179,-2473,5226
-3217,-2568,5206
-3351,-2598,5224
-3577,-2706,5269
-3488,-2769,5463
-3337,-2885,5619
-2889,-3104,5818
-2352,-3259,6055
-2207,-3328,6116
-2306,-3370,6054
-2387,-3428,5986
-2684,-3618,5699
-2734,-3687,5471
-2308,-3672,5542
-1817,-3773,5533
-1033,-3704,5671
-511,-3551,5739
-470,-3499,5569
-572,-3463,5307
-793,-3461,5089
-942,-3427,4928
-739,-3504,4844
124,-3405,5008
1979,-2475,4096
2233,-2394,3957
2198,-2262,3896
1792,-2167,3771
1305,-2148,3581
1206,-2083,3575
1211,-2093,3567
1345,-2115,3570
1562,-2071,3643
1484,-2073,3654
1268,-2032,3628
1075,-1994,3610
831,-2011,3614
561,-2030,3596
402,-2024,3554
299,-2002,3534
298,-1994,3572
270,-1967,3631
199,-1950,3631
144,-1871,3582
2,-1844,3589
-106,-1866,3652
-131,-1849,3708
-170,-1838,3703
-242,-1813,3719
-325,-1812,3719
-410,-1822,3703
-403,-1827,3737
-400,-1827,3781
-408,-1836,3806
-365,-1822,3814
-362,-1818,3820
-400,-1822,3873
-434,-1855,3893
-463,-1833,3870
-497,-1812,3864
-511,-1776,3859
-449,-1763,3884
-374,-1785,3898
-376,-1799,3894
-413,-1799,3888
-445,-1813,3881
-487,-1815,3894
-574,-1809,3875
-607,-1823,3885
-658,-1853,3901
-601,-1835,3920
