sequence,AccelerometerX,AccelerometerY,AccelerometerZ,GyroscopeX,GyroscopeY,GyroscopeZ
0,-92,20,1002,-114,70,-125
1,-78,17,997,-79,107,-90
2,-94,9,1021,-4,101,-90
3,-87,10,1020,66,78,-77
4,-101,-3,1047,72,103,-104
5,-91,-3,1035,13,125,-145
6,-89,10,1040,-61,101,-163
7,-94,9,1022,-81,72,-149
8,-88,14,1025,-34,70,-122
9,-86,26,1032,-14,70,-106
10,-92,17,1023,-30,58,-104
11,-109,8,1007,-47,46,-133
12,-106,9,989,-24,46,-153
13,-92,27,1004,0,80,-174
14,-84,40,1006,25,115,-168
15,-78,28,1006,21,125,-155
16,-96,37,1040,39,132,-182
17,-75,28,1049,7,146,-170
18,-82,38,1053,-63,132,-116
19,-83,29,1049,-88,95,-96
20,-99,30,1041,-55,25,-108
21,-92,40,1039,11,-10,-83
22,-84,31,1025,76,-42,-75
23,-111,26,1033,64,-67,-100
24,-105,45,995,48,-73,-110
25,-102,32,982,58,25,-143
26,-94,27,980,89,128,-182
27,-88,39,986,42,154,-176
28,-84,28,982,-38,166,-149
29,-90,32,982,-84,193,-133
30,-87,31,993,-36,197,-83
31,-112,30,1014,70,193,-79
32,-113,28,1046,136,173,-57
33,-123,27,1063,179,164,-55
34,-112,28,1070,150,130,-75
35,-115,42,1056,56,109,-124
36,-121,38,1053,-57,111,-129
37,-109,44,1038,-147,144,-104
38,-103,56,1033,-170,166,-69
39,-117,48,1033,-149,158,0
40,-124,42,1038,-20,140,42
41,-142,30,1052,33,130,56
42,-140,9,1056,42,107,46
43,-133,-2,1073,0,107,5
44,-150,2,1067,-98,93,-65
45,-143,9,1069,-124,111,-86
46,-135,13,1055,-100,128,-92
47,-130,21,1044,-71,105,-94
48,-138,39,1040,-42,66,-83
49,-123,45,1028,1,76,-63
50,-103,54,1032,5,93,-16
51,-124,33,1026,15,99,5
52,-123,25,1030,17,138,33
53,-137,5,1038,1,175,35
54,-147,11,1041,-2,191,1
55,-146,4,1056,-32,212,-22
56,-134,11,1054,-69,208,-18
57,-137,4,1056,-67,162,-36
58,-131,23,1050,-26,123,-28
59,-134,21,1049,-8,107,-40
60,-134,13,1045,-14,83,-42
61,-145,18,1055,25,74,-83
62,-138,4,1035,27,82,-83
63,-130,9,1041,-12,70,-83
64,-141,16,1020,-57,70,-81
65,-138,12,1005,-77,101,-75
66,-131,10,1005,-49,115,-59
67,-136,14,1007,0,119,-49
68,-130,18,1002,66,117,-51
69,-138,9,1015,78,121,-53
70,-137,19,1014,50,107,-51
71,-130,24,1010,-6,111,-49
72,-125,27,997,-38,101,-32
73,-134,38,1010,-4,83,-36
74,-133,29,1010,39,103,-26
75,-136,22,1018,74,97,-18
76,-132,19,1024,80,132,-26
77,-146,14,1022,58,171,-12
78,-141,20,1032,87,171,15
79,-146,27,1041,136,158,27
80,-151,22,1064,179,146,27
81,-157,35,1052,164,134,23
82,-160,37,1089,154,119,27
83,-157,27,1089,181,89,44
84,-164,20,1112,218,82,54
85,-180,29,1154,261,76,60
86,-173,36,1178,310,76,44
87,-196,46,1213,343,85,15
88,-201,64,1290,443,121,13
89,-212,82,1395,554,167,31
90,-215,75,1475,572,107,60
91,-253,73,1582,580,-53,42
92,-278,100,1674,611,-170,21
93,-333,121,1774,570,-190,68
94,-372,124,1912,597,-241,134
95,-407,123,2048,681,-358,128
96,-408,137,2048,595,-569,74
97,-397,156,2048,330,-975,-12
98,-401,197,2048,-96,-1458,-79
99,-421,211,2048,-444,-1965,1
100,-444,214,2048,-536,-2413,107
101,-472,192,2036,-461,-2774,232
102,-473,169,1939,-415,-3034,296
103,-476,151,1844,-434,-3227,271
104,-430,153,1743,-547,-3385,257
105,-394,142,1600,-784,-3557,203
106,-387,133,1463,-897,-3797,128
107,-353,110,1309,-911,-4006,39
108,-297,119,1174,-879,-4215,-65
109,-261,129,1003,-930,-4370,-77
110,-223,137,849,-825,-4463,-16
111,-195,130,676,-782,-4356,58
112,-129,113,525,-780,-4106,193
113,-65,115,448,-770,-3762,220
114,10,100,386,-852,-3399,210
115,96,110,367,-872,-3204,283
116,132,90,316,-709,-3153,353
117,202,81,283,-465,-3178,375
118,265,89,242,-292,-3254,335
119,286,109,124,-290,-3249,339
120,334,118,25,-333,-3102,414
121,370,112,-123,-327,-2825,453
122,397,129,-150,-270,-2438,476
123,474,185,-192,-190,-1920,533
124,513,217,-177,-151,-1469,652
125,536,212,-151,-75,-1192,820
126,527,178,-150,21,-993,898
127,516,128,-166,93,-807,1005
128,493,58,-189,105,-643,1039
129,470,9,-219,230,-483,1001
130,483,28,-255,359,-219,916
131,486,33,-277,417,44,894
132,466,56,-328,457,322,923
133,496,104,-320,382,736,914
134,489,140,-346,357,1101,976
135,505,120,-361,507,1427,1142
136,477,77,-348,750,1732,1269
137,391,36,-270,1052,2058,1306
138,317,8,-159,1308,2355,1279
139,263,1,-40,1388,2617,1136
140,191,-13,47,1197,2826,1121
141,182,-39,126,964,3107,1082
142,145,-16,214,779,3324,945
143,75,19,317,722,3537,861
144,12,18,439,746,3759,853
145,-63,20,591,910,3892,863
146,-111,4,751,1097,3980,849
147,-193,5,860,1183,3970,851
148,-287,-9,986,1228,3933,841
149,-330,8,1136,1250,3964,755
150,-403,26,1275,1048,4007,771
151,-431,18,1429,753,4060,802
152,-441,40,1533,480,4052,763
153,-455,46,1659,375,3962,746
154,-466,26,1752,326,3873,769
155,-490,20,1837,292,3812,718
156,-511,5,1927,210,3701,611
157,-513,-12,2005,150,3548,496
158,-487,12,2048,15,3326,371
159,-489,43,2048,-180,3050,244
160,-488,87,2048,-266,2644,250
161,-520,144,2048,-81,2230,261
162,-567,187,2048,189,1917,414
163,-621,194,2048,400,1634,585
164,-666,168,2048,451,1312,701
165,-698,145,2048,261,925,720
166,-746,122,2048,-12,423,718
167,-757,109,2048,-303,-161,615
168,-807,153,2048,-459,-872,439
169,-828,154,2048,-616,-1713,365
170,-839,143,2048,-602,-2518,361
171,-843,136,2048,-493,-3280,304
172,-839,153,2048,-608,-3917,236
173,-841,139,2048,-899,-4397,171
174,-793,145,2048,-1250,-4723,85
175,-726,170,2048,-1483,-5067,23
176,-704,185,1983,-1567,-5440,-18
177,-655,171,1766,-1579,-5713,-81
178,-611,120,1549,-1752,-5920,-30
179,-516,76,1341,-1799,-6104,-8
180,-432,64,1075,-1862,-6374,-40
181,-409,59,816,-1823,-6493,-139
182,-355,33,553,-1819,-6418,-53
183,-251,30,352,-1737,-6172,1
184,-147,57,185,-1584,-5825,27
185,-65,52,-10,-1508,-5497,138
186,-1,11,-172,-1245,-5182,289
187,89,1,-238,-838,-4815,343
188,146,-9,-320,-688,-4465,378
189,214,-25,-354,-688,-4141,404
190,309,27,-420,-948,-3795,326
191,400,88,-480,-1288,-3456,292
192,488,120,-616,-1631,-3221,332
193,552,133,-740,-1446,-2995,375
194,607,132,-804,-852,-2731,476
195,630,128,-812,-348,-2327,566
196,629,117,-799,-116,-1817,664
197,648,94,-791,-42,-1303,806
198,662,99,-784,-59,-875,890
199,667,105,-805,-36,-534,927
200,690,111,-829,144,-231,976
201,658,150,-837,421,80,998
202,634,165,-869,740,429,1140
203,586,164,-852,1201,835,1273
204,542,144,-819,1679,1371,1437
205,540,118,-742,2044,1933,1613
206,484,112,-643,2263,2398,1642
207,465,97,-559,2472,2748,1673
208,385,68,-497,2609,3041,1724
209,290,82,-411,2783,3263,1712
210,198,83,-309,2912,3503,1689
211,81,70,-233,2960,3755,1640
212,27,51,-178,3007,4037,1632
213,-92,18,-114,2968,4345,1607
214,-227,-41,-57,2904,4722,1601
215,-379,-36,106,2957,5162,1341
216,-447,15,402,2951,5691,1042
217,-484,66,708,2689,6101,851
218,-514,132,931,2119,6164,761
219,-555,159,1102,1667,6185,835
220,-643,163,1281,1439,6261,882
221,-727,146,1492,1308,6257,978
222,-771,127,1750,1322,6128,1007
223,-828,50,1950,1429,5910,1029
224,-859,-32,2048,1488,5574,949
225,-866,-100,2048,1488,5322,759
226,-826,-106,2048,1035,5017,515
227,-785,-107,2048,494,4546,228
228,-705,-47,2048,-10,4199,-14
229,-680,41,2048,-366,3839,-81
230,-652,60,2048,-106,3376,-45
231,-634,114,2048,304,2998,-22
232,-604,153,2048,193,2697,7
233,-575,173,2048,-168,2332,0
234,-495,166,2048,-633,2023,150
235,-468,120,1998,-792,1550,314
236,-510,82,1878,-288,1021,250
237,-506,49,1767,214,775,201
238,-489,24,1684,400,789,130
239,-449,37,1634,224,906,54
240,-387,63,1597,-178,910,42
241,-370,64,1549,-381,859,15
242,-383,79,1522,-356,683,17
243,-333,61,1463,-301,462,39
244,-310,93,1377,-286,197,56
245,-293,62,1307,-215,-10,76
246,-270,52,1235,-71,-155,134
247,-290,51,1149,0,-249,167
248,-302,27,1078,64,-254,150
249,-306,42,1061,201,-153,115
250,-288,62,1062,253,21,111
251,-274,58,1077,214,128,160
252,-294,44,1093,64,134,171
253,-295,23,1099,-86,41,142
254,-291,19,1100,-110,-71,82
255,-297,6,1086,-71,-172,21
256,-295,2,1071,62,-303,0
257,-311,5,1048,166,-403,-16
258,-306,3,1025,191,-459,-20
259,-294,0,984,152,-463,-34
260,-300,-1,966,9,-411,-49
261,-290,-9,946,-122,-344,-63
262,-275,-3,951,-188,-268,-100
263,-287,4,962,-243,-231,-104
264,-291,-8,961,-286,-243,-55
265,-278,-22,985,-266,-321,-10
266,-301,-55,991,-217,-374,-42
267,-303,-57,1020,-143,-420,-84
268,-290,-71,993,-127,-549,-143
269,-298,-93,1039,-100,-592,-167
270,-303,-91,1007,-106,-538,-202
271,-276,-57,1023,-131,-604,-190
272,-279,-46,1019,-256,-655,-190
273,-268,-28,995,-348,-661,-167
274,-262,-38,1016,-362,-588,-241
275,-272,-35,1024,-348,-415,-319
276,-251,-31,1017,-301,-356,-403
277,-243,-31,1038,-165,-315,-487
278,-244,-27,1049,-108,-333,-565
279,-253,-32,1053,-112,-366,-631
280,-247,1,1032,-178,-422,-633
281,-258,1,1036,-254,-413,-598
282,-256,6,1025,-209,-317,-522
283,-245,10,1055,-61,-334,-477
284,-224,0,1055,113,-368,-497
285,-239,-21,1089,109,-336,-563
286,-229,-9,1114,-28,-250,-577
287,-229,-6,1105,-235,-325,-631
288,-243,18,1086,-379,-432,-655
289,-238,13,1035,-342,-524,-631
290,-248,-12,1005,-211,-538,-604
291,-237,-25,995,-88,-508,-649
292,-237,-4,982,27,-383,-780
293,-241,-4,980,50,-254,-831
294,-229,6,1023,48,-153,-831
295,-213,18,1048,27,-86,-829
296,-200,28,1052,-2,-114,-844
297,-210,26,1061,1,-215,-842
298,-204,25,1043,-38,-315,-803
299,-210,21,1014,-159,-333,-788
300,-218,-11,994,-252,-352,-790
301,-209,-14,982,-260,-348,-831
302,-214,1,980,-202,-286,-922
303,-189,5,967,-98,-206,-938
304,-184,14,958,-6,-155,-961
305,-179,19,977,41,-118,-983
306,-171,34,998,3,-88,-958
307,-163,38,999,-81,-112,-934
308,-159,43,1001,-133,-180,-930
309,-184,47,980,-120,-227,-911
310,-189,23,973,-106,-223,-881
311,-206,5,964,-63,-176,-864
312,-199,26,976,-2,-79,-905
313,-208,13,965,9,37,-917
314,-224,24,1001,56,134,-877
315,-157,1,1000,121,203,-836
316,-178,16,1039,175,103,-946
317,-193,4,1026,119,-75,-967
318,-192,5,1010,72,-116,-942
319,-183,2,1001,13,-141,-928
320,-197,14,989,-20,-178,-922
321,-196,12,972,21,-147,-907
322,-209,13,983,128,-94,-883
323,-196,12,964,228,7,-905
324,-206,35,1003,279,113,-903
325,-195,22,997,240,193,-840
326,-200,-3,1039,179,218,-844
327,-209,-5,1038,66,201,-907
328,-187,18,1022,-38,144,-954
329,-200,28,1024,-20,50,-987
330,-208,18,1017,50,-61,-926
331,-212,23,1008,191,-79,-899
332,-200,35,1023,341,-42,-889
333,-198,8,1016,351,-8,-922
334,-199,22,1037,244,0,-932
335,-189,45,1050,74,23,-961
336,-195,52,1036,-65,48,-946
337,-187,65,1019,-77,19,-924
338,-189,57,1029,74,-34,-917
339,-204,47,1023,238,-65,-877
340,-201,61,1011,330,-86,-858
341,-201,54,1017,369,-67,-852
342,-190,66,1024,333,-16,-856
343,-178,69,1020,257,11,-834
344,-191,62,1006,199,39,-848
345,-186,64,1027,132,56,-842
346,-188,66,1037,66,56,-844
347,-177,89,1049,13,13,-840
348,-182,98,1046,0,-49,-827
349,-179,110,1040,62,-104,-782
350,-180,103,1037,160,-165,-768
351,-191,94,1033,208,-182,-745
352,-208,73,1017,187,-124,-719
353,-210,56,998,93,-12,-696
354,-206,48,987,52,80,-672
355,-202,61,1010,68,142,-684
356,-199,47,1032,117,125,-706
357,-194,69,1060,177,50,-727
358,-186,81,1080,191,-20,-737
359,-195,73,1080,140,-59,-686
360,-188,72,1069,101,-120,-637
361,-201,64,1039,101,-143,-606
362,-185,55,1014,105,-127,-592
363,-197,49,1014,105,-81,-581
364,-203,41,981,134,-20,-557
365,-199,54,1019,210,17,-596
366,-201,59,1031,246,54,-604
367,-183,59,1060,222,64,-602
368,-185,73,1076,160,5,-586
369,-210,59,1036,93,-86,-553
370,-206,35,1032,80,-143,-522
371,-205,44,1010,101,-155,-526
372,-195,39,1024,93,-145,-514
373,-197,42,1000,101,-127,-506
374,-194,54,1013,126,-118,-510
375,-197,42,1019,144,-53,-508
376,-192,49,1012,126,-10,-500
377,-204,39,1020,93,11,-543
378,-196,41,1022,15,17,-545
379,-192,38,1025,-24,21,-530
380,-181,32,1031,-14,-2,-532
381,-187,28,1018,64,-77,-522
382,-199,38,1014,179,-120,-514
383,-204,35,1020,175,-114,-465
384,-202,24,1007,173,-94,-420
385,-192,13,997,191,-65,-430
386,-197,13,996,169,-12,-456
387,-190,21,1011,107,21,-456
388,-201,32,1017,31,13,-497
389,-197,32,1018,19,-28,-497
390,-223,31,1010,62,-67,-479
391,-182,30,1014,72,-20,-368
392,-174,17,990,115,-8,-458
393,-211,13,1012,183,-137,-520
394,-210,9,1009,255,-98,-508
395,-202,11,1005,273,-42,-524
396,-200,3,1014,193,-26,-559
397,-192,17,1015,99,13,-579
398,-193,21,1012,76,5,-588
399,-202,31,1007,162,-8,-584
400,-207,33,1027,269,-32,-540
401,-208,25,1032,302,-26,-516
402,-204,9,1038,248,-28,-495
403,-208,8,1037,183,-30,-514
404,-221,-2,1031,152,-59,-534
405,-219,-6,1036,156,-65,-553
406,-221,-3,1022,123,-55,-586
407,-214,-2,1030,44,-4,-600
408,-207,13,1023,-63,56,-659
409,-210,1,1021,-206,105,-692
410,-213,2,991,-229,87,-663
411,-213,5,995,-94,50,-672
412,-205,-1,1017,13,64,-676
413,-206,-16,1027,-43,78,-668
414,-209,-7,1020,-204,93,-665
415,-196,6,992,-286,87,-641
416,-186,5,994,-219,74,-592
417,-202,8,973,-61,64,-557
418,-203,24,1001,107,89,-514
419,-177,22,1019,222,171,-581
420,-208,27,1044,146,80,-637
421,-192,34,1015,5,103,-588
422,-196,34,1018,-120,115,-575
423,-199,9,1014,-147,74,-555
424,-218,0,1008,-77,58,-551
425,-206,-10,1006,27,54,-565
426,-226,-10,1018,128,42,-604
427,-229,-13,1027,193,17,-676
428,-214,19,1029,115,48,-739
429,-220,20,1015,-55,58,-727
430,-213,34,996,-75,27,-717
431,-210,37,1005,5,7,-672
432,-216,21,1005,123,-47,-629
433,-202,36,1019,248,-77,-622
434,-223,29,1026,251,-86,-637
435,-214,34,1022,191,-77,-643
436,-212,44,1003,101,-6,-668
437,-215,53,970,-16,42,-678
438,-213,59,989,-47,107,-698
439,-193,72,967,-40,162,-708
440,-195,71,991,7,185,-694
441,-192,83,1015,111,181,-676
442,-188,103,1041,181,150,-657
443,-185,105,1050,189,91,-639
444,-179,124,1038,150,3,-649
445,-194,120,1026,70,-14,-631
446,-190,113,1028,7,-4,-598
447,-192,112,1006,-24,37,-579
448,-196,119,991,-65,97,-577
449,-192,136,1011,-38,123,-532
450,-182,141,1003,27,150,-489
451,-183,135,1021,64,146,-436
452,-192,124,1020,66,128,-387
453,-181,131,1020,44,125,-354
454,-196,120,1016,21,109,-325
455,-205,109,1016,25,64,-299
456,-199,111,1035,0,42,-303
457,-191,106,1006,-53,37,-292
458,-194,112,995,-49,54,-282
459,-193,121,980,21,82,-237
460,-210,117,982,115,138,-200
461,-197,118,1011,146,185,-159
462,-211,111,1025,99,201,-112
463,-222,86,1038,72,203,-79
464,-212,71,1043,93,167,-67
465,-231,66,1056,82,134,-77
466,-222,53,1047,25,93,-69
467,-231,53,1051,-18,76,-79
468,-228,60,1044,-8,62,-102
469,-223,75,1044,1,58,-98
470,-216,77,1017,-10,66,-65
471,-205,82,1044,3,58,-28
472,-210,80,1030,9,72,9
473,-225,64,1017,60,72,54
474,-231,40,1037,76,85,54
475,-235,17,1054,9,103,31
476,-240,5,1041,-40,123,33
477,-235,16,1055,-42,91,5
478,-248,8,1074,-2,48,-24
479,-239,24,1072,21,1,-71
480,-240,37,1052,-2,-28,-67
481,-234,44,1056,-57,-53,-16
482,-244,40,1021,-94,-63,21
483,-241,29,1014,-61,-24,64
484,-245,10,1027,-6,27,64
485,-244,-5,1054,78,48,54
486,-244,-13,1063,136,52,27
487,-257,-8,1107,138,21,3
488,-254,-13,1114,126,-40,-4
489,-269,-7,1119,83,-77,-30
490,-271,-13,1139,62,-81,-28
491,-267,13,1207,123,-65,-43
492,-274,39,1294,248,-71,-32
493,-269,78,1381,433,-108,11
494,-282,94,1525,582,-118,29
495,-306,112,1665,677,-45,44
496,-340,121,1860,777,-30,85
497,-355,122,2048,796,-118,103
498,-397,121,2048,763,-436,125
499,-437,106,2048,687,-887,175
500,-508,80,2048,519,-1274,103
501,-546,55,2048,437,-1674,80
502,-561,75,2048,326,-2004,121
503,-571,71,2048,105,-2350,15
504,-579,106,2048,-127,-2573,29
505,-584,120,2048,-237,-2782,31
506,-566,139,2048,-241,-2981,56
507,-560,133,2048,-276,-3303,103
508,-574,144,1966,-319,-3754,146
509,-585,90,1814,-383,-4184,189
510,-583,53,1602,-461,-4491,210
511,-553,33,1397,-506,-4668,130
512,-476,46,1211,-571,-4772,68
513,-441,59,993,-667,-4792,9
514,-376,93,847,-702,-4735,0
515,-308,110,722,-793,-4547,15
516,-216,137,560,-940,-4420,42
517,-153,120,403,-1002,-4301,103
518,-79,83,260,-950,-4167,195
519,-26,92,154,-694,-4004,146
520,61,93,123,-340,-3831,80
521,124,142,129,-88,-3614,42
522,162,158,124,-22,-3461,160
523,187,108,53,19,-3358,318
524,201,43,-9,234,-3208,464
525,239,11,-10,501,-2995,417
526,279,13,3,423,-2774,353
527,342,61,-27,66,-2547,347
528,393,90,-83,-250,-2405,283
529,464,194,-185,-377,-2237,240
530,506,272,-319,-153,-2061,339
531,527,290,-418,281,-1790,533
532,531,334,-479,613,-1389,675
533,508,282,-526,697,-940,894
534,477,223,-503,673,-440,1060
535,480,187,-468,722,54,1072
536,453,120,-447,740,353,1109
537,453,82,-438,675,638,1099
538,496,114,-432,507,1078,933
539,532,181,-420,390,1417,804
540,537,219,-439,271,1728,806
541,528,250,-428,361,1953,892
542,466,263,-420,603,2210,998
543,373,200,-387,839,2517,1197
544,257,111,-318,1072,2919,1335
545,168,-14,-197,1162,3408,1316
546,85,-111,23,1158,3808,1220
547,-22,-119,221,1177,4035,968
548,-106,-85,455,1097,4166,726
549,-182,-76,584,750,4212,593
550,-231,-72,687,486,4138,558
551,-263,-55,835,328,4134,474
552,-279,-14,1046,328,4146,447
553,-282,-9,1215,408,4154,544
554,-354,-47,1308,587,4025,632
555,-388,-69,1439,777,3919,623
556,-402,-27,1573,917,4007,478
557,-400,-21,1704,849,4041,416
558,-377,7,1804,525,3914,386
559,-423,-20,1866,279,3705,326
560,-441,0,1961,322,3505,267
561,-487,7,2042,257,3214,193
562,-495,-29,2012,-14,2865,228
563,-490,-46,1969,-209,2556,195
564,-481,-24,1915,-284,2345,113
565,-469,-2,1921,-319,2185,25
566,-414,26,1913,-348,2062,-28
567,-395,69,1905,-381,1847,-118
568,-376,135,1902,-370,1548,-81
569,-388,146,1932,-272,1294,21
570,-404,163,2010,-182,1083,111
571,-426,149,2048,-94,888,189
572,-441,131,2048,5,679,250
573,-504,149,2048,-22,544,132
574,-497,163,2048,-186,347,76
575,-540,224,2048,-383,-16,5
576,-526,240,2048,-639,-518,37
577,-535,245,2048,-944,-1165,125
578,-611,258,2048,-1061,-1838,210
579,-544,217,2048,-817,-2237,357
580,-596,231,2048,-645,-2766,310
581,-586,227,2048,-739,-2985,306
582,-578,241,2048,-895,-3176,283
583,-572,263,2048,-1030,-3495,271
584,-572,239,2048,-1149,-3829,314
585,-564,223,1977,-1172,-4209,357
586,-552,191,1799,-1284,-4563,443
587,-514,158,1606,-1444,-4918,537
588,-510,114,1371,-1436,-5284,580
589,-464,73,1164,-1295,-5483,560
590,-401,41,954,-1143,-5520,517
591,-344,34,806,-1051,-5436,421
592,-250,24,657,-1184,-5250,433
593,-190,-12,493,-1500,-5061,378
594,-106,-18,347,-1752,-4905,347
595,-63,-14,231,-1721,-4737,304
596,1,-16,162,-1497,-4497,332
597,78,-17,116,-1190,-4284,386
598,127,-41,29,-913,-4213,482
599,163,-64,-85,-635,-4143,544
600,221,-97,-173,-364,-3899,615
601,263,-96,-206,-280,-3567,587
602,321,-103,-232,-258,-3213,560
603,352,-126,-261,-260,-2889,517
604,399,-97,-308,-334,-2557,396
605,470,-32,-346,-567,-2233,375
606,529,19,-409,-649,-2006,400
607,568,77,-490,-491,-1834,425
608,599,94,-551,-137,-1624,498
609,596,90,-599,119,-1262,675
610,593,29,-576,333,-756,802
611,587,-20,-562,427,-208,804
612,575,-58,-542,468,224,802
613,574,-35,-508,578,650,800
614,562,-3,-465,626,1029,732
615,528,47,-408,722,1255,779
616,508,45,-389,1042,1423,900
617,460,38,-334,1322,1644,964
618,418,19,-302,1492,1896,1041
619,384,-7,-266,1619,2195,1109
620,318,-1,-204,1677,2552,1076
621,236,-40,-125,1625,2898,998
622,174,14,-39,1574,3214,935
623,157,21,67,1652,3523,906
624,120,48,178,1843,3648,923
625,52,46,307,2056,3714,951
626,32,72,437,2267,3839,947
627,-51,120,576,2287,4000,892
628,-125,122,692,2078,4126,908
629,-163,116,786,1826,4230,960
630,-228,69,842,1548,4291,912
631,-293,16,920,1417,4404,871
632,-301,19,1001,1175,4546,855
633,-357,53,1113,1167,4660,792
634,-414,62,1281,1468,4701,761
635,-456,53,1425,1562,4724,761
636,-482,74,1591,1410,4685,679
637,-464,66,1762,968,4628,664
638,-473,37,1799,468,4347,728
639,-510,-7,1798,285,3990,736
640,-537,-29,1797,515,3675,726
641,-547,-81,1806,837,3412,613
642,-536,-61,1822,871,3230,476
643,-507,-71,1813,568,3111,347
644,-467,-84,1774,369,2978,322
645,-465,-38,1777,335,2820,128
646,-476,19,1850,193,2701,33
647,-447,28,1887,-63,2537,76
648,-425,21,1838,-266,2226,87
649,-471,-9,1775,-346,1851,33
650,-424,-20,1721,-315,1621,85
651,-396,-26,1662,-155,1437,64
652,-367,-11,1631,25,1179,-47
653,-360,27,1558,138,986,-73
654,-374,48,1519,134,865,-204
655,-379,54,1483,-26,843,-229
656,-340,51,1446,-233,875,-180
657,-314,68,1444,-375,814,-262
658,-333,61,1411,-489,638,-258
659,-357,44,1386,-463,498,-176
660,-308,31,1351,-344,410,-86
661,-302,13,1331,-153,230,-57
662,-310,19,1313,82,46,-129
663,-321,18,1298,205,-88,-168
664,-322,35,1255,148,-120,-145
665,-312,52,1251,-94,-141,-112
666,-302,54,1202,-368,-145,-73
667,-292,54,1168,-510,-170,-42
668,-269,47,1126,-459,-151,-81
669,-263,57,1126,-354,-145,-88
670,-269,40,1142,-176,-202,-90
671,-283,29,1122,7,-299,-116
672,-284,-4,1101,52,-383,-135
673,-320,-27,1068,48,-399,-186
674,-292,-36,1034,-65,-350,-188
675,-285,-23,1015,-194,-286,-241
676,-287,-33,1006,-268,-250,-254
677,-281,-37,1016,-319,-233,-250
678,-263,-26,997,-321,-254,-282
679,-271,-21,1029,-350,-280,-293
680,-257,-24,997,-399,-280,-258
681,-248,-26,983,-401,-313,-237
682,-244,-19,968,-292,-331,-241
683,-229,-23,980,-196,-295,-211
684,-242,-41,980,-98,-276,-202
685,-244,-37,1000,-49,-266,-208
686,-244,-42,987,-127,-233,-204
687,-243,-52,998,-241,-217,-227
688,-256,-52,966,-321,-188,-276
689,-249,-68,953,-334,-131,-331
690,-250,-48,977,-272,-77,-375
691,-244,-44,996,-161,-71,-418
692,-251,-34,994,-61,-81,-450
693,-232,-19,1015,-32,-81,-491
694,-237,0,1031,-163,-112,-502
695,-236,14,1013,-313,-127,-502
696,-223,8,999,-299,-131,-485
697,-232,5,973,-196,-159,-475
698,-239,-10,961,-59,-141,-481
699,-248,-12,956,33,-34,-502
700,-250,-13,975,25,74,-514
701,-232,2,1011,-14,140,-524
702,-240,12,1000,-102,130,-545
703,-233,34,1002,-167,62,-542
704,-238,36,978,-198,19,-510
705,-240,11,986,-196,-14,-450
706,-257,-11,1011,-83,-57,-415
707,-261,-25,1004,29,-61,-415
708,-260,-48,1026,107,5,-465
709,-248,-56,1039,82,89,-565
710,-238,-29,1054,-57,134,-639
711,-238,-8,1038,-206,166,-700
712,-213,25,1050,-280,183,-711
713,-201,45,1044,-266,144,-663
714,-225,32,1058,-124,29,-600
715,-238,17,1046,44,-67,-567
716,-248,4,1051,62,-124,-522
717,-250,-19,1072,-4,-127,-497
718,-245,-38,1070,-98,-100,-536
719,-242,-27,1060,-182,-49,-569
720,-258,-24,1038,-163,-26,-604
721,-246,-12,1053,-96,33,-637
722,-234,-2,1059,-65,54,-635
723,-238,0,1073,-86,19,-631
724,-233,-12,1048,-143,-22,-622
725,-233,-28,1031,-180,-69,-602
726,-250,-31,1024,-100,-110,-622
727,-240,-32,1007,29,-133,-622
728,-261,-20,999,152,-122,-631
729,-258,-36,1031,144,-71,-629
730,-241,-45,999,54,-6,-639
731,-240,-33,1016,-40,5,-680
732,-234,-17,1011,-102,29,-657
733,-240,-20,1033,-86,33,-651
734,-228,-18,1045,-22,15,-635
735,-236,-13,1051,54,-43,-612
736,-235,-24,1052,62,-98,-620
737,-252,-36,1048,21,-155,-631
738,-245,-44,1021,-8,-194,-676
739,-250,-33,989,-40,-190,-684
740,-237,-47,945,11,-145,-708
741,-246,-34,981,105,-92,-731
742,-236,-20,994,156,-40,-741
743,-229,-11,1033,97,3,-711
744,-235,-13,1011,-18,1,-698
745,-213,1,1014,-127,-40,-670
746,-217,-1,1002,-149,-77,-661
747,-243,1,984,-84,-122,-622
748,-214,1,979,56,-108,-543
749,-258,-6,984,191,-135,-567
750,-243,-14,978,259,-122,-573
751,-240,-21,994,265,-24,-592
752,-227,-25,1010,242,56,-596
753,-227,-28,1033,156,74,-590
754,-225,-33,1029,64,48,-647
755,-231,-23,1045,0,0,-670
756,-228,-24,1031,15,-71,-678
757,-232,-14,1005,93,-120,-659
758,-235,-7,1016,183,-147,-624
759,-235,-32,1015,208,-153,-596
760,-238,-28,1016,187,-143,-618
761,-225,-7,1017,89,-92,-624
762,-231,-13,1000,33,-55,-620
763,-220,3,1020,33,-42,-635
764,-221,6,1011,1,-36,-637
765,-215,0,1031,11,-43,-622
766,-223,-9,1052,46,-53,-606
767,-222,-19,1031,78,-100,-563
768,-238,-25,1018,126,-141,-553
769,-235,-33,1024,160,-145,-583
770,-234,-31,1015,126,-100,-579
771,-229,-15,1012,68,-90,-567
772,-226,-20,1019,7,-73,-561
773,-219,-33,1010,13,-77,-569
774,-222,-24,1018,64,-69,-600
775,-225,-18,1003,76,-63,-592
776,-214,-27,1002,123,-30,-573
777,-225,-35,1027,148,-22,-584
778,-221,-29,1019,169,-57,-618
779,-222,-33,1015,173,-94,-616
780,-228,-48,1009,193,-127,-616
781,-227,-50,994,191,-106,-633
782,-224,-43,1016,144,-63,-633
783,-235,-41,1028,126,-57,-624
784,-216,-32,1029,80,-65,-627
785,-227,-30,1002,13,-71,-608
786,-229,-43,995,9,-83,-592
787,-222,-42,994,52,-90,-584
788,-223,-35,1010,169,-114,-567
789,-223,-50,1006,248,-149,-581
790,-227,-47,996,281,-170,-620
791,-234,-48,1002,148,-124,-674
792,-226,-54,971,-26,-40,-702
793,-220,-49,974,-75,35,-739
794,-202,-29,976,-18,62,-733
795,-193,-34,993,107,42,-713
796,-215,-28,1016,185,21,-674
797,-214,-44,1023,222,17,-647
798,-222,-39,1004,177,-8,-627
799,-217,-50,999,166,-43,-629
800,-228,-44,991,158,-57,-641
801,-231,-67,962,136,-57,-637
802,-236,-58,971,128,21,-688
803,-223,-66,981,72,78,-735
804,-223,-65,968,21,91,-774
805,-232,-51,987,-20,97,-819
806,-214,-44,982,-43,130,-807
807,-211,-17,1005,54,109,-795
808,-220,-21,1025,199,42,-750
809,-215,-31,1028,251,-16,-690
810,-224,-30,1033,222,-57,-690
811,-231,-32,1008,126,-73,-696
812,-219,-20,1014,42,-45,-670
813,-220,-24,976,7,-28,-661
814,-214,-18,987,44,-14,-686
815,-229,-14,972,173,33,-725
816,-223,-8,987,292,117,-737
817,-206,-2,1009,300,177,-743
818,-195,16,1028,246,167,-758
819,-208,33,1048,201,109,-754
820,-201,46,1032,167,76,-696
821,-209,46,1024,109,44,-645
822,-222,29,1016,70,7,-588
823,-214,9,1014,56,-8,-522
824,-224,-1,1011,85,11,-565
825,-240,-12,1007,189,44,-583
826,-241,-8,1021,271,91,-604
827,-227,12,1024,275,150,-602
828,-224,16,1055,224,160,-596
829,-227,23,1036,140,128,-590
830,-220,12,1059,107,97,-551
831,-223,3,1028,99,58,-514
832,-226,-6,1033,130,9,-510
833,-226,-1,1044,169,-4,-485
834,-230,20,1063,152,-4,-520
835,-222,26,1057,144,-18,-569
836,-221,25,1033,91,-4,-637
837,-196,56,1025,58,17,-659
838,-194,76,1039,5,37,-625
839,-190,93,1046,17,17,-588
840,-197,91,1031,42,-16,-530
841,-193,85,1015,21,-38,-430
842,-195,64,1014,11,-49,-387
843,-205,72,997,35,-16,-387
844,-207,68,1002,52,56,-387
845,-216,68,1013,64,136,-389
846,-217,59,1043,39,193,-375
847,-200,76,1049,-10,205,-329
848,-200,70,1059,-38,140,-290
849,-199,65,1045,-47,70,-233
850,-209,57,1025,-34,48,-198
851,-211,67,1029,7,25,-215
852,-216,60,1003,60,11,-198
853,-221,69,1022,60,44,-176
854,-216,51,1006,21,89,-135
855,-228,33,1016,-14,156,-122
856,-225,26,1010,-6,201,-114
857,-223,25,1030,35,207,-96
858,-213,25,1051,85,146,-88
859,-216,32,1029,152,48,-79
860,-229,30,1045,132,5,-84
861,-220,39,1030,85,-22,-86
862,-222,38,1019,25,-49,-77
863,-223,26,1018,-4,-14,-47
864,-234,31,1021,15,11,-24
865,-236,20,1015,48,42,15
866,-236,4,1024,85,72,39
867,-232,-1,1031,119,74,39
868,-233,-22,1049,82,103,21
869,-237,-16,1036,35,91,1
870,-248,-28,1055,-10,41,-20
871,-237,-20,1041,-18,41,-47
872,-238,-25,1044,-12,1,-26
873,-240,-16,1039,-4,-24,-16
874,-237,-36,1017,1,-18,-6
875,-244,-25,1047,-18,19,-38
876,-235,-31,1025,-79,56,-55
877,-228,-41,1023,-131,68,-55
878,-236,-35,1031,-147,72,-69
879,-244,-40,1019,-125,48,-67
880,-235,-44,1016,-84,27,-51
881,-236,-48,1025,-30,5,-57
882,-234,-45,1032,-4,-20,-65
883,-243,-38,1036,-2,-32,-71
884,-241,-15,1003,13,-47,-86
885,-231,-6,995,21,-47,-98
886,-231,-8,990,-12,-10,-67
887,-231,-13,988,-32,42,-14
888,-227,-17,1010,-61,87,-20
889,-236,-28,1017,-92,89,-20
890,-227,-45,1032,-49,44,-16
891,-241,-47,1032,-14,9,-47
892,-237,-36,1019,0,-6,-92
893,-234,-22,1013,-6,-14,-116
894,-231,-9,1013,-42,7,-108
895,-216,1,1027,-71,31,-67
896,-221,5,1038,-88,66,-47
897,-218,6,1067,-178,144,-26
898,-228,-1,1098,-256,226,25
899,-154,9,1125,-243,312,91
900,-200,59,1215,-94,251,-40
901,-213,70,1351,107,189,64
902,-249,78,1510,335,175,109
903,-282,61,1670,494,31,140
904,-306,36,1783,472,-167,201
905,-333,4,1872,367,-311,257
906,-392,-21,1995,294,-444,253
907,-414,-47,2048,244,-542,271
908,-464,-62,2048,312,-721,218
909,-532,-74,2048,437,-899,177
910,-567,-61,2048,580,-1135,113
911,-581,-72,2048,601,-1616,21
912,-653,-35,2048,480,-2057,48
913,-652,-39,2048,291,-2661,97
914,-677,-5,2048,41,-3297,91
915,-707,0,2048,-133,-3967,85
916,-739,3,2048,-163,-4463,21
917,-733,-2,2024,-45,-4823,-8
918,-728,-28,1846,78,-5032,-86
919,-680,-27,1674,58,-5243,-135
920,-657,45,1492,-268,-5405,-202
921,-605,83,1267,-766,-5584,-165
922,-551,116,996,-1049,-5725,-96
923,-495,112,676,-1137,-5788,27
924,-408,86,431,-1065,-5682,44
925,-315,105,213,-805,-5372,23
926,-249,85,68,-510,-5084,15
927,-126,90,-56,-286,-4786,89
928,-18,124,-129,-96,-4479,138
929,58,134,-249,46,-4293,292
930,131,96,-352,240,-4069,371
931,217,76,-408,458,-3752,429
932,275,64,-418,562,-3385,400
933,324,91,-417,480,-3079,357
934,368,146,-393,324,-2729,304
935,411,161,-407,169,-2379,361
936,472,172,-443,72,-2092,414
937,487,221,-464,56,-1790,400
938,506,223,-456,201,-1469,525
939,525,240,-458,345,-1116,673
940,533,230,-459,398,-723,781
941,523,215,-446,367,-356,849
942,545,214,-429,238,-6,935
943,529,193,-433,240,296,1035
944,500,172,-417,365,673,1082
945,464,144,-362,439,1083,1115
946,447,116,-319,443,1396,1173
947,400,112,-312,525,1634,1203
948,346,105,-311,875,1849,1212
949,306,98,-256,1232,2158,1205
950,271,66,-170,1406,2585,1177
951,207,52,-85,1347,2953,1107
952,137,10,-3,1189,3267,1044
953,47,-26,70,978,3558,970
954,-46,-74,131,687,3839,910
955,-112,-111,167,556,4011,888
956,-156,-98,238,794,4085,785
957,-210,-51,396,1275,4253,671
958,-249,-31,547,1652,4386,693
959,-295,-21,702,1730,4482,695
960,-354,-45,816,1431,4607,609
961,-374,-66,899,968,4667,580
962,-424,-44,1020,566,4755,451
963,-451,-37,1157,375,4785,443
964,-463,-93,1274,501,4652,494
965,-489,-114,1414,771,4544,439
966,-499,-69,1593,843,4554,310
967,-530,11,1792,660,4488,171
968,-561,22,1940,347,4347,207
969,-536,54,2034,64,4150,257
970,-547,50,2048,-170,3826,314
971,-546,28,2048,-96,3417,349
972,-543,34,2048,171,3041,347
973,-565,63,2048,480,2750,304
974,-572,90,2048,699,2492,285
975,-576,105,2048,697,2242,240
976,-588,147,2048,429,1968,193
977,-594,181,2048,125,1625,113
978,-607,218,2048,-102,1154,95
979,-648,214,2048,-184,554,89
980,-642,247,2048,-235,-36,109
981,-641,279,2048,-389,-596,97
982,-633,309,2048,-479,-1221,173
983,-650,325,2048,-483,-1809,203
984,-663,318,2048,-520,-2309,265
985,-669,299,2048,-555,-2790,343
986,-671,324,2048,-575,-3163,285
987,-660,348,2048,-770,-3504,275
988,-640,375,2048,-1030,-3938,335
989,-651,374,2048,-1209,-4442,375
990,-664,371,2048,-1372,-4909,464
991,-647,344,1996,-1592,-5254,533
992,-641,307,1748,-1743,-5583,615
993,-630,287,1509,-1782,-5776,587
994,-605,274,1265,-1831,-5792,611
995,-553,282,1056,-1817,-5719,603
996,-493,292,899,-1788,-5563,523
997,-441,295,774,-1784,-5467,607
998,-368,263,611,-1680,-5463,796
999,-322,204,476,-1489,-5475,908
1000,-271,121,347,-1346,-5485,1011
1001,-218,66,210,-1260,-5424,1072
1002,-153,50,70,-1098,-5311,1037
1003,-122,55,-67,-866,-5032,1054
1004,-51,13,-124,-497,-4667,1183
1005,49,-4,-194,-79,-4344,1203
1006,109,-48,-296,89,-4133,1164
1007,172,-52,-343,64,-3936,1175
1008,258,-59,-381,95,-3690,1191
1009,319,-47,-432,212,-3418,1179
1010,377,-59,-478,308,-3137,1187
1011,412,-57,-532,345,-2885,1193
1012,402,-113,-602,330,-2516,1226
1013,444,-128,-649,326,-2024,1189
1014,462,-155,-647,369,-1532,1121
1015,496,-160,-620,492,-1086,1068
1016,537,-113,-619,531,-670,1011
1017,562,-83,-618,611,-356,1050
1018,573,-117,-613,724,0,1126
1019,554,-170,-644,857,335,1148
1020,516,-201,-615,1001,720,1083
1021,463,-225,-562,1123,1134,1019
1022,408,-236,-507,1238,1490,947
1023,338,-252,-451,1289,1824,841
1024,254,-270,-421,1333,2128,767
1025,217,-236,-353,1474,2460,601
1026,180,-203,-262,1660,2787,478
1027,176,-169,-152,1816,3101,443
1028,176,-141,-96,1777,3347,378
1029,154,-69,-53,1662,3523,322
1030,106,16,41,1593,3796,246
1031,69,85,168,1566,4095,261
1032,20,145,290,1552,4351,353
1033,-25,159,412,1640,4476,443
1034,-49,147,527,1798,4607,578
1035,-60,126,634,1876,4765,812
1036,-144,132,753,1873,4892,894
1037,-256,227,936,1716,5017,873
1038,-348,233,1151,1318,5205,1033
1039,-411,217,1256,650,5349,1277
1040,-456,202,1312,11,5292,1416
1041,-499,126,1442,-299,5210,1539
1042,-507,37,1492,-165,5201,1599
1043,-505,-37,1596,292,5041,1402
1044,-529,-40,1729,783,4736,1035
1045,-555,-11,1818,843,4507,708
1046,-575,0,1886,523,4224,417
1047,-520,58,1895,1,3976,171
1048,-431,113,1840,-510,3716,103
1049,-420,138,1768,-762,3343,261
1050,-468,173,1764,-438,3080,304
1051,-477,172,1852,195,3076,404
1052,-485,113,1974,736,2931,593
1053,-517,20,2029,828,2695,605
1054,-531,-29,2048,480,2580,529
1055,-529,-93,2037,-211,2435,511
1056,-493,-99,1994,-823,2203,386
1057,-496,-59,1924,-1014,1935,289
1058,-493,-45,1892,-766,1632,236
1059,-494,-53,1906,-186,1285,207
1060,-496,-59,1902,326,1023,228
1061,-472,-97,1853,460,679,199
1062,-494,-122,1797,177,500,115
1063,-462,-120,1702,-168,376,11
1064,-452,-106,1610,-538,218,-67
1065,-430,-117,1535,-813,74,-116
1066,-413,-85,1453,-858,-36,-168
1067,-400,-81,1390,-698,-170,-209
1068,-380,-72,1313,-418,-333,-245
1069,-371,-41,1256,-182,-446,-290
1070,-355,-39,1214,-69,-516,-286
1071,-328,-31,1178,-84,-577,-286
1072,-314,-23,1117,-184,-618,-303
1073,-284,-11,1037,-293,-649,-292
1074,-276,6,984,-379,-649,-284
1075,-267,7,932,-381,-631,-258
1076,-266,7,879,-309,-583,-204
1077,-262,5,857,-159,-506,-143
1078,-252,-14,874,27,-424,-139
1079,-263,-20,919,205,-366,-172
1080,-262,-21,937,261,-344,-163
1081,-250,-34,940,195,-395,-135
1082,-244,-44,968,111,-461,-190
1083,-252,-36,927,25,-534,-192
1084,-271,-33,932,-51,-553,-176
1085,-257,-26,926,-145,-477,-194
1086,-301,-19,923,-194,-352,-176
1087,-228,-44,867,-174,-161,-127
1088,-260,-32,900,-36,-118,-323
1089,-261,-23,945,-47,-116,-338
1090,-241,-18,987,-49,-40,-350
1091,-236,-11,1003,-40,-116,-397
1092,-242,5,1018,-45,-231,-432
1093,-250,2,1006,-43,-276,-393
1094,-240,-6,993,-18,-305,-393
1095,-225,3,985,-26,-323,-374
1096,-249,5,976,-20,-340,-295
1097,-232,-10,963,44,-256,-288
1098,-231,2,966,56,-241,-299
1099,-243,-20,989,25,-172,-276
1100,-240,-10,995,-67,-92,-266
1101,-233,-14,1009,-108,-90,-329
1102,-232,-15,1002,-94,-100,-362
1103,-218,3,1007,-137,-86,-325
1104,-231,-16,1012,-161,-81,-346
1105,-216,-20,1014,-137,-92,-329
1106,-230,-14,1024,-84,-118,-362
1107,-225,-8,1019,-86,-106,-358
1108,-252,-19,1018,-92,-84,-352
1109,-252,-32,997,-149,-57,-315
1110,-215,-50,991,-157,15,-317
1111,-225,-57,1011,-73,48,-438
1112,-212,-52,1010,-49,50,-481
1113,-222,-36,1028,-6,3,-518
1114,-226,-18,1057,41,-69,-553
1115,-209,0,1046,62,-122,-547
1116,-213,-19,1021,50,-174,-536
1117,-218,-19,1010,1,-213,-516
1118,-207,-29,978,-49,-206,-530
1119,-214,-16,973,-75,-141,-528
1120,-221,-29,946,-28,-12,-543
1121,-214,-21,971,58,85,-555
1122,-221,-16,993,107,142,-577
1123,-210,-12,1023,136,140,-567
1124,-221,-13,1045,160,119,-579
1125,-207,-18,1048,97,60,-577
1126,-214,-23,1047,9,-28,-596
1127,-212,-3,1009,-47,-84,-600
1128,-196,-7,993,27,-100,-581
1129,-205,1,994,91,-112,-575
1130,-216,-7,961,162,-118,-581
1131,-218,-6,982,287,-69,-651
1132,-209,2,978,361,33,-680
1133,-211,6,1019,326,99,-647
1134,-203,8,1059,257,93,-627
1135,-219,1,1060,158,74,-622
1136,-216,-9,1041,3,21,-620
1137,-219,-8,982,-129,-12,-618
1138,-227,-7,948,-112,-42,-588
1139,-234,-25,953,91,-61,-600
1140,-224,-7,949,308,-63,-624
1141,-231,1,988,398,-20,-620
1142,-227,12,1040,382,48,-622
1143,-228,35,1063,279,93,-602
1144,-218,5,1062,76,154,-600
1145,-211,11,1044,-112,160,-596
1146,-224,31,1016,-217,119,-627
1147,-224,23,1042,-237,111,-604
1148,-220,17,1043,-194,111,-542
1149,-240,1,1015,-118,33,-536
1150,-248,-6,1015,27,-18,-569
1151,-243,-4,1019,130,1,-606
1152,-231,-18,1038,164,42,-641
1153,-222,4,1060,146,56,-643
1154,-239,-1,1059,39,39,-647
1155,-239,18,1045,-84,23,-663
1156,-225,13,1038,-198,27,-627
1157,-227,14,1042,-256,48,-612
1158,-234,5,1023,-250,19,-604
1159,-229,1,1011,-165,0,-590
1160,-243,-2,1020,-32,-26,-590
1161,-241,2,1035,66,-57,-610
1162,-236,12,1022,76,-49,-596
1163,-242,14,1012,41,-42,-588
1164,-236,11,1011,37,-16,-620
1165,-232,5,1004,-20,0,-629
1166,-222,23,1010,-94,35,-625
1167,-223,33,1009,-129,37,-577
1168,-220,8,1006,-69,5,-506
1169,-239,-2,1007,-4,-2,-520
1170,-227,-9,1015,54,11,-547
1171,-238,-12,1016,93,0,-569
1172,-229,-8,1020,66,-10,-579
1173,-224,12,1025,23,-20,-588
1174,-236,11,1021,-14,0,-579
1175,-229,17,1023,-10,29,-565
1176,-232,11,1008,25,-8,-528
1177,-229,3,1013,83,-34,-495
1178,-235,-10,1028,101,-22,-463
1179,-232,-21,1027,97,-45,-448
1180,-240,-20,988,130,-67,-467
1181,-235,-22,1004,97,-69,-475
1182,-241,-14,1008,62,-22,-471
1183,-228,-7,1035,33,1,-477
1184,-225,-7,1018,-51,41,-510
1185,-225,-10,996,-59,19,-489
1186,-236,-15,1005,23,-10,-475
1187,-229,-39,992,128,-10,-436
1188,-233,-46,1008,169,-4,-446
1189,-225,-50,1007,179,3,-485
1190,-236,-48,995,167,0,-506
1191,-223,-35,1019,128,13,-516
1192,-227,-19,1015,68,39,-516
1193,-222,-23,1011,27,31,-489
1194,-232,-34,1015,60,13,-481
1195,-233,-29,992,136,5,-467
1196,-233,-28,991,162,-6,-450
1197,-229,-39,1003,162,37,-477
1198,-226,-42,1035,138,76,-504
1199,-232,-36,1015,150,31,-522
1200,-242,-28,1009,187,-8,-528
1201,-241,-44,1001,205,-20,-526
1202,-234,-41,1007,179,-14,-540
1203,-235,-32,1008,105,-10,-557
1204,-233,-26,992,72,0,-559
1205,-235,-24,993,85,23,-551
1206,-238,-27,992,146,33,-508
1207,-243,-44,1008,201,56,-491
1208,-245,-39,1027,201,56,-500
1209,-238,-42,1025,167,58,-532
1210,-232,-31,1016,150,58,-557
1211,-238,-27,1014,181,27,-569
1212,-239,-23,1010,220,-18,-543
1213,-243,-49,1017,208,-38,-542
1214,-247,-43,1008,156,-34,-565
1215,-243,-41,1001,56,7,-579
1216,-240,-23,974,52,48,-590
1217,-235,-25,997,54,87,-602
1218,-240,-9,995,99,107,-604
1219,-229,11,1008,158,113,-579
1220,-220,-9,1023,193,103,-543
1221,-233,-23,1047,203,56,-538
1222,-250,-25,1023,167,15,-567
1223,-249,-30,1011,91,5,-590
1224,-244,-34,996,-2,19,-602
1225,-243,-32,994,-8,50,-616
1226,-244,-17,1009,27,70,-608
1227,-229,-10,1020,117,80,-602
1228,-234,-5,1045,160,78,-631
1229,-244,3,1043,89,82,-635
1230,-226,16,1043,-24,78,-629
1231,-232,17,1037,-102,58,-616
1232,-243,19,1029,-79,33,-606
1233,-244,16,1028,-32,11,-573
1234,-244,23,1047,0,13,-538
1235,-241,17,1048,-20,46,-551
1236,-228,32,1011,-30,56,-545
1237,-242,15,1056,-40,56,-522
1238,-237,20,1042,-43,62,-518
1239,-237,14,1030,-57,27,-499
1240,-250,21,1029,-106,11,-475
1241,-250,-4,1013,-127,3,-424
1242,-262,-25,996,-108,7,-397
1243,-268,-47,986,-67,21,-413
1244,-281,-50,999,-34,56,-434
1245,-274,-64,1035,-18,58,-450
1246,-268,-59,1031,-22,56,-499
1247,-281,-44,1030,-40,29,-532
1248,-257,-31,1025,-77,1,-504
1249,-251,-27,1008,-79,-28,-473
1250,-264,-34,995,-51,-47,-456
1251,-266,-53,997,-2,-32,-428
1252,-274,-70,1005,21,5,-428
1253,-268,-82,1011,-22,31,-458
1254,-271,-80,1004,-98,41,-510
1255,-264,-76,997,-157,58,-547
1256,-260,-66,1000,-167,68,-581
1257,-252,-57,1007,-125,46,-584
1258,-256,-58,1004,-45,9,-590
1259,-250,-28,1024,-18,21,-584
1260,-240,-32,1008,-34,25,-555
1261,-247,-33,1022,-24,-2,-540
1262,-240,-38,1010,-43,-8,-520
1263,-236,-31,1007,-94,1,-538
1264,-250,-37,996,-135,0,-563
1265,-240,-35,973,-124,7,-584
1266,-245,-26,1000,-77,46,-596
1267,-229,-11,1003,-77,58,-579
1268,-229,5,998,-71,37,-569
1269,-237,9,980,-45,29,-532
1270,-226,6,981,-36,37,-487
1271,-223,11,971,-59,62,-479
1272,-226,10,990,-86,68,-456
1273,-236,16,996,-77,89,-432
1274,-225,9,1002,-36,93,-403
1275,-228,0,1007,7,95,-399
1276,-227,3,1002,11,113,-413
1277,-236,-12,1027,-12,128,-387
1278,-236,5,1013,-8,109,-381
1279,-236,-2,1021,0,93,-383
1280,-234,9,1020,-4,87,-372
1281,-232,5,1015,-2,93,-336
1282,-229,5,1020,5,87,-299
1283,-234,-2,1011,31,52,-276
1284,-242,-6,1008,66,25,-235
1285,-250,-15,1002,97,42,-208
1286,-249,-9,1018,99,85,-225
1287,-249,-11,1031,87,99,-202
1288,-255,-21,1025,91,85,-208
1289,-257,-12,1025,68,58,-208
1290,-251,-22,1025,33,56,-204
1291,-238,-14,1022,-8,46,-190
1292,-240,-14,1006,-6,29,-145
1293,-245,-30,1003,50,7,-122
1294,-257,-32,1017,123,-4,-116
1295,-264,-37,1023,167,25,-120
1296,-253,-34,1031,156,60,-137
1297,-247,-44,1036,121,64,-157
1298,-250,-25,1048,68,70,-190
1299,-246,-6,1067,-22,58,-186
1300,-244,-13,1031,-57,5,-137
1301,-247,-7,1026,1,-65,-118
1302,-249,-20,1021,95,-84,-69
1303,-259,-33,1015,154,-73,-51
1304,-262,-40,1020,126,-40,-34
1305,-252,-34,1016,37,0,-49
1306,-250,-25,1021,-30,25,-77
1307,-251,-31,1029,-75,50,-92
1308,-258,-32,1012,-40,37,-90
1309,-258,-34,1041,-16,19,-104
1310,-256,-18,1025,-20,-2,-83
1311,-259,-23,1025,-14,-26,-59
1312,-264,-45,999,-34,-49,-14
1313,-268,-38,998,-20,-40,0
1314,-270,-41,1001,13,-28,3
1315,-266,-36,1026,37,3,-6
1316,-257,-43,1022,21,0,7
1317,-258,-47,1029,-20,11,-24
1318,-248,-47,1032,-69,9,-57
1319,-249,-51,1035,-116,5,-57
1320,-252,-45,1025,-129,1,-69
1321,-255,-34,1031,-102,-34,-42
1322,-267,-31,1028,-34,-53,3
1323,-269,-37,1044,5,-55,33
1324,-267,-50,1053,33,-40,48
1325,-265,-53,1083,37,-53,44
1326,-274,-51,1095,27,-75,52
1327,-274,-54,1133,66,-63,25
1328,-253,-34,1197,134,-63,-36
1329,-268,24,1275,205,-125,-94
1330,-282,64,1373,273,-186,-81
1331,-282,62,1464,330,-249,-36
1332,-294,81,1532,316,-327,25
1333,-318,84,1655,234,-383,76
1334,-333,89,1756,83,-424,125
1335,-357,69,1876,-12,-485,218
1336,-387,66,2011,113,-542,279
1337,-401,68,2048,308,-696,296
1338,-428,66,2048,523,-922,289
1339,-449,86,2048,585,-1243,314
1340,-489,73,2048,433,-1727,267
1341,-529,87,2048,117,-2356,257
1342,-565,73,2048,-313,-3075,339
1343,-611,60,2048,-584,-3651,421
1344,-623,52,2048,-547,-4008,417
1345,-640,24,2048,-506,-4315,433
1346,-641,12,2034,-491,-4608,421
1347,-637,10,1943,-499,-4831,375
1348,-625,16,1856,-635,-5004,296
1349,-584,26,1724,-965,-5145,222
1350,-564,73,1540,-1379,-5329,128
1351,-547,111,1370,-1667,-5532,97
1352,-503,103,1116,-1747,-5694,253
1353,-473,55,890,-1446,-5838,460
1354,-469,-37,672,-852,-5870,556
1355,-422,-95,493,-145,-5756,605
1356,-365,-138,354,220,-5514,603
1357,-274,-167,208,179,-5241,550
1358,-205,-152,73,-57,-4967,417
1359,-116,-147,-68,-352,-4690,347
1360,-9,-101,-196,-471,-4467,296
1361,111,-49,-352,-428,-4295,271
1362,185,-29,-507,-258,-4038,300
1363,262,9,-587,238,-3723,396
1364,365,21,-662,791,-3352,525
1365,418,38,-697,1197,-2952,582
1366,482,63,-724,1289,-2491,609
1367,538,76,-737,1080,-1995,718
1368,575,93,-740,787,-1547,859
1369,605,115,-764,548,-1141,962
1370,597,121,-803,607,-792,1052
1371,571,92,-836,931,-471,1183
1372,534,27,-814,1242,-6,1287
1373,515,-45,-792,1421,494,1330
1374,481,-91,-729,1519,982,1214
1375,434,-92,-656,1414,1453,1044
1376,406,-57,-568,1263,1970,882
1377,388,-14,-457,1078,2427,832
1378,329,4,-382,982,2695,828
1379,287,35,-330,1021,2902,783
1380,248,30,-250,1027,3167,746
1381,206,43,-201,1000,3447,783
1382,156,38,-142,1007,3701,816
1383,74,57,-35,1128,3996,826
1384,8,88,96,1394,4314,802
1385,-71,101,276,1656,4593,810
1386,-158,119,505,1808,4857,794
1387,-222,89,735,1812,5152,824
1388,-264,61,959,1671,5263,806
1389,-282,47,1149,1449,5138,800
1390,-324,39,1241,1175,4869,804
1391,-380,59,1316,988,4669,742
1392,-407,82,1436,951,4605,775
1393,-455,111,1574,998,4585,726
1394,-494,91,1749,1013,4613,820
1395,-551,39,1897,1005,4605,876
1396,-612,5,2004,1017,4517,847
1397,-646,-51,2048,1031,4355,832
1398,-666,-120,2048,1033,4101,728
1399,-637,-128,2048,857,3767,486
1400,-588,-72,2048,529,3300,275
1401,-568,-34,2048,171,2761,97
1402,-568,45,2048,-32,2333,-20
1403,-541,137,2048,-90,2039,-22
1404,-546,182,2048,27,1722,7
1405,-572,192,2048,171,1460,60
1406,-562,206,2048,279,1244,103
1407,-566,198,2048,353,962,99
1408,-577,217,2048,392,599,37
1409,-594,244,2048,314,158,-18
1410,-604,248,2048,15,-403,54
1411,-618,274,2048,-319,-1036,31
1412,-640,286,2048,-612,-1670,25
1413,-630,312,2048,-850,-2305,70
1414,-610,352,2048,-1053,-2875,85
1415,-632,379,2048,-1098,-3401,181
1416,-642,354,2048,-1096,-3844,304
1417,-617,335,2048,-1176,-4180,375
1418,-617,309,2048,-1440,-4483,375
1419,-606,302,1935,-1750,-4731,371
1420,-593,284,1775,-2018,-4963,386
1421,-542,267,1602,-2131,-5167,357
1422,-495,279,1371,-2219,-5282,300
1423,-458,275,1175,-2196,-5409,339
1424,-408,270,986,-1893,-5389,421
1425,-321,250,826,-1530,-5334,490
1426,-263,231,688,-1301,-5254,533
1427,-209,195,574,-1153,-5223,669
1428,-166,135,496,-983,-5223,703
1429,-132,98,398,-930,-5233,787
1430,-113,32,283,-854,-5211,861
1431,-81,-8,199,-776,-5040,880
1432,-71,-36,94,-780,-4807,912
1433,0,-106,-14,-704,-4596,1009
1434,57,-153,-64,-274,-4422,986
1435,93,-193,-115,107,-4233,906
1436,168,-197,-125,148,-3967,812
1437,247,-159,-142,-208,-3754,708
1438,280,-144,-226,-655,-3590,662
1439,330,-161,-310,-840,-3358,638
1440,397,-132,-447,-918,-3042,562
1441,429,-130,-578,-885,-2590,539
1442,463,-120,-669,-540,-2057,585
1443,517,-155,-672,7,-1465,611
1444,552,-201,-644,480,-936,599
1445,577,-253,-602,677,-500,560
1446,600,-233,-569,587,-141,457
1447,624,-204,-586,365,193,365
1448,597,-162,-620,76,503,306
1449,594,-129,-689,-36,839,339
1450,551,-128,-721,228,1187,447
1451,546,-62,-686,726,1544,554
1452,508,-22,-677,1208,1935,681
1453,494,-22,-623,1523,2353,771
1454,436,-3,-579,1716,2750,806
1455,393,-20,-518,1896,3117,871
1456,302,-17,-452,2117,3453,820
1457,222,-16,-367,2310,3722,818
1458,103,-60,-277,2507,3968,806
1459,32,-77,-210,2623,4273,779
1460,-51,-74,-69,2787,4578,650
1461,-143,-34,86,3021,4822,421
1462,-208,9,253,3103,5056,296
1463,-267,76,385,3158,5232,197
1464,-366,136,564,3253,5376,64
1465,-410,197,827,3255,5582,-61
1466,-459,251,1045,2867,5791,-139
1467,-517,233,1222,2146,5777,-112
1468,-559,229,1375,1486,5707,-90
1469,-580,247,1518,1027,5750,-133
1470,-594,255,1656,765,5662,-40
1471,-629,208,1781,820,5460,37
1472,-652,194,1938,880,5285,7
1473,-647,196,2037,775,5115,-59
1474,-646,167,2048,500,4728,-16
1475,-679,138,2048,181,4341,-96
1476,-644,131,2048,-40,4029,-167
1477,-597,131,2029,-309,3746,-124
1478,-590,120,2023,-389,3396,-194
1479,-582,154,2048,-340,3142,-229
1480,-555,157,2045,-290,2869,-174
1481,-546,172,2021,-67,2541,-133
1482,-567,163,2048,164,2244,-84
1483,-518,124,2031,228,2023,-4
1484,-461,102,2012,7,1802,-47
1485,-442,98,1930,-465,1517,-63
1486,-446,101,1883,-778,1218,-77
1487,-470,115,1815,-760,998,-145
1488,-449,99,1769,-620,839,-94
1489,-462,58,1712,-411,619,-43
1490,-466,61,1673,-209,416,-71
1491,-460,61,1646,-165,316,-100
1492,-409,59,1614,-167,191,-98
1493,-411,50,1548,-260,37,-168
1494,-390,67,1485,-352,-137,-211
1495,-379,72,1399,-475,-303,-225
1496,-376,64,1319,-598,-463,-178
1497,-353,69,1268,-637,-559,-182
1498,-348,69,1209,-657,-610,-178
1499,-332,58,1157,-649,-653,-165
1500,-310,82,1111,-575,-665,-157
1501,-302,62,1091,-424,-647,-133
1502,-286,47,1071,-319,-655,-106
1503,-286,23,1038,-315,-674,-108
1504,-292,30,996,-352,-668,-137
1505,-277,26,988,-381,-647,-168
1506,-270,42,953,-418,-598,-182
1507,-256,46,942,-417,-563,-188
1508,-247,44,920,-377,-530,-198
1509,-250,49,903,-336,-526,-176
1510,-249,35,900,-262,-502,-143
1511,-238,17,906,-139,-481,-137
1512,-248,-1,901,-49,-458,-165
1513,-239,0,917,-65,-407,-180
1514,-228,24,939,-149,-374,-221
1515,-213,36,949,-295,-340,-219
1516,-204,52,918,-383,-350,-200
1517,-199,66,924,-399,-381,-129
1518,-193,69,903,-354,-436,-59
1519,-199,40,876,-290,-403,-61
1520,-203,37,862,-254,-288,-69
1521,-206,33,880,-151,-178,-69
1522,-200,27,896,1,-92,-65
1523,-208,21,948,95,-18,-100
1524,-216,16,967,111,-8,-110
1525,-228,16,982,111,-18,-106
1526,-217,5,1007,74,-20,-104
1527,-235,-9,1017,-73,-40,-110
1528,-231,-3,991,-250,-53,-104
1529,-228,-8,983,-303,-77,-122
1530,-242,-10,978,-241,-110,-120
1531,-242,-9,974,-125,-102,-114
1532,-248,-38,976,-22,-77,-157
1533,-240,-44,968,64,-40,-174
1534,-248,-41,992,138,7,-231
1535,-250,-33,1017,136,85,-290
1536,-238,-42,1036,-2,85,-290
1537,-233,-31,1039,-141,41,-292
1538,-239,-26,1015,-243,0,-280
1539,-246,-48,996,-250,-30,-282
1540,-239,-43,992,-135,-22,-307
1541,-249,-71,985,21,-30,-323
1542,-259,-68,1019,175,-45,-377
1543,-249,-61,1044,193,0,-432
1544,-239,-52,1040,72,52,-479
1545,-229,-55,1031,-57,37,-534
1546,-239,-21,1053,-151,35,-581
1547,-235,-27,1039,-202,27,-551
1548,-232,-29,1034,-155,-16,-545
1549,-250,-39,1045,-157,-65,-532
1550,-248,-67,1021,-170,-83,-540
1551,-237,-57,1026,-159,-86,-567
1552,-245,-58,1018,-75,-108,-606
1553,-240,-41,1021,-18,-83,-643
1554,-242,-37,1028,-51,-40,-676
1555,-231,-28,1038,-133,-26,-702
1556,-233,-24,1016,-198,-28,-725
1557,-231,-23,1016,-227,-32,-741
1558,-234,-15,1011,-221,-49,-733
1559,-228,-22,1027,-198,-38,-717
1560,-236,-24,1011,-178,-57,-684
1561,-236,-11,999,-112,-77,-668
1562,-235,-8,990,-30,-65,-659
1563,-241,-17,1018,0,-20,-657
1564,-216,-5,1021,-26,27,-674
1565,-224,7,1030,-98,46,-702
1566,-229,0,1045,-170,44,-733
1567,-236,-2,1046,-217,15,-739
1568,-235,-20,1033,-272,-8,-754
1569,-238,-6,1025,-303,-42,-741
1570,-245,-15,1018,-282,-45,-741
1571,-238,-38,983,-182,-63,-721
1572,-235,-36,978,-6,-61,-739
1573,-234,-24,1019,66,-20,-737
1574,-241,-6,1033,97,25,-745
1575,-234,-14,1053,42,37,-756
1576,-234,-1,1032,-30,37,-747
1577,-218,-10,1047,-106,37,-747
1578,-216,9,1036,-180,-6,-750
1579,-221,17,1030,-141,-67,-727
1580,-232,-3,1006,-57,-98,-694
1581,-235,-19,1006,-16,-83,-665
1582,-227,-10,998,-26,-59,-653
1583,-239,-24,1004,-28,-43,-616
1584,-243,-30,1017,23,-18,-608
1585,-226,-39,1001,1,35,-622
1586,-235,-39,1014,-57,42,-653
1587,-231,-33,1013,-163,58,-639
1588,-226,-34,1011,-188,74,-667
1589,-226,-38,1010,-180,27,-670
1590,-245,-49,1006,-155,-12,-663
1591,-236,-56,1014,-67,1,-639
1592,-238,-67,1018,-12,11,-643
1593,-243,-80,1024,0,1,-624
1594,-243,-76,1028,1,3,-622
1595,-249,-87,1019,-6,11,-655
1596,-241,-78,1021,-20,23,-694
1597,-244,-81,1032,-59,15,-717
1598,-240,-75,1008,-90,21,-739
1599,-249,-75,1018,-106,29,-733
1600,-239,-76,1007,-104,13,-747
1601,-236,-81,992,-69,-2,-725
1602,-241,-94,985,-8,-30,-706
1603,-239,-92,992,19,-32,-749
1604,-243,-96,977,0,-10,-768
1605,-241,-99,1007,23,37,-782
1606,-240,-95,1028,-6,58,-811
1607,-237,-101,1039,0,46,-825
1608,-233,-81,1034,3,31,-850
1609,-232,-75,1028,-14,11,-868
1610,-236,-75,1025,-24,-22,-874
1611,-246,-64,1002,-14,-40,-881
1612,-243,-71,997,-26,-38,-864
1613,-237,-70,978,-2,-8,-842
1614,-245,-74,992,35,31,-848
1615,-241,-80,1004,82,68,-860
1616,-234,-77,1015,80,97,-877
1617,-232,-57,1014,85,99,-891
1618,-231,-43,1043,80,70,-877
1619,-229,-32,1030,21,48,-870
1620,-224,-41,1024,-10,9,-848
1621,-222,-18,1003,-34,-42,-852
1622,-229,-28,967,-47,-61,-848
1623,-227,-28,962,-34,-38,-797
1624,-223,-32,978,52,11,-776
1625,-233,-35,979,130,68,-795
1626,-229,-53,997,146,128,-797
1627,-239,-37,1040,107,171,-801
1628,-235,-36,1029,87,160,-799
1629,-232,-41,1024,74,132,-799
1630,-235,-21,1034,29,85,-778
1631,-235,-19,1001,13,39,-762
1632,-235,-21,1002,0,7,-721
1633,-241,-33,1005,46,11,-684
1634,-244,-48,1001,103,7,-657
1635,-249,-48,1010,146,46,-690
1636,-251,-58,1001,164,99,-708
1637,-246,-52,1006,175,128,-727
1638,-252,-48,1006,160,125,-749
1639,-248,-50,1022,125,115,-739
1640,-247,-39,1003,82,115,-735
1641,-235,-56,1003,64,66,-711
1642,-247,-55,996,78,31,-680
1643,-243,-63,1001,89,39,-641
1644,-260,-72,988,109,52,-635
1645,-251,-74,994,125,66,-645
1646,-258,-69,997,138,82,-649
1647,-264,-82,1003,121,87,-668
1648,-268,-74,982,64,117,-696
1649,-249,-87,987,-22,169,-719
1650,-248,-85,992,-65,191,-725
1651,-247,-71,994,-42,169,-750
1652,-255,-58,1006,74,128,-733
1653,-245,-65,1026,171,103,-680
1654,-248,-80,1035,195,52,-643
1655,-243,-77,1028,164,33,-698
1656,-252,-67,1004,37,29,-737
1657,-246,-58,993,-69,74,-772
1658,-227,-41,990,-147,136,-784
1659,-229,-19,1013,-129,173,-793
1660,-225,1,1008,-16,169,-766
1661,-220,13,1016,48,134,-715
1662,-224,6,1016,103,103,-682
1663,-217,13,1022,130,76,-655
1664,-227,11,1008,146,64,-625
1665,-214,-3,1022,189,64,-584
1666,-217,25,1009,232,48,-575
1667,-227,25,1028,232,56,-545
1668,-223,36,1033,207,85,-516
1669,-214,22,1008,150,103,-489
1670,-221,25,1012,128,115,-479
1671,-217,27,1023,113,125,-450
1672,-208,29,1046,121,119,-417
1673,-225,39,1036,128,80,-387
1674,-227,18,1021,85,46,-362
1675,-233,18,1027,74,29,-338
1676,-229,18,1020,56,46,-303
1677,-226,16,997,42,78,-268
1678,-235,0,991,31,97,-266
1679,-228,-2,1009,64,128,-254
1680,-239,-10,1000,125,152,-249
1681,-233,0,1015,150,150,-237
1682,-226,1,1038,142,128,-213
1683,-229,-7,1048,121,111,-188
1684,-224,9,1033,121,78,-125
1685,-229,-4,1044,85,48,-90
1686,-230,-19,1021,56,46,-77
1687,-248,-27,1003,50,29,-63
1688,-245,-38,997,46,52,-77
1689,-240,-35,995,52,82,-94
1690,-248,-34,1008,78,93,-110
1691,-247,-22,1029,93,107,-112
1692,-250,-19,1045,93,121,-63
1693,-227,-22,1039,93,85,-34
1694,-241,-16,1020,132,15,-20
1695,-250,-25,1011,148,-12,3
1696,-245,-24,1015,125,0,25
1697,-260,-24,1019,64,17,25
1698,-259,-33,1020,60,13,21
1699,-264,-55,1001,119,35,13
1700,-257,-52,1002,152,66,3
1701,-255,-51,1029,138,91,7
1702,-267,-57,1049,80,97,0
1703,-260,-51,1055,13,64,0
1704,-253,-46,1043,-61,35,3
1705,-260,-45,1017,-81,9,13
1706,-266,-45,1021,-47,-2,21
1707,-270,-51,1011,-6,-14,35
1708,-275,-68,1009,21,3,27
1709,-269,-57,1017,13,46,27
1710,-267,-71,1042,21,56,27
1711,-272,-77,1031,25,48,25
1712,-280,-86,1034,7,44,7
1713,-281,-86,1058,-4,52,-24
1714,-261,-71,1073,-28,41,-18
1715,-266,-68,1068,-22,1,-22
1716,-272,-45,1075,25,-61,-10
1717,-275,-59,1081,83,-102,-10
1718,-275,-69,1100,154,-110,0
1719,-286,-50,1115,201,-104,0
1720,-291,-81,1179,255,-77,15
1721,-294,-47,1264,326,-49,-6
1722,-315,-36,1387,466,-43,-20
1723,-347,-26,1555,660,-10,-49
1724,-372,11,1717,775,-79,-49
1725,-396,22,1891,791,-229,-51
1726,-414,44,2021,673,-483,23
1727,-437,35,2048,552,-784,82
1728,-464,25,2048,537,-1069,150
1729,-506,8,2048,666,-1295,185
1730,-556,-1,2048,812,-1586,203
1731,-602,-32,2048,804,-1903,246
1732,-631,-61,2048,656,-2268,263
1733,-651,-57,2048,376,-2731,214
1734,-679,-56,2048,-45,-3245,125
1735,-713,-44,2048,-387,-3850,52
1736,-704,-51,2048,-536,-4360,7
1737,-715,-22,2004,-538,-4790,9
1738,-710,-37,1875,-411,-5084,0
1739,-681,-56,1708,-381,-5249,-6
1740,-673,-63,1559,-426,-5407,-77
1741,-617,-61,1392,-588,-5485,-129
1742,-541,-13,1215,-875,-5522,-215
1743,-487,46,1025,-1192,-5596,-280
1744,-415,82,842,-1290,-5657,-274
1745,-350,88,636,-1254,-5711,-209
1746,-285,73,441,-1104,-5752,-188
1747,-218,85,238,-770,-5610,-168
1748,-124,106,86,-442,-5313,-92
1749,-21,108,-77,-264,-5004,21
1750,87,148,-207,-184,-4706,82
1751,166,169,-321,-159,-4366,138
1752,242,170,-402,-12,-3942,210
1753,318,166,-459,78,-3477,289
1754,374,136,-522,123,-3133,382
1755,424,138,-531,255,-2778,476
1756,488,158,-528,333,-2444,550
1757,538,204,-554,320,-2174,625
1758,562,220,-622,341,-1932,714
1759,580,221,-701,472,-1637,832
1760,594,231,-731,537,-1188,902
1761,564,243,-763,607,-709,990
1762,539,175,-747,732,-274,1195
1763,515,106,-700,916,236,1292
1764,499,32,-644,996,726,1332
1765,454,-50,-594,962,1076,1283
1766,406,-92,-530,906,1429,1156
1767,400,-93,-461,658,1806,984
1768,395,-53,-454,382,2101,855
1769,354,-35,-437,343,2324,777
1770,321,20,-385,523,2640,730
1771,274,79,-311,697,3009,720
1772,226,111,-290,755,3355,808
1773,159,64,-211,775,3716,919
1774,88,1,-108,816,4062,955
1775,-4,-38,-4,873,4316,904
1776,-71,-105,113,1015,4511,892
1777,-144,-124,293,1191,4720,857
1778,-243,-142,505,1457,4931,816
1779,-307,-148,723,1662,5025,724
1780,-356,-145,927,1646,5068,523
1781,-400,-111,1125,1267,5175,443
1782,-453,-74,1271,806,5166,468
1783,-526,-58,1417,603,5095,490
1784,-606,-94,1572,695,5058,529
1785,-632,-123,1788,880,5167,500
1786,-642,-130,1946,750,5101,414
1787,-636,-144,2036,468,4908,335
1788,-660,-171,2048,300,4537,167
1789,-673,-181,2048,177,4064,13
1790,-673,-195,2043,-49,3619,-90
1791,-654,-168,1982,-274,3208,-225
1792,-634,-142,1896,-411,2880,-303
1793,-564,-92,1841,-377,2623,-323
1794,-518,-39,1825,-225,2412,-319
1795,-461,38,1829,-51,2226,-295
1796,-430,106,1853,46,2080,-241
1797,-454,138,1915,93,1953,-122
1798,-464,137,2000,138,1880,-10
1799,-464,129,2048,152,1685,64
1800,-477,112,2048,171,1322,54
1801,-515,83,2048,164,1000,35
1802,-508,104,2048,42,755,13
1803,-528,163,2048,21,468,-34
1804,-554,219,2048,-20,255,-10
1805,-581,242,2048,-32,-73,107
1806,-595,247,2048,-22,-381,201
1807,-670,243,2048,-192,-723,339
1808,-627,157,2048,-446,-1170,515
1809,-714,143,2048,-721,-2065,382
1810,-771,95,2048,-1018,-3104,306
1811,-817,102,2048,-727,-3643,236
1812,-860,70,2048,-665,-4280,236
1813,-894,43,2048,-768,-4848,214
1814,-878,0,2048,-1002,-5315,162
1815,-877,-5,2048,-1333,-5752,97
1816,-836,24,1950,-1575,-6069,23
1817,-795,43,1700,-1827,-6325,-30
1818,-714,57,1447,-2084,-6538,-81
1819,-664,75,1168,-2213,-6766,-133
1820,-608,94,941,-2182,-6811,-192
1821,-509,139,672,-2170,-6653,-196
1822,-424,157,462,-2116,-6401,-219
1823,-324,166,267,-2061,-6088,-159
1824,-239,151,58,-1885,-5776,-43
1825,-169,123,-58,-1489,-5502,-4
1826,-117,128,-155,-948,-5204,37
1827,-22,106,-252,-547,-4831,199
1828,62,97,-262,-329,-4489,292
1829,139,112,-291,-239,-4204,353
1830,216,143,-330,-249,-3952,451
1831,275,142,-380,-200,-3727,589
1832,322,156,-436,-79,-3461,695
1833,350,115,-494,46,-3176,808
1834,384,101,-558,175,-2792,880
1835,428,78,-591,351,-2424,935
1836,439,41,-644,587,-2042,986
1837,481,47,-620,708,-1598,962
1838,504,73,-618,658,-1182,974
1839,529,50,-608,621,-829,1064
1840,533,6,-620,632,-495,1150
1841,513,-16,-607,726,-184,1189
1842,495,-55,-583,906,156,1175
1843,447,-64,-536,1080,556,1130
1844,431,-94,-494,1148,994,1091
1845,405,-121,-443,1058,1429,1064
1846,375,-120,-430,906,1791,976
1847,359,-107,-404,880,2054,896
1848,338,-75,-348,1021,2408,828
1849,304,-48,-266,1259,2736,835
1850,232,-52,-170,1650,3039,875
1851,169,-30,-31,1986,3402,875
1852,114,-36,125,2150,3724,925
1853,64,-97,237,2253,3923,980
1854,-1,-128,380,2253,4074,878
1855,-59,-134,514,2048,4246,708
1856,-115,-114,624,1736,4398,576
1857,-182,-91,741,1505,4402,451
1858,-225,-77,836,1421,4408,404
1859,-260,-65,923,1351,4527,429
1860,-270,-54,1037,1228,4681,455
1861,-301,-40,1175,1085,4820,455
1862,-318,-24,1344,900,4966,480
1863,-365,-27,1464,779,4972,546
1864,-397,-80,1554,718,4767,599
1865,-400,-104,1642,541,4488,511
1866,-429,-113,1654,246,4144,396
1867,-440,-100,1721,58,3917,300
1868,-406,-63,1743,-20,3816,361
1869,-423,-57,1759,64,3638,375
1870,-470,-44,1803,214,3449,386
1871,-460,-52,1812,271,3298,421
1872,-429,-102,1745,189,3070,453
1873,-445,-123,1674,193,2763,322
1874,-436,-116,1669,353,2607,203
1875,-439,-49,1758,392,2605,29
1876,-406,14,1844,185,2564,0
1877,-407,4,1838,-8,2298,44
1878,-409,-22,1769,-14,1900,50
1879,-418,-73,1654,46,1566,85
1880,-416,-107,1576,138,1396,37
1881,-398,-121,1550,140,1310,-43
1882,-389,-99,1492,31,1234,-157
1883,-379,-45,1512,-94,1177,-270
1884,-357,14,1534,-157,1152,-282
1885,-336,29,1560,-112,1001,-276
1886,-341,19,1539,-79,744,-256
1887,-337,28,1514,-153,537,-235
1888,-328,16,1467,-229,390,-174
1889,-337,20,1400,-241,240,-165
1890,-337,10,1371,-208,140,-184
1891,-338,-1,1309,-172,54,-174
1892,-346,-14,1270,-106,-22,-184
1893,-331,-17,1220,-84,-61,-223
1894,-321,-7,1196,-88,-77,-266
1895,-314,14,1168,-94,-94,-297
1896,-307,25,1153,-129,-141,-274
1897,-279,10,1105,-172,-204,-237
1898,-297,13,1076,-170,-307,-272
1899,-299,12,1063,-241,-387,-198
1900,-283,4,1030,-321,-311,-147
1901,-273,-2,1006,-329,-301,-125
1902,-267,-1,984,-342,-292,-96
1903,-297,-35,951,-235,-268,-118
1904,-273,-38,961,-137,-235,-86
1905,-262,-41,978,-86,-174,-141
1906,-253,-37,962,-114,-211,-167
1907,-254,-33,1013,-202,-264,-200
1908,-253,-15,986,-329,-262,-211
1909,-245,-9,988,-325,-307,-225
1910,-237,-18,989,-264,-377,-209
1911,-256,-19,946,-280,-356,-188
1912,-256,-4,939,-223,-338,-182
1913,-241,-17,929,-167,-188,-122
1914,-240,-22,928,-81,-75,-96
1915,-244,-39,952,-24,-10,-98
1916,-224,-45,984,17,42,-129
1917,-234,-61,1017,-14,7,-194
1918,-239,-49,1011,-63,-59,-243
1919,-232,-45,1018,-96,-86,-280
1920,-239,-28,1002,-131,-118,-297
1921,-234,-15,1014,-149,-118,-249
1922,-247,-25,1011,-104,-114,-208
1923,-239,-13,988,-32,-110,-219
1924,-248,-33,987,-4,-83,-245
1925,-248,-17,989,41,-47,-245
1926,-235,-46,1007,15,0,-227
1927,-242,-43,1029,5,13,-231
1928,-255,-40,1055,-43,-2,-256
1929,-234,-23,1081,-135,-36,-245
1930,-253,-19,1081,-125,-43,-196
1931,-252,-33,1081,-157,-94,-163
1932,-254,-37,1047,-200,-163,-153
1933,-253,-44,1015,-258,-157,-139
1934,-249,-46,977,-198,-69,-153
1935,-255,-57,982,-116,-16,-143
1936,-254,-58,983,29,21,-127
1937,-258,-64,1020,107,13,-141
1938,-246,-63,1049,173,17,-163
1939,-251,-84,1055,187,-57,-190
1940,-255,-95,1042,66,-110,-231
1941,-259,-106,1045,-90,-75,-301
1942,-266,-114,1025,-237,-77,-352
1943,-257,-94,1010,-327,-75,-374
1944,-259,-88,1007,-327,-57,-358
1945,-262,-72,1009,-190,-90,-346
1946,-255,-69,1020,9,-118,-346
1947,-255,-75,1013,179,-110,-309
1948,-270,-91,1006,281,-77,-301
1949,-251,-106,1025,273,-69,-309
1950,-260,-108,1033,169,-71,-381
1951,-255,-97,1027,29,-81,-463
1952,-247,-76,1017,-49,-86,-487
1953,-243,-65,1045,-104,-118,-487
1954,-245,-65,1013,-94,-165,-493
1955,-259,-78,993,-28,-192,-493
1956,-251,-62,1008,56,-182,-469
1957,-246,-68,1004,148,-172,-438
1958,-243,-88,1030,179,-153,-422
1959,-244,-88,1017,169,-108,-459
1960,-239,-81,1010,85,-79,-500
1961,-248,-62,1022,7,-63,-540
1962,-240,-59,1021,-71,-75,-553
1963,-249,-56,1031,-102,-79,-571
1964,-229,-59,1015,-73,-84,-581
1965,-230,-51,1014,19,-124,-563
1966,-235,-41,1011,148,-172,-565
1967,-223,-53,1008,220,-168,-573
1968,-231,-40,1042,234,-149,-586
1969,-237,-24,1031,171,-129,-584
1970,-231,-23,1049,83,-104,-557
1971,-228,-30,1022,0,-96,-540
1972,-226,-44,1013,-108,-90,-532
1973,-225,-37,993,-186,-71,-549
1974,-229,-49,1015,-192,-45,-563
1975,-231,-39,1041,-149,-32,-567
1976,-241,-57,1020,-75,-55,-555
1977,-224,-52,1030,31,-100,-561
1978,-232,-45,1025,115,-131,-569
1979,-242,-51,1023,154,-104,-598
1980,-239,-39,1028,130,-86,-594
1981,-231,-38,1039,97,-110,-579
1982,-231,-18,1027,64,-129,-549
1983,-211,-29,1016,15,-127,-553
1984,-224,-38,1001,-47,-135,-532
1985,-222,-54,982,-71,-122,-532
1986,-235,-58,991,-49,-100,-561
1987,-232,-62,999,-8,-81,-586
1988,-229,-62,1009,19,-81,-596
1989,-222,-44,1007,-2,-83,-596
1990,-229,-45,1007,-34,-71,-575
1991,-222,-44,1013,41,-86,-536
1992,-211,-33,1000,136,-120,-506
1993,-228,-33,999,171,-135,-446
1994,-226,-57,1008,134,-110,-418
1995,-228,-61,1027,50,-84,-436
1996,-223,-71,1028,-61,-53,-450
1997,-228,-68,1024,-129,-45,-463
1998,-234,-92,1029,-124,-77,-495
1999,-241,-106,1005,-92,-86,-534
2000,-234,-96,1004,-34,-71,-584
2001,-224,-85,986,37,-40,-629
2002,-217,-74,1006,87,-4,-627
2003,-201,-57,1018,89,11,-627
2004,-207,-47,1009,52,7,-612
2005,-218,-38,1025,15,0,-594
2006,-209,-49,1013,1,-42,-559
2007,-215,-55,1019,1,-65,-557
2008,-218,-76,1000,-18,-65,-557
2009,-220,-86,986,-6,-71,-549
2010,-245,-71,1000,19,-42,-557
2011,-215,-86,994,105,-36,-542
2012,-229,-83,1000,255,-61,-606
2013,-217,-77,1025,291,-57,-616
2014,-208,-69,1014,251,-32,-633
2015,-208,-57,1013,152,-18,-657
2016,-206,-57,992,70,0,-676
2017,-208,-43,1004,3,-32,-667
2018,-224,-35,988,-18,-38,-637
2019,-223,-35,989,-2,-34,-586
2020,-225,-55,987,1,-26,-538
2021,-236,-53,1003,17,17,-500
2022,-214,-70,979,70,76,-512
2023,-228,-49,1012,195,64,-534
2024,-222,-73,1032,296,60,-532
2025,-237,-75,1030,365,46,-573
2026,-196,-74,1035,283,21,-592
2027,-214,-51,1039,117,0,-649
2028,-201,-53,1015,7,-6,-661
2029,-190,-38,995,-12,-26,-653
2030,-218,-37,994,7,-47,-647
2031,-211,-31,976,68,-24,-604
2032,-207,-37,971,154,9,-581
2033,-211,-40,974,244,21,-569
2034,-210,-44,990,271,33,-573
2035,-221,-44,997,222,52,-569
2036,-213,-63,1008,142,60,-559
2037,-214,-62,1021,17,85,-590
2038,-214,-54,988,-124,111,-635
2039,-208,-52,1008,-200,130,-616
2040,-220,-66,992,-124,119,-584
2041,-218,-70,1004,23,82,-590
2042,-214,-59,998,171,60,-584
2043,-217,-64,1005,232,66,-598
2044,-199,-49,1007,242,50,-610
2045,-205,-38,1002,162,27,-616
2046,-217,-39,1001,93,23,-584
2047,-210,-40,994,42,48,-553
2048,-209,-35,984,-4,74,-551
2049,-212,-32,997,1,107,-534
2050,-208,-57,995,97,111,-512
2051,-219,-53,1006,214,125,-545
2052,-213,-30,1014,339,128,-581
2053,-216,-24,1071,425,117,-583
2054,-206,-18,1073,375,72,-579
2055,-200,-14,1043,261,9,-584
2056,-213,1,1042,105,-24,-571
2057,-207,-5,1010,11,-4,-532
2058,-210,0,1013,-22,19,-510
2059,-207,4,1013,35,39,-489
2060,-213,-1,1016,119,64,-487
2061,-214,-3,1021,167,85,-512
2062,-214,-8,1021,160,97,-534
2063,-210,8,1017,154,125,-532
2064,-205,12,1043,128,140,-506
2065,-210,11,1032,128,125,-463
2066,-203,6,1034,128,103,-428
2067,-211,1,1039,134,74,-389
2068,-212,-6,1034,150,56,-354
2069,-211,7,1015,128,50,-333
2070,-210,6,1021,113,64,-344
2071,-209,20,1027,121,72,-331
2072,-203,20,1011,117,125,-319
2073,-205,16,1028,113,136,-266
2074,-204,8,1030,164,107,-247
2075,-213,-1,1015,185,85,-262
2076,-215,-2,1015,167,85,-278
2077,-209,15,1027,132,82,-278
2078,-205,24,1001,111,58,-268
2079,-213,45,1017,107,54,-225
2080,-212,40,1014,130,66,-170
2081,-211,28,1010,152,42,-151
2082,-214,28,1000,171,33,-118
2083,-214,24,1004,167,58,-98
2084,-218,18,997,156,85,-92
2085,-214,9,1025,107,113,-92
2086,-219,15,1032,50,107,-90
2087,-221,4,1038,33,74,-102
2088,-236,9,1024,70,39,-88
2089,-239,-8,1005,154,29,-81
2090,-250,-32,1033,228,31,-61
2091,-235,-27,1046,246,35,-67
2092,-250,-31,1049,201,42,-96
2093,-236,-9,1074,128,50,-110
2094,-244,4,1072,54,60,-112
2095,-247,-17,1095,33,52,-65
2096,-257,-37,1094,111,15,-42
2097,-279,-38,1158,230,-10,-67
2098,-268,-25,1210,335,1,-69
2099,-279,-37,1308,490,29,-125
2100,-291,13,1479,589,72,-196
2101,-309,48,1653,521,115,-198
2102,-277,93,1822,382,29,-153
2103,-295,145,2035,226,-178,-145
2104,-332,147,2048,128,-446,15
2105,-369,93,2048,273,-817,210
2106,-436,39,2048,570,-1262,275
2107,-501,2,2048,884,-1653,275
2108,-547,-1,2048,1062,-1907,189
2109,-563,5,2048,855,-2186,93
2110,-551,24,2048,441,-2526,0
2111,-596,105,2048,0,-2942,-69
2112,-592,114,2048,-295,-3477,74
2113,-596,90,2048,-459,-4063,189
2114,-639,66,2048,-407,-4588,210
2115,-638,26,1939,-319,-4985,263
2116,-637,-2,1769,-258,-5270,218
2117,-625,26,1639,-315,-5403,150
2118,-594,13,1469,-493,-5458,132
2119,-547,21,1288,-702,-5530,140
2120,-490,39,1075,-825,-5616,107
2121,-438,53,882,-934,-5612,48
2122,-379,69,697,-1026,-5571,42
2123,-326,81,528,-1020,-5479,64
2124,-253,54,383,-836,-5403,85
2125,-198,24,227,-571,-5245,128
2126,-123,14,100,-344,-5088,150
2127,-42,5,-14,-127,-4823,125
2128,27,34,-123,-94,-4584,128
2129,112,68,-219,-122,-4290,128
2130,193,97,-347,-71,-3997,171
2131,295,89,-468,134,-3686,179
2132,371,120,-532,380,-3336,189
2133,450,153,-594,591,-2983,246
2134,511,197,-596,726,-2524,261
2135,522,221,-604,722,-2098,361
2136,548,218,-620,640,-1706,583
2137,554,204,-664,544,-1327,773
2138,528,166,-719,517,-973,951
2139,505,98,-725,582,-528,1068
2140,492,59,-715,646,-26,1091
2141,486,2,-681,589,460,1089
2142,472,-6,-650,542,896,1041
2143,460,-7,-606,408,1306,1035
2144,441,-16,-604,283,1673,1037
2145,407,-12,-562,285,1978,1048
2146,361,-36,-543,386,2306,1027
2147,298,-68,-491,529,2619,982
2148,249,-142,-457,648,2953,896
2149,188,-158,-382,634,3287,746
2150,137,-125,-302,478,3611,533
2151,85,-53,-229,318,3917,382
2152,25,-45,-144,343,4177,421
2153,-27,-80,-47,437,4433,482
2154,-158,-87,64,589,4615,490
2155,-271,-121,241,880,4779,396
2156,-339,-64,480,1201,5035,236
2157,-381,25,778,1361,5308,134
2158,-412,59,1084,1261,5484,181
2159,-394,74,1294,921,5492,203
2160,-426,84,1374,447,5326,257
2161,-425,73,1436,39,5140,353
2162,-451,71,1524,-47,5015,408
2163,-486,27,1609,-18,4968,558
2164,-545,3,1757,146,4921,615
2165,-614,-36,1874,365,4847,623
2166,-639,-110,1992,589,4660,605
2167,-664,-128,2048,601,4384,503
2168,-621,-148,2035,347,4033,382
2169,-616,-152,1972,134,3632,275
2170,-604,-139,1928,-12,3367,140
2171,-554,-104,1882,-61,3166,95
2172,-569,-37,1896,121,2962,-4
2173,-546,18,1970,400,2830,17
2174,-534,47,2048,525,2693,66
2175,-533,44,2048,474,2496,91
2176,-524,33,2048,279,2314,80
2177,-536,45,2048,13,1974,-6
2178,-537,88,2048,-65,1566,-10
2179,-536,80,2048,-110,1224,11
2180,-557,65,2048,17,876,11
2181,-571,74,2048,304,455,42
2182,-583,97,2048,503,97,0
2183,-615,101,2048,451,-354,-18
2184,-642,106,2048,173,-784,-38
2185,-659,82,2048,-211,-1405,-49
2186,-676,82,2048,-545,-2159,-92
2187,-685,97,2048,-624,-2813,-125
2188,-693,140,2048,-536,-3299,-135
2189,-692,160,2048,-428,-3678,-92
2190,-712,167,2048,-428,-3975,-57
2191,-717,157,2048,-618,-4264,-47
2192,-723,159,2048,-905,-4598,9
2193,-717,122,2048,-1135,-4889,52
2194,-722,112,1901,-1243,-5204,42
2195,-704,93,1744,-1264,-5481,21
2196,-694,79,1574,-1329,-5715,39
2197,-670,55,1395,-1424,-5926,50
2198,-606,47,1193,-1551,-5977,15
2199,-576,81,1009,-1637,-5975,-26
2200,-511,85,802,-1670,-5860,-16
2201,-466,89,662,-1553,-5680,15
2202,-404,85,559,-1395,-5499,128
2203,-323,57,480,-1176,-5344,181
2204,-244,24,387,-999,-5323,167
2205,-167,18,287,-936,-5282,97
2206,-106,38,190,-883,-5209,66
2207,-25,40,74,-754,-5016,97
2208,45,57,-44,-608,-4815,185
2209,89,23,-187,-417,-4624,275
2210,170,-1,-280,-86,-4301,289
2211,183,-6,-337,251,-3977,271
2212,265,-11,-366,427,-3598,339
2213,352,27,-396,423,-3237,339
2214,404,72,-436,238,-2997,306
2215,460,113,-480,91,-2797,306
2216,528,150,-551,33,-2540,369
2217,542,168,-625,126,-2272,472
2218,556,175,-713,416,-1911,634
2219,551,145,-735,802,-1334,794
2220,557,98,-710,1048,-762,943
2221,560,42,-697,1181,-293,1027
2222,566,28,-618,1185,140,1000
2223,560,25,-536,1029,593,939
2224,527,9,-482,806,970,931
2225,517,8,-445,621,1269,949
2226,492,13,-454,500,1523,939
2227,423,-6,-454,472,1744,949
2228,379,-26,-512,634,2091,919
2229,317,-26,-476,867,2578,863
2230,292,-30,-353,1082,3123,818
2231,257,8,-254,1171,3597,792
2232,212,5,-155,1375,3894,751
2233,155,20,-58,1628,4140,701
2234,129,47,86,1730,4316,626
2235,63,100,215,1724,4505,539
2236,8,149,363,1628,4632,599
2237,-61,176,506,1511,4726,658
2238,-118,233,651,1472,4832,728
2239,-183,229,745,1496,4929,949
2240,-251,127,822,1623,4960,1164
2241,-316,84,937,1667,5046,1136
2242,-366,98,1084,1474,5277,1048
2243,-400,143,1262,1154,5464,986
2244,-459,138,1451,966,5519,1052
2245,-498,82,1618,828,5470,1103
2246,-529,18,1706,625,5220,1097
2247,-573,-38,1781,343,4873,1029
2248,-594,-65,1864,134,4566,943
2249,-591,-104,1932,60,4402,832
2250,-587,-108,1957,130,4070,761
2251,-603,-134,1948,210,3654,667
2252,-592,-134,1918,162,3349,542
2253,-574,-136,1871,-42,3121,417
2254,-554,-130,1800,-354,2916,310
2255,-531,-108,1756,-493,2753,228
2256,-542,-84,1752,-444,2621,214
2257,-503,-109,1805,-243,2480,193
2258,-487,-102,1817,-79,2287,115
2259,-456,-79,1812,-84,1992,33
2260,-429,-96,1705,-172,1666,48
2261,-432,-114,1612,-125,1367,-49
2262,-425,-84,1560,-86,1216,-143
2263,-432,-65,1541,-147,1136,-215
2264,-423,-37,1528,-231,1072,-209
2265,-401,-38,1514,-317,1029,-192
2266,-392,-6,1517,-440,968,-172
2267,-382,4,1519,-348,876,-151
2268,-361,-6,1491,-180,683,-98
2269,-369,-26,1455,-51,419,-83
2270,-374,-18,1423,29,242,-129
2271,-367,-12,1367,-28,175,-159
2272,-352,3,1319,-145,105,-167
2273,-353,17,1263,-219,-2,-190
2274,-344,20,1197,-243,-88,-182
2275,-319,17,1116,-231,-129,-211
2276,-305,44,1088,-247,-120,-245
2277,-305,51,1088,-299,-84,-194
2278,-296,59,1084,-317,-90,-137
2279,-295,52,1070,-202,-147,-104
2280,-296,56,1060,-57,-198,-53
2281,-283,53,1078,21,-229,3
2282,-290,49,1046,52,-288,33
2283,-302,42,1047,37,-334,64
2284,-295,33,1011,1,-325,70
2285,-290,26,1002,-83,-288,42
2286,-294,40,995,-159,-256,46
2287,-303,26,990,-186,-204,35
2288,-288,14,967,-200,-143,13
2289,-286,8,949,-202,-96,7
2290,-273,3,959,-202,-57,-6
2291,-229,5,967,-159,-49,-32
2292,-308,15,1009,-53,-147,-88
2293,-278,1,1013,-90,-145,3
2294,-265,6,1005,-133,-96,7
2295,-276,-11,981,-186,-155,-4
2296,-281,-15,971,-264,-153,-6
2297,-275,-3,957,-231,-125,-4
2298,-278,-14,976,-135,-106,17
2299,-287,-34,979,-61,-69,27
2300,-279,-37,977,-16,-51,11
2301,-276,-42,995,-28,-32,-26
2302,-283,-29,1003,-92,-43,-40
2303,-275,-28,980,-124,-51,-38
2304,-263,-28,985,-149,-77,-16
2305,-265,-20,977,-98,-94,-14
2306,-280,-23,980,-38,-83,-32
2307,-267,-42,969,-57,-51,-18
2308,-272,-33,969,-55,-55,-40
2309,-280,-26,980,-6,-45,-53
2310,-272,-57,982,7,-6,-32
2311,-280,-73,1004,-10,-20,-79
2312,-288,-78,996,-69,-12,-116
2313,-287,-99,1005,-155,21,-155
2314,-285,-79,999,-229,37,-204
2315,-274,-65,989,-213,5,-237
2316,-272,-50,1008,-151,-8,-237
2317,-259,-39,1013,-69,-16,-229
2318,-272,-33,1004,23,-30,-243
2319,-276,-36,1004,123,-40,-247
2320,-274,-58,995,167,7,-229
2321,-283,-65,1011,125,50,-245
2322,-281,-83,1015,17,72,-260
2323,-279,-83,1029,-49,66,-274
2324,-290,-99,1030,-81,29,-295
2325,-299,-95,1015,-92,3,-331
2326,-287,-80,1020,-112,-10,-387
2327,-308,-70,1018,-114,-49,-409
2328,-295,-63,1004,-65,-73,-407
2329,-300,-69,992,-45,-59,-426
2330,-294,-68,999,-71,-8,-459
2331,-288,-60,999,-90,35,-456
2332,-287,-51,997,-71,56,-456
2333,-294,-72,999,-6,56,-438
2334,-298,-80,1006,35,50,-450
2335,-299,-96,1021,5,27,-479
2336,-297,-99,1004,-73,5,-500
2337,-297,-88,1013,-114,15,-555
2338,-295,-80,1015,-155,5,-559
2339,-285,-80,1014,-159,-28,-557
2340,-295,-64,1018,-133,-43,-559
2341,-300,-79,1004,-86,-47,-553
2342,-305,-79,1006,-65,-40,-547
2343,-303,-91,1009,-131,-16,-555
2344,-299,-89,990,-192,11,-577
2345,-311,-93,996,-249,19,-581
2346,-308,-103,993,-268,-2,-567
2347,-306,-107,989,-247,-24,-553
2348,-308,-108,973,-190,-40,-573
2349,-304,-120,981,-137,-40,-594
2350,-306,-118,1004,-157,-30,-604
2351,-310,-123,985,-231,-14,-625
2352,-310,-124,977,-252,-2,-657
2353,-319,-124,964,-223,19,-715
2354,-312,-143,939,-172,58,-799
2355,-318,-134,951,-114,97,-850
2356,-307,-142,966,-81,126,-864
2357,-302,-126,979,-49,105,-885
2358,-305,-128,974,-18,68,-903
2359,-314,-129,999,-30,72,-942
2360,-310,-130,969,-73,68,-954
2361,-308,-127,961,-131,48,-961
2362,-311,-121,954,-141,48,-1012
2363,-305,-110,952,-118,78,-1000
2364,-301,-96,958,-73,126,-993
2365,-293,-98,978,-45,130,-1008
2366,-292,-71,971,-14,126,-1006
2367,-297,-77,981,-32,144,-1008
2368,-292,-67,981,-40,171,-979
2369,-302,-85,986,-84,193,-940
2370,-311,-110,999,-120,179,-940
2371,-300,-114,1002,-127,160,-983
2372,-308,-108,998,-163,111,-1030
2373,-307,-102,988,-116,62,-1069
2374,-320,-85,994,-55,23,-1071
2375,-303,-81,991,5,37,-1036
2376,-304,-79,982,60,42,-1030
2377,-303,-67,983,76,74,-1036
2378,-303,-40,996,58,119,-1004
2379,-286,-49,1001,3,158,-954
2380,-295,-61,993,-69,162,-938
2381,-296,-51,991,-137,148,-928
2382,-302,-60,992,-167,119,-915
2383,-309,-87,954,-176,117,-930
2384,-313,-97,930,-122,128,-971
2385,-315,-96,936,9,164,-1032
2386,-318,-95,957,173,224,-1075
2387,-314,-78,997,257,240,-1065
2388,-314,-85,999,236,236,-1022
2389,-306,-74,1004,164,185,-959
2390,-307,-58,1004,111,128,-893
2391,-300,-68,993,142,72,-776
2392,-326,-98,964,189,9,-733
2393,-303,-111,943,177,42,-700
2394,-298,-120,945,265,134,-778
2395,-315,-117,983,318,228,-934
2396,-315,-92,1001,257,332,-1004
2397,-309,-75,1016,158,369,-1028
2398,-302,-63,992,9,343,-1043
2399,-302,-56,986,-73,298,-1018
2400,-293,-31,1003,-43,294,-959
2401,-280,-25,997,142,236,-918
2402,-302,-12,1035,314,113,-885
2403,-308,-27,1049,404,78,-852
2404,-318,-31,1037,425,70,-834
2405,-313,-40,1032,371,58,-819
2406,-310,-36,1000,179,125,-817
2407,-301,-32,1003,93,150,-815
2408,-310,-21,1006,0,189,-823
2409,-314,0,1009,-53,216,-786
2410,-310,-14,1032,-61,248,-758
2411,-311,-26,1028,64,250,-725
2412,-307,-9,1059,167,175,-700
2413,-299,27,1079,214,138,-680
2414,-287,15,1060,203,97,-698
2415,-292,30,1052,128,0,-713
2416,-278,42,1012,50,-45,-668
2417,-284,46,976,58,-57,-618
2418,-276,69,985,197,-24,-567
2419,-267,66,993,343,42,-475
2420,-268,45,1017,457,78,-430
2421,-260,42,1046,455,82,-399
2422,-264,34,1053,343,89,-375
2423,-273,38,1031,189,78,-358
2424,-274,39,1028,87,66,-325
2425,-281,35,1010,68,50,-280
2426,-279,38,1020,78,0,-209
2427,-282,26,1014,89,5,-167
2428,-288,25,1005,142,0,-145
2429,-301,11,1010,193,7,-118
2430,-297,11,1041,228,35,-98
2431,-292,1,1068,232,54,-69
2432,-287,9,1084,193,42,-51
2433,-288,13,1105,171,3,-12
2434,-297,-2,1119,187,-51,21
2435,-304,0,1145,283,-96,64
2436,-320,-12,1194,466,-112,56
2437,-333,-6,1301,638,-135,93
2438,-355,-24,1380,738,-190,115
2439,-369,-40,1473,791,-290,95
2440,-366,-46,1553,712,-348,103
2441,-381,-49,1675,480,-442,58
2442,-410,-54,1754,277,-551,39
2443,-424,-36,1810,134,-784,33
2444,-437,-37,1831,220,-1114,64
2445,-459,-25,1854,423,-1374,99
2446,-452,-27,1886,566,-1579,156
2447,-461,-34,1900,574,-1770,203
2448,-458,-38,1920,449,-1948,261
2449,-461,-58,1913,220,-2125,292
2450,-476,-63,1899,15,-2336,257
2451,-484,-67,1875,-88,-2581,218
2452,-483,-67,1844,-229,-2860,164
2453,-477,-48,1754,-331,-3239,117
2454,-476,-50,1642,-368,-3557,111
2455,-488,-59,1507,-354,-3719,119
2456,-474,-70,1422,-372,-3792,128
2457,-454,-64,1318,-485,-3852,125
2458,-412,-83,1150,-514,-3930,103
2459,-373,-64,993,-491,-3920,31
2460,-327,-47,867,-438,-3799,9
2461,-243,1,792,-358,-3680,1
2462,-177,39,725,-196,-3663,-12
2463,-128,90,654,-79,-3667,21
2464,-88,104,558,-125,-3674,150
2465,-57,94,402,-167,-3694,271
2466,-38,49,226,-43,-3581,353
2467,4,17,80,95,-3323,435
2468,53,1,4,169,-2918,421
2469,121,11,-35,187,-2477,408
2470,157,35,-45,148,-2043,392
2471,200,65,-34,162,-1690,435
2472,243,81,-27,263,-1418,523
2473,259,74,-5,406,-1239,619
2474,264,62,27,441,-1071,699
2475,259,53,23,308,-893,757
2476,257,48,9,144,-717,802
2477,248,21,-33,83,-518,865
2478,237,-29,-78,212,-247,890
2479,248,-67,-66,392,130,892
2480,255,-73,-19,498,529,832
2481,240,-89,38,669,865,777
2482,205,-106,162,824,1169,708
2483,222,-106,276,757,1384,664
2484,208,-101,353,486,1480,605
2485,197,-92,410,130,1576,533
2486,189,-75,428,-245,1740,533
2487,170,-59,476,-323,1841,564
2488,125,-43,552,7,1935,603
2489,79,-70,612,460,1990,681
2490,46,-104,680,718,2031,689
2491,12,-118,745,720,2111,628
2492,11,-107,812,615,2205,572
2493,-10,-70,892,537,2271,507
2494,-43,-49,990,468,2324,468
2495,-73,-61,1073,443,2351,533
2496,-106,-69,1142,519,2316,533
2497,-137,-92,1198,544,2253,490
2498,-145,-112,1231,443,2214,460
2499,-159,-105,1262,310,2205,404
2500,-156,-77,1336,207,2167,322
2501,-164,-24,1365,150,2087,261
2502,-175,3,1379,134,1955,300
2503,-203,-2,1381,228,1804,353
2504,-236,-31,1382,421,1744,396
2505,-226,-62,1438,453,1755,439
2506,-244,-67,1509,425,1767,375
2507,-270,-60,1602,306,1744,322
2508,-264,-73,1650,189,1671,296
2509,-280,-71,1665,111,1492,228
2510,-284,-83,1709,64,1312,152
2511,-262,-60,1762,-45,1115,109
2512,-248,-23,1798,-125,865,99
2513,-246,3,1839,-106,611,113
2514,-234,32,1904,-67,398,185
2515,-252,36,1977,37,179,257
2516,-288,13,2036,152,-49,292
2517,-340,-1,2048,119,-223,318
2518,-341,-28,2048,-67,-375,357
2519,-348,-61,2048,-360,-667,257
2520,-368,-65,2048,-651,-1202,214
2521,-390,-70,2042,-760,-1686,171
2522,-381,-63,1948,-661,-2059,66
2523,-345,-22,1859,-614,-2317,0
2524,-331,24,1792,-643,-2563,-42
2525,-308,33,1688,-649,-2782,-53
2526,-276,59,1549,-745,-2952,-47
2527,-244,54,1383,-895,-3075,-14
2528,-191,98,1240,-1022,-3092,17
2529,-167,136,1147,-1069,-3059,54
2530,-124,155,1060,-1008,-3004,150
2531,-88,149,966,-897,-2991,253
2532,-84,89,853,-754,-3014,357
2533,-64,73,792,-579,-2975,416
2534,-37,24,704,-586,-2899,464
2535,-17,1,633,-678,-2870,460
2536,9,-12,539,-706,-2770,451
2537,29,-13,481,-618,-2643,447
2538,43,-43,438,-473,-2495,429
2539,73,-67,370,-309,-2381,439
2540,69,-92,343,-143,-2301,396
2541,109,-95,336,-159,-2122,343
2542,174,-77,264,-426,-1901,304
2543,225,-49,220,-774,-1719,267
2544,244,-30,152,-926,-1538,250
2545,256,-22,92,-897,-1372,326
2546,284,-56,32,-620,-1202,468
2547,289,-97,3,-65,-963,556
2548,288,-127,30,480,-686,634
2549,283,-151,29,833,-432,652
2550,295,-126,59,951,-206,593
2551,304,-96,62,804,54,521
2552,311,-77,63,589,275,503
2553,310,-66,55,525,478,468
2554,296,-34,51,599,664,464
2555,266,-58,65,732,861,507
2556,249,-50,68,751,1210,498
2557,247,-26,135,511,1654,515
2558,228,27,248,263,2101,550
2559,232,52,351,232,2429,644
2560,209,52,449,519,2501,755
2561,155,46,544,914,2480,818
2562,91,10,630,1171,2476,867
2563,42,-6,738,1273,2527,843
2564,-25,-10,827,1083,2654,830
2565,-70,-16,890,818,2791,853
2566,-130,-49,944,789,2796,839
2567,-183,-108,968,900,2802,775
2568,-207,-118,1036,982,2814,732
2569,-212,-104,1135,1054,2824,585
2570,-225,-58,1215,1121,2755,474
2571,-224,-29,1277,1099,2664,421
2572,-218,-4,1293,929,2541,416
2573,-227,5,1314,751,2429,417
2574,-246,-3,1288,650,2310,447
2575,-305,-54,1277,597,2250,447
2576,-327,-99,1276,460,2341,414
2577,-340,-104,1346,279,2464,343
2578,-326,-106,1394,175,2474,250
2579,-288,-91,1412,179,2335,185
2580,-269,-39,1429,300,2107,121
2581,-256,18,1456,447,1955,80
2582,-241,63,1496,414,1843,125
2583,-263,62,1503,296,1687,185
2584,-296,62,1495,177,1535,232
2585,-315,18,1447,111,1433,322
2586,-336,-33,1419,107,1335,357
2587,-374,-91,1364,85,1289,322
2588,-366,-143,1319,-4,1291,232
2589,-338,-126,1312,-86,1324,115
2590,-317,-58,1367,-122,1320,9
2591,-292,-11,1387,-110,1224,7
2592,-281,19,1370,-83,1007,29
2593,-311,30,1345,-79,755,66
2594,-306,0,1272,-75,642,107
2595,-321,-13,1234,-53,570,152
2596,-328,-34,1206,13,476,146
2597,-345,-53,1154,37,443,125
2598,-339,-51,1182,29,500,64
2599,-322,-35,1198,0,582,21
2600,-321,-34,1226,-34,531,-28
2601,-309,-1,1231,-96,445,-75
2602,-294,-8,1206,-221,351,-53
2603,-292,20,1165,-278,248,-51
2604,-286,17,1123,-299,171,-42
2605,-292,9,1106,-227,101,5
2606,-297,10,1097,-77,74,7
2607,-299,-6,1090,15,60,44
2608,-296,6,1109,39,87,29
2609,-290,0,1130,-34,74,17
2610,-301,-16,1113,-122,37,-4
2611,-304,-20,1101,-217,-28,-32
2612,-301,-18,1067,-315,-73,-53
2613,-284,-6,1071,-391,-118,-71
2614,-278,8,1052,-415,-167,-63
2615,-284,18,1033,-333,-231,-55
2616,-291,16,1000,-194,-260,-28
2617,-286,-9,992,-149,-213,-4
2618,-280,-26,981,-149,-137,-20
2619,-285,-41,1000,-124,-55,-34
2620,-266,-28,1004,-116,11,-43
2621,-262,-29,1032,-147,31,-65
2622,-257,-32,1030,-180,19,-67
2623,-271,-21,1010,-202,-34,-83
2624,-267,-21,1017,-204,-69,-69
2625,-273,-36,997,-168,-108,-51
2626,-275,-39,1020,-81,-145,-65
2627,-266,-28,994,-40,-167,-43
2628,-271,-49,997,-20,-192,-18
2629,-280,-64,973,-38,-180,-38
2630,-288,-85,959,-67,-118,-40
2631,-272,-82,998,-63,-36,-73
2632,-280,-109,1021,-28,15,-137
2633,-271,-93,1037,-24,-2,-190
2634,-274,-78,1031,-36,-57,-225
2635,-250,-60,1047,-47,-124,-247
2636,-246,-51,1036,-51,-200,-268
2637,-265,-32,1014,-45,-274,-231
2638,-256,-58,999,-61,-331,-186
2639,-273,-57,981,-102,-331,-153
2640,-273,-80,948,-100,-284,-147
2641,-291,-95,940,-55,-192,-168
2642,-271,-103,968,15,-81,-229
2643,-278,-101,979,44,-8,-284
2644,-271,-87,999,11,33,-377
2645,-266,-79,1026,-110,29,-407
2646,-262,-55,1027,-184,-2,-409
2647,-263,-46,1029,-208,-34,-391
2648,-250,-45,1014,-229,-90,-352
2649,-260,-57,1016,-252,-137,-331
2650,-275,-64,1027,-264,-143,-334
2651,-277,-81,1020,-280,-104,-333
2652,-270,-97,1016,-252,-34,-372
2653,-275,-81,994,-208,3,-401
2654,-276,-90,1018,-141,21,-405
2655,-275,-80,1014,-45,7,-422
2656,-272,-66,1036,-14,-30,-463
2657,-268,-51,1035,-34,-2,-514
2658,-269,-34,1041,-114,-10,-518
2659,-263,-49,1044,-176,-8,-530
2660,-275,-36,1050,-208,-12,-524
2661,-266,-50,1039,-245,-20,-520
2662,-273,-50,1025,-252,-63,-518
2663,-268,-34,989,-188,-71,-514
2664,-266,-39,977,-145,-43,-499
2665,-271,-35,987,-86,-38,-469
2666,-270,-46,974,-77,-10,-450
2667,-272,-55,996,-90,35,-444
2668,-270,-60,1005,-96,68,-434
2669,-255,-81,1030,-135,80,-454
2670,-278,-71,1004,-174,58,-506
2671,-267,-69,1029,-170,66,-534
2672,-259,-75,1019,-188,76,-551
2673,-277,-67,1017,-137,15,-594
2674,-251,-60,1001,-88,-2,-608
2675,-253,-41,1004,-38,-12,-608
2676,-267,-46,1003,35,11,-581
2677,-262,-38,1025,17,68,-569
2678,-247,-54,1018,-26,76,-553
2679,-259,-55,1018,-81,21,-526
2680,-258,-63,1004,-108,25,-530
2681,-282,-69,1002,-114,-28,-526
2682,-280,-93,981,-40,-38,-567
2683,-270,-79,972,72,21,-612
2684,-277,-69,1004,115,46,-604
2685,-262,-63,1033,175,56,-583
2686,-257,-66,1038,167,42,-565
2687,-264,-62,1034,105,-49,-577
2688,-264,-61,1026,15,-96,-557
2689,-262,-58,1024,-65,-88,-526
2690,-263,-77,1016,-106,-98,-500
2691,-270,-74,1011,-139,-114,-510
2692,-263,-77,981,-96,-100,-510
2693,-278,-82,996,0,-112,-500
2694,-279,-99,986,95,-96,-532
2695,-279,-97,990,113,-49,-559
2696,-279,-101,985,85,17,-592
2697,-264,-89,1009,5,60,-629
2698,-260,-72,1005,-106,85,-606
2699,-263,-82,1022,-118,80,-586
2700,-262,-80,1004,-61,29,-559
2701,-270,-104,1001,0,-12,-573
2702,-278,-114,1011,50,-38,-594
2703,-273,-114,983,31,-65,-612
2704,-286,-131,973,-30,-22,-600
2705,-274,-129,981,-81,48,-653
2706,-278,-123,971,-118,72,-680
2707,-287,-123,963,-127,93,-670
2708,-281,-129,976,-106,148,-686
2709,-269,-150,991,-73,162,-690
2710,-280,-147,1025,-124,105,-741
2711,-278,-145,1012,-198,78,-807
2712,-274,-116,1037,-280,74,-838
2713,-264,-106,1042,-260,41,-809
2714,-267,-87,1028,-221,-43,-766
2715,-272,-89,1018,-202,-135,-723
2716,-253,-91,973,-32,-116,-719
2717,-269,-88,960,-40,-108,-713
2718,-271,-123,959,-98,-63,-709
2719,-254,-117,975,-22,11,-760
2720,-259,-99,978,33,107,-864
2721,-255,-85,992,3,93,-918
2722,-261,-67,990,-53,41,-918
2723,-255,-80,1012,-84,5,-918
2724,-249,-50,1013,33,9,-907
2725,-242,-39,1002,78,-36,-885
2726,-241,-38,996,64,-110,-823
2727,-245,-45,989,11,-118,-774
2728,-262,-43,967,-20,-67,-780
2729,-263,-62,938,56,-26,-752
2730,-267,-88,947,173,72,-750
2731,-258,-70,976,261,179,-784
2732,-251,-59,995,263,236,-788
2733,-242,-44,1041,218,253,-784
2734,-226,-29,1045,130,189,-760
2735,-215,-8,1048,80,87,-741
2736,-218,11,1005,52,0,-688
2737,-222,21,1014,70,-45,-651
2738,-215,35,993,80,-40,-596
2739,-221,15,994,46,27,-538
2740,-221,3,980,70,91,-506
2741,-232,-8,982,146,152,-514
2742,-246,-18,994,242,207,-489
2743,-234,-25,1034,275,250,-461
2744,-240,-20,1039,189,236,-446
2745,-240,-25,1044,93,193,-409
2746,-235,-6,1038,39,125,-395
2747,-244,-10,1012,50,72,-377
2748,-235,0,1016,121,64,-321
2749,-237,-1,1005,162,68,-280
2750,-241,-14,1007,152,80,-264
2751,-250,-23,1008,95,117,-268
2752,-251,-33,988,68,189,-256
2753,-252,-34,1007,80,210,-235
2754,-255,-47,1016,173,218,-229
2755,-252,-58,1036,257,177,-215
2756,-255,-63,1048,257,146,-200
2757,-246,-43,1041,138,109,-188
2758,-253,-28,1030,35,60,-167
2759,-258,-45,1014,-2,56,-135
2760,-252,-45,992,11,95,-122
2761,-252,-45,997,46,107,-145
2762,-259,-60,1015,99,138,-159
2763,-262,-56,1035,150,146,-151
2764,-271,-56,1024,150,140,-139
2765,-264,-52,1053,95,146,-114
2766,-262,-52,1030,25,109,-88
2767,-267,-58,1034,-42,76,-79
2768,-270,-53,1045,-2,101,-75
2769,-290,-64,1084,42,85,-67
2770,-302,-58,1139,97,78,-38
2771,-299,-56,1179,171,54,-20
2772,-301,-53,1252,277,-22,5
2773,-295,-33,1359,359,-30,11
2774,-292,-26,1496,386,9,3
2775,-293,-29,1661,378,15,-28
2776,-296,14,1852,298,-49,-77
2777,-291,50,2001,160,-258,-67
2778,-306,96,2048,195,-508,-45
2779,-343,97,2048,402,-819,25
2780,-385,88,2048,646,-1112,103
2781,-408,105,2048,841,-1434,154
2782,-463,98,2048,875,-1836,207
2783,-451,148,2048,761,-2278,353
2784,-540,112,2048,726,-2708,486
2785,-636,88,2048,775,-2999,585
2786,-654,18,2048,699,-3356,785
2787,-741,-47,2048,626,-3930,865
2788,-804,-115,2048,474,-4504,814
2789,-838,-151,2048,183,-5030,763
2790,-842,-162,1993,-42,-5491,550
2791,-827,-106,1735,-163,-5702,285
2792,-787,-50,1498,-313,-5920,253
2793,-664,29,1176,-532,-5959,271
2794,-613,68,838,-672,-6014,236
2795,-524,122,601,-833,-5907,318
2796,-406,134,381,-868,-5452,464
2797,-315,102,243,-743,-5067,578
2798,-279,49,158,-438,-4807,593
2799,-219,-1,121,-61,-4551,541
2800,-141,-46,77,66,-4387,541
2801,-76,-57,-3,136,-4311,529
2802,-11,-54,-98,205,-4362,429
2803,50,-56,-211,308,-4403,382
2804,108,-38,-336,498,-4301,353
2805,198,15,-446,757,-4120,339
2806,254,42,-558,859,-3717,279
2807,285,87,-601,798,-3227,263
2808,354,105,-661,488,-2598,371
2809,403,97,-695,62,-2047,494
2810,424,74,-733,-200,-1571,589
2811,469,59,-757,-133,-1237,677
2812,490,82,-790,259,-1002,695
2813,499,84,-831,699,-758,761
2814,495,75,-855,986,-372,863
2815,483,74,-911,1058,134,986
2816,455,38,-928,1011,763,1082
2817,405,1,-897,992,1412,1146
2818,357,-73,-833,953,2064,1175
2819,321,-144,-729,886,2630,1119
2820,267,-202,-658,816,3031,986
2821,209,-192,-559,703,3341,734
2822,149,-138,-482,498,3691,519
2823,89,-77,-396,439,3955,412
2824,17,4,-300,556,4156,322
2825,-87,35,-175,818,4382,318
2826,-175,36,-31,1179,4640,400
2827,-281,9,154,1460,4953,404
2828,-349,-30,381,1521,5273,382
2829,-415,-49,614,1365,5535,371
2830,-445,-43,844,1007,5730,250
2831,-480,9,1040,560,5740,195
2832,-502,66,1242,300,5716,154
2833,-527,70,1425,193,5718,304
2834,-565,21,1544,253,5560,542
2835,-567,-28,1652,494,5339,589
2836,-664,-62,1650,525,5039,443
2837,-752,-140,1715,417,4748,482
2838,-738,-164,1747,300,4853,404
2839,-757,-167,1823,39,4863,263
2840,-731,-142,1946,-79,4828,214
2841,-735,-96,2048,-110,4832,85
2842,-691,-122,2048,-159,4552,128
2843,-706,-107,2048,-141,4117,89
2844,-661,-80,2048,-202,3648,-16
2845,-688,-18,2048,-272,3056,-77
2846,-685,5,2048,-319,2591,-45
2847,-676,34,2048,-55,2257,5
2848,-670,55,2048,228,2000,15
2849,-660,96,2048,318,1812,17
2850,-638,148,2048,326,1644,-51
2851,-679,212,2048,171,1308,-165
2852,-741,253,2048,-250,798,-53
2853,-752,220,2048,-649,154,140
2854,-733,186,2048,-887,-610,189
2855,-778,155,2048,-958,-1637,113
2856,-854,109,2048,-852,-2536,46
2857,-858,96,2048,-774,-3184,31
2858,-847,115,2048,-799,-3698,-63
2859,-865,149,2048,-934,-4069,-180
2860,-838,170,2048,-1145,-4375,-143
2861,-811,151,2048,-1313,-4696,-53
2862,-786,172,2042,-1379,-5049,-22
2863,-776,151,1885,-1485,-5352,39
2864,-739,119,1732,-1584,-5668,152
2865,-733,86,1591,-1637,-5981,207
2866,-682,56,1432,-1518,-6217,193
2867,-683,66,1325,-1403,-6309,66
2868,-652,40,1209,-1510,-6313,97
2869,-596,29,1038,-1639,-6299,125
2870,-534,48,850,-1698,-6266,27
2871,-498,49,709,-1588,-6176,1
2872,-428,57,594,-1346,-5997,66
2873,-357,50,462,-1012,-5827,146
2874,-315,18,379,-653,-5780,203
2875,-263,14,325,-446,-5647,240
2876,-202,-11,281,-540,-5432,357
2877,-146,-76,192,-663,-5352,443
2878,-112,-97,130,-627,-5338,447
2879,-49,-124,-7,-649,-5370,482
2880,-3,-134,-159,-405,-5368,447
2881,69,-115,-352,42,-5209,382
2882,116,-102,-531,419,-4795,253
2883,189,-37,-590,574,-4153,228
2884,301,-11,-621,500,-3278,361
2885,429,59,-612,308,-2629,392
2886,494,99,-630,113,-2237,365
2887,545,142,-659,74,-1973,458
2888,574,169,-688,166,-1733,583
2889,583,155,-759,351,-1491,751
2890,559,144,-835,699,-1172,843
2891,561,142,-880,966,-668,960
2892,558,111,-890,1128,-131,1078
2893,561,123,-845,1261,486,1138
2894,547,129,-770,1431,1064,1199
2895,531,113,-661,1683,1564,1292
2896,493,108,-586,1806,1923,1365
2897,425,45,-530,1832,2134,1398
2898,330,4,-514,1822,2316,1421
2899,249,-41,-482,1839,2574,1408
2900,170,-84,-422,1779,2943,1318
2901,123,-101,-393,1669,3296,1185
2902,55,-110,-326,1501,3679,1023
2903,-33,-101,-283,1507,4041,900
2904,-116,-95,-168,1830,4414,804
2905,-245,-106,-22,2175,4644,693
2906,-340,-126,143,2330,4906,566
2907,-425,-95,297,2169,5240,412
2908,-452,-82,482,1732,5644,289
2909,-437,-43,620,1287,5886,218
2910,-446,-8,735,1074,5847,265
2911,-450,63,864,1095,5757,236
2912,-462,191,1015,1148,5822,171
2913,-490,217,1167,1017,5933,353
2914,-574,157,1288,863,5972,636
2915,-642,102,1345,761,5896,835
2916,-697,-9,1368,642,5828,843
2917,-733,-73,1561,611,5849,785
2918,-734,-74,1771,429,6082,683
2919,-761,-76,1940,66,6019,736
2920,-749,-87,2048,21,5843,671
2921,-790,-62,2048,162,5570,537
2922,-778,-98,2048,207,5052,621
2923,-721,-152,2048,150,4330,613
2924,-725,-190,2048,35,3562,433
2925,-724,-193,2048,-149,3048,218
2926,-682,-203,1987,-323,2792,142
2927,-688,-171,1894,-325,2501,9
2928,-683,-140,1833,-204,2328,-108
2929,-662,-129,1816,-192,2384,-92
2930,-599,-120,1859,-202,2435,-129
2931,-545,-86,1895,-344,2298,-120
2932,-539,-82,1883,-352,1976,-125
2933,-543,-83,1858,-125,1558,-161
2934,-551,-100,1862,-2,1166,-170
2935,-553,-106,1820,56,861,-221
2936,-532,-87,1820,21,580,-303
2937,-540,-74,1760,-88,316,-366
2938,-520,-65,1680,-196,72,-352
2939,-506,-78,1574,-274,-120,-389
2940,-510,-75,1472,-358,-208,-420
2941,-482,-45,1408,-383,-196,-438
2942,-443,-39,1354,-303,-231,-430
2943,-432,-16,1307,-139,-303,-459
2944,-414,1,1248,19,-366,-463
2945,-397,11,1200,105,-483,-444
2946,-382,17,1155,150,-602,-454
2947,-368,42,1137,158,-737,-448
2948,-360,49,1070,126,-833,-444
2949,-348,68,1023,41,-877,-407
2950,-334,96,985,-51,-909,-336
2951,-332,98,919,-108,-905,-286
2952,-338,104,867,-88,-817,-204
2953,-329,96,850,-32,-711,-137
2954,-328,79,837,105,-536,-102
2955,-330,67,839,205,-360,-92
2956,-335,37,887,248,-252,-100
2957,-329,13,936,222,-223,-149
2958,-332,10,977,132,-290,-215
2959,-335,2,955,42,-393,-262
2960,-356,-4,960,15,-471,-288
2961,-344,8,953,41,-493,-301
2962,-319,21,941,41,-469,-284
2963,-324,34,955,-47,-438,-264
2964,-304,32,934,-94,-375,-198
2965,-315,38,920,-42,-317,-161
2966,-313,-1,943,-6,-254,-147
2967,-315,-8,962,-24,-186,-139
2968,-325,-43,1006,-84,-135,-155
2969,-322,-64,996,-133,-139,-170
2970,-341,-83,1031,-155,-194,-202
2971,-357,-104,1043,-102,-256,-211
2972,-357,-114,1035,-12,-311,-239
2973,-373,-114,1013,62,-385,-252
2974,-374,-146,1013,83,-407,-247
2975,-381,-155,1025,23,-381,-252
2976,-380,-165,1019,-59,-352,-309
2977,-374,-187,1021,-98,-305,-368
2978,-367,-187,1028,-92,-272,-465
2979,-365,-204,1031,-108,-286,-543
2980,-363,-204,1041,-90,-323,-616
2981,-367,-207,1050,-84,-360,-696
2982,-352,-199,1024,-81,-389,-772
2983,-341,-188,1009,-114,-403,-813
2984,-355,-185,990,-192,-407,-803
2985,-341,-196,988,-208,-387,-788
2986,-328,-174,978,-122,-383,-850
2987,-336,-180,967,3,-409,-903
2988,-326,-177,962,115,-446,-952
2989,-330,-165,967,144,-409,-1034
2990,-306,-158,959,66,-336,-1094
2991,-311,-158,964,-26,-309,-1182
2992,-315,-120,968,-94,-307,-1237
2993,-313,-110,985,-106,-282,-1223
2994,-304,-110,967,-96,-254,-1221
2995,-305,-98,973,-92,-284,-1223
2996,-303,-85,963,-8,-315,-1194
2997,-302,-82,959,85,-331,-1184
2998,-295,-69,954,197,-336,-1192
2999,-296,-67,962,287,-340,-1198
3000,-301,-71,961,251,-325,-1202
3001,-301,-75,940,126,-268,-1250
3002,-303,-83,955,-38,-178,-1311
3003,-298,-76,969,-247,-96,-1360
3004,-297,-43,936,-368,-84,-1368
3005,-293,-21,959,-397,-32,-1374
3006,-292,-16,937,-235,-100,-1336
3007,-301,-29,945,-22,-139,-1319
3008,-286,-33,938,111,-147,-1288
3009,-278,-27,959,111,-114,-1301
3010,-267,-10,972,33,-92,-1307
3011,-262,9,954,-38,-81,-1315
3012,-268,24,943,-137,-43,-1286
3013,-257,28,941,-204,19,-1209
3014,-266,3,918,-213,44,-1133
3015,-254,-7,930,-143,70,-1139
3016,-267,-13,952,-67,83,-1149
3017,-310,-22,987,68,138,-1104
3018,-209,-36,985,91,214,-1024
3019,-250,4,1024,162,107,-1131
3020,-266,15,1012,150,-24,-1129
3021,-257,12,1013,50,5,-1034
3022,-261,-3,987,-8,9,-954
3023,-275,-11,949,-77,5,-924
3024,-273,-38,927,-90,68,-895
3025,-282,-54,931,-32,169,-924
3026,-303,-60,936,66,228,-954
3027,-295,-79,956,171,253,-1004
3028,-299,-61,1002,236,236,-1032
3029,-320,-56,1017,236,189,-1022
3030,-256,-44,1003,214,152,-977
3031,-287,-15,968,193,66,-1014
3032,-273,-29,960,136,-8,-963
3033,-271,-23,944,80,1,-950
3034,-293,2,916,72,-14,-924
3035,-287,-26,872,214,11,-905
3036,-311,-56,851,447,21,-917
3037,-304,-69,861,623,115,-936
3038,-301,-48,881,771,224,-1000
3039,-282,-50,925,843,261,-1020
3040,-273,-9,957,804,279,-1061
3041,-270,5,981,628,242,-1034
3042,-270,24,958,386,250,-969
3043,-257,24,961,171,279,-917
3044,-248,16,959,64,314,-840
3045,-248,34,959,37,382,-799
3046,-246,28,972,175,447,-799
3047,-255,14,1016,347,437,-840
3048,-261,13,1037,365,480,-846
3049,-251,52,1069,322,490,-874
3050,-258,77,1092,177,472,-854
3051,-243,75,1078,85,421,-772
3052,-248,92,1105,91,332,-725
3053,-250,78,1089,125,242,-688
3054,-246,86,1067,203,193,-637
3055,-249,97,1071,222,160,-618
3056,-259,111,1047,257,152,-573
3057,-257,113,1076,257,181,-526
3058,-260,112,1062,193,232,-475
3059,-258,125,1069,152,240,-418
3060,-259,122,1067,113,261,-352
3061,-259,120,1050,117,283,-290
3062,-259,118,1063,125,257,-200
3063,-268,106,1063,177,246,-114
3064,-276,68,1075,201,228,-65
3065,-290,40,1069,214,195,-63
3066,-298,38,1075,173,175,-94
3067,-299,26,1078,150,154,-96
3068,-304,32,1085,171,146,-106
3069,-294,27,1111,113,150,-83
3070,-292,26,1111,42,152,-32
3071,-304,10,1118,0,111,7
3072,-311,-13,1130,42,54,54
3073,-305,-18,1161,181,50,76
3074,-297,-43,1208,361,7,78
3075,-316,-43,1302,458,-34,68
3076,-322,-47,1394,445,-32,9
3077,-337,-27,1490,333,-30,-55
3078,-355,-19,1585,265,-110,-36
3079,-386,12,1718,437,-276,-34
3080,-374,45,1883,755,-321,29
3081,-379,71,2048,1027,-299,201
3082,-389,84,2048,1359,-354,343
3083,-462,79,2048,1701,-497,451
3084,-591,41,2048,1964,-741,507
3085,-678,21,2048,1951,-1247,517
3086,-684,42,2048,1492,-1856,525
3087,-758,73,2048,1021,-2793,369
3088,-840,122,2048,656,-3825,285
3089,-881,148,2048,599,-4463,378
3090,-896,186,2048,755,-4932,433
3091,-921,250,2048,761,-5362,498
3092,-958,244,2048,562,-5764,656
3093,-980,233,2048,273,-6200,720
3094,-1005,186,2048,-6,-6583,736
3095,-992,147,2048,-170,-6954,769
3096,-1002,156,1965,-221,-7249,708
3097,-994,192,1887,-233,-7438,580
3098,-985,211,1801,-377,-7645,589
3099,-966,203,1553,-674,-8026,603
3100,-1003,178,1265,-799,-8372,511
3101,-994,132,970,-881,-8522,523
3102,-893,84,686,-1067,-8434,521
3103,-797,142,415,-1391,-8194,439
3104,-728,186,170,-1665,-7942,447
3105,-662,187,-65,-1217,-7737,597
3106,-559,151,-266,-194,-7458,705
3107,-457,142,-375,800,-7141,822
3108,-320,102,-513,1207,-6688,853
3109,-193,106,-626,1076,-6209,996
3110,-42,110,-797,1019,-5770,1142
3111,42,133,-916,1085,-5208,1085
3112,194,203,-1019,1068,-4690,1105
3113,311,219,-1173,919,-4288,1466
3114,439,173,-1376,728,-3899,1740
3115,527,111,-1552,466,-3338,1923
3116,597,73,-1707,330,-2665,1984
3117,611,-31,-1774,427,-1821,1970
3118,626,-143,-1765,765,-918,1929
3119,639,-192,-1668,1107,-237,1761
3120,616,-211,-1538,1220,285,1621
3121,603,-239,-1417,1187,728,1488
3122,604,-195,-1356,1009,1074,1320
3123,594,-185,-1307,794,1406,1152
3124,611,-109,-1304,671,1773,974
3125,630,11,-1241,443,2236,865
3126,590,72,-1190,474,2646,890
3127,536,134,-1152,863,2984,992
3128,439,112,-1148,1484,3328,1107
3129,335,65,-1073,1869,3859,1138
3130,246,25,-966,1878,4451,1050
3131,144,43,-860,1792,4947,945
3132,-8,42,-748,1681,5265,955
3133,-143,-18,-654,1537,5611,951
3134,-235,-82,-582,1386,5962,871
3135,-345,-85,-491,1203,6269,738
3136,-481,-59,-372,1113,6533,578
3137,-590,41,-211,1191,6890,357
3138,-723,95,20,1306,7261,289
3139,-816,95,236,1316,7482,261
3140,-866,166,424,1162,7574,283
3141,-978,260,692,1246,7529,386
3142,-1095,256,1029,1660,7605,613
3143,-1158,173,1371,2158,7714,798
3144,-1185,69,1668,1837,7857,724
3145,-1223,-68,1824,910,7773,636
3146,-1214,-148,1971,-53,7544,453
3147,-1199,-94,2048,-163,7328,167
3148,-1237,-103,2048,189,7054,-45
3149,-1201,-68,2048,271,6853,-204
3150,-1072,33,2048,-260,6414,-364
3151,-989,86,2048,-977,5542,-264
3152,-930,134,2048,-770,4927,-159
3153,-960,198,2048,37,4509,-26
3154,-970,234,2048,687,4242,58
3155,-1059,246,2048,992,4138,138
3156,-1031,211,2048,896,3824,236
3157,-1033,174,2048,707,3210,146
3158,-1063,220,2048,343,2330,-30
3159,-1122,232,2048,-350,1111,-75
3160,-1093,263,2048,-782,-49,-100
3161,-1093,319,2048,-1090,-1374,-114
3162,-1112,354,2048,-1217,-2510,-79
3163,-1137,386,2048,-1233,-3387,-47
3164,-1134,406,2048,-1284,-4002,21
3165,-1134,430,2048,-1309,-4569,56
3166,-1141,440,2048,-1375,-5120,74
3167,-1154,493,2048,-1594,-5573,171
3168,-1179,472,2048,-1684,-6016,257
3169,-1211,430,2048,-1635,-6499,339
3170,-1210,409,2048,-1645,-7043,429
3171,-1253,375,2048,-1731,-7522,417
3172,-1285,332,2048,-1803,-7979,421
3173,-1267,273,1793,-1836,-8268,562
3174,-1253,206,1498,-1711,-8360,599
3175,-1246,169,1300,-1364,-8243,494
3176,-1192,183,1070,-1364,-8245,468
3177,-1123,170,862,-1475,-8403,515
3178,-1045,196,602,-1538,-8549,511
3179,-950,183,304,-1577,-8776,525
3180,-860,186,17,-1446,-8899,546
3181,-758,198,-338,-1364,-8706,519
3182,-629,215,-695,-1233,-8315,621
3183,-484,261,-914,-901,-7583,779
3184,-275,250,-1071,-495,-6745,1023
3185,-101,255,-1139,-10,-6114,1248
3186,24,240,-1133,574,-5518,1513
3187,97,70,-1096,1162,-5137,1771
3188,154,-55,-1027,1255,-4850,1896
3189,260,-124,-1103,523,-4362,1832
3190,358,-158,-1226,-959,-4047,1634
3191,450,-67,-1364,-1983,-3735,1464
3192,574,18,-1603,-2061,-3276,1292
3193,671,54,-1751,-1233,-2713,1361
3194,738,49,-1764,-374,-1993,1601
3195,797,-31,-1651,402,-1170,1777
3196,803,-122,-1547,849,-422,1837
3197,821,-172,-1441,1066,74,1798
3198,819,-185,-1410,1064,396,1710
3199,771,-161,-1458,1046,587,1646
3200,736,-118,-1438,1265,990,1537
3201,696,-67,-1441,1613,1425,1585
3202,643,-22,-1398,1947,1888,1648
3203,597,41,-1343,2236,2402,1646
3204,532,79,-1309,2447,2955,1703
3205,439,104,-1215,2544,3568,1785
3206,356,85,-1151,2650,4039,1867
3207,233,22,-1087,2894,4341,1873
3208,82,6,-1032,3222,4708,1771
3209,-87,-20,-923,3447,5082,1732
3210,-225,-85,-803,3617,5445,1671
3211,-389,-140,-696,3660,5732,1496
3212,-545,-133,-618,3449,5949,1189
3213,-676,-62,-549,2898,6298,808
3214,-849,24,-468,2373,6642,533
3215,-948,111,-403,2140,6996,490
3216,-1160,192,-253,2458,7316,503
3217,-1310,309,123,3050,7849,425
3218,-1380,352,628,3423,8558,605
3219,-1459,287,1137,3146,8960,892
3220,-1438,225,1618,2224,9083,1009
3221,-1437,146,2048,1363,9152,1138
3222,-1479,22,2048,1019,8896,1255
3223,-1482,-110,2048,1402,8351,1226
3224,-1441,-298,2048,1746,7562,970
3225,-1412,-473,2048,1535,6652,458
3226,-1279,-459,2048,750,6195,-215
3227,-1114,-294,2048,-475,5796,-637
3228,-1113,-85,2048,-1116,5208,-866
3229,-1141,-5,2048,-991,4662,-737
3230,-1058,-42,2048,-532,4353,-450
3231,-974,-72,2048,-315,4080,-366
3232,-887,3,2048,-504,3900,-354
3233,-796,126,2048,-836,3775,-272
3234,-746,176,2048,-917,3509,46
3235,-710,130,2048,-670,3072,292
3236,-655,44,2048,-461,2542,554
3237,-675,-73,2048,-129,1970,494
3238,-668,-116,2048,271,1521,279
3239,-651,-122,2048,472,1240,0
3240,-645,-105,1983,564,1115,-272
3241,-646,-70,1928,447,1134,-493
3242,-625,10,1963,-6,1191,-553
3243,-540,62,1917,-313,1203,-446
3244,-531,95,1859,-334,947,-333
3245,-509,106,1805,-186,552,-163
3246,-488,89,1710,15,162,-8
3247,-509,49,1610,148,-243,74
3248,-472,23,1490,41,-450,111
3249,-472,-9,1352,-96,-594,35
3250,-513,-31,1241,-81,-553,-114
3251,-505,-34,1186,-159,-329,-200
3252,-495,-44,1171,-112,-122,-250
3253,-486,-8,1207,58,-143,-276
3254,-457,18,1221,212,-293,-194
3255,-437,50,1210,240,-565,-106
3256,-439,29,1215,169,-928,27
3257,-393,15,1055,78,-1239,95
3258,-411,54,950,9,-1422,-71
3259,-401,84,828,-28,-1393,-159
3260,-395,78,788,64,-1079,-211
3261,-386,83,809,369,-696,-264
3262,-376,76,877,664,-463,-274
3263,-366,67,936,769,-385,-247
3264,-381,51,1010,664,-399,-198
3265,-359,28,1037,402,-440,-124
3266,-381,3,1013,119,-565,-124
3267,-391,3,960,-90,-680,-135
3268,-385,-7,941,-221,-709,-135
3269,-373,-21,870,-176,-735,-135
3270,-386,2,853,21,-700,-165
3271,-379,-2,872,265,-510,-176
3272,-375,-17,931,488,-381,-180
3273,-382,-11,987,544,-348,-221
3274,-370,-14,1024,380,-366,-200
3275,-372,-44,1009,105,-379,-151
3276,-380,-62,1016,-94,-428,-157
3277,-378,-84,1016,-104,-514,-256
3278,-374,-80,1008,54,-586,-305
3279,-397,-89,1014,220,-676,-344
3280,-386,-88,1001,244,-692,-331
3281,-378,-84,1007,197,-670,-360
3282,-357,-84,1031,158,-616,-397
3283,-361,-87,1000,97,-596,-397
3284,-361,-116,984,-10,-579,-393
3285,-368,-134,972,-81,-526,-442
3286,-354,-135,991,-106,-479,-514
3287,-334,-118,988,-81,-475,-575
3288,-360,-119,990,15,-545,-616
3289,-360,-120,996,177,-616,-633
3290,-366,-113,1000,255,-633,-665
3291,-354,-126,991,265,-643,-649
3292,-350,-138,994,259,-625,-629
3293,-343,-136,975,179,-547,-708
3294,-346,-116,1000,70,-475,-766
3295,-330,-118,1016,0,-444,-739
3296,-339,-134,1018,-81,-463,-745
3297,-339,-143,1002,-118,-497,-780
3298,-340,-150,994,-127,-538,-833
3299,-346,-150,954,-86,-622,-958
3300,-349,-140,947,29,-661,-1032
3301,-322,-101,972,126,-643,-1071
3302,-321,-97,1006,169,-633,-1069
3303,-325,-114,990,44,-602,-1065
3304,-306,-106,957,-237,-594,-1084
3305,-324,-113,948,-405,-559,-1067
3306,-301,-113,922,-459,-504,-1071
3307,-292,-109,919,-370,-442,-1135
3308,-301,-99,919,-178,-379,-1217
3309,-280,-74,924,-38,-331,-1282
3310,-278,-46,948,80,-290,-1356
3311,-281,-24,955,148,-282,-1372
3312,-266,-8,976,123,-305,-1329
3313,-274,-11,990,-32,-290,-1280
3314,-273,-23,975,-227,-241,-1186
3315,-284,-51,950,-317,-231,-1131
3316,-274,-104,932,-239,-204,-1167
3317,-282,-98,957,-36,-180,-1354
3318,-278,-100,975,150,-157,-1500
3319,-276,-77,1001,238,-96,-1624
3320,-259,-17,1036,166,-71,-1665
3321,-251,10,1058,41,-108,-1614
3322,-249,38,1039,-67,-186,-1528
3323,-252,39,980,-71,-252,-1430
3324,-258,20,983,42,-268,-1323
3325,-262,-8,951,187,-252,-1219
3326,-271,-25,963,337,-180,-1258
3327,-266,-36,991,462,-106,-1315
3328,-266,-18,1040,462,-45,-1411
3329,-256,-12,1057,345,-69,-1469
3330,-255,6,1074,187,-122,-1516
3331,-262,32,1076,-22,-165,-1475
3332,-245,32,1023,-145,-198,-1401
3333,-255,29,1029,-145,-227,-1329
3334,-248,14,1032,-69,-206,-1262
3335,-261,-2,1020,128,-178,-1266
3336,-256,9,1046,419,-198,-1303
3337,-255,6,1045,552,-176,-1311
3338,-247,8,1039,501,-157,-1282
3339,-254,12,1032,384,-174,-1270
3340,-245,15,1021,287,-209,-1305
3341,-234,37,1017,166,-233,-1331
3342,-234,52,1015,111,-219,-1319
3343,-217,57,1015,97,-219,-1270
3344,-218,48,988,105,-247,-1250
3345,-225,60,976,89,-227,-1243
3346,-226,63,945,62,-190,-1165
3347,-224,47,929,150,-149,-1135
3348,-222,45,936,341,-118,-1147
3349,-214,52,974,414,-63,-1131
3350,-211,45,998,345,-45,-1106
3351,-211,34,999,273,-61,-1102
3352,-226,38,980,216,-116,-1108
3353,-238,33,973,212,-145,-1116
3354,-214,38,987,230,-131,-1102
3355,-210,33,982,337,-151,-1110
3356,-209,43,978,488,-176,-1112
3357,-202,56,1009,517,-157,-1084
3358,-194,63,1017,458,-135,-1040
3359,-208,57,1015,341,-143,-1012
3360,-211,62,994,316,-184,-932
3361,-222,27,994,330,-180,-895
3362,-229,4,994,255,-149,-887
3363,-227,8,978,115,-79,-903
3364,-228,-10,981,1,-28,-930
3365,-216,9,1003,54,-57,-979
3366,-237,18,1003,166,-86,-1032
3367,-216,16,1022,304,-77,-1014
3368,-210,3,1007,380,-104,-1000
3369,-212,18,996,373,-124,-1014
3370,-209,41,1026,337,-86,-952
3371,-191,33,1062,312,-88,-823
3372,-189,29,1051,226,-96,-795
3373,-203,2,1032,101,-125,-793
3374,-216,-9,1023,68,-147,-838
3375,-221,-20,990,89,-149,-913
3376,-215,-19,991,173,-124,-981
3377,-211,15,993,255,-75,-1038
3378,-208,20,1017,359,-53,-1032
3379,-193,20,1028,462,-24,-1012
3380,-198,18,1030,437,1,-999
3381,-204,11,1061,250,42,-977
3382,-185,24,1056,52,85,-961
3383,-175,37,1084,-157,64,-958
3384,-179,56,1063,-243,5,-961
3385,-177,57,1064,-186,-88,-907
3386,-196,56,1034,-16,-155,-854
3387,-201,42,1049,156,-196,-827
3388,-204,31,1032,242,-206,-795
3389,-194,20,1029,230,-167,-790
3390,-187,26,1029,154,-116,-815
3391,-176,49,1044,29,-43,-858
3392,-159,78,1036,-92,-42,-901
3393,-160,85,1025,-149,-83,-881
3394,-165,92,1007,-40,-106,-850
3395,-159,75,1022,91,-137,-786
3396,-164,54,1017,212,-161,-727
3397,-169,63,1023,277,-167,-698
3398,-176,62,1029,248,-182,-678
3399,-181,53,1021,238,-161,-649
3400,-176,63,1014,205,-116,-627
3401,-174,76,1023,171,-81,-622
3402,-172,71,1018,166,-42,-608
3403,-167,90,1017,113,-22,-577
3404,-169,68,1021,85,-47,-508
3405,-169,42,1024,85,-77,-487
3406,-166,40,1029,66,-100,-495
3407,-167,41,1031,44,-120,-471
3408,-174,31,1024,41,-114,-459
3409,-167,28,1023,50,-116,-446
3410,-163,21,1036,52,-81,-430
3411,-159,29,1027,15,-45,-420
3412,-157,40,1020,41,-81,-407
3413,-164,33,1008,128,-92,-356
3414,-160,44,1027,132,-65,-333
3415,-169,27,1035,66,-36,-368
3416,-167,9,1030,-2,-20,-370
3417,-156,18,1050,-14,-16,-379
3418,-158,32,1053,35,-65,-372
3419,-155,37,1063,105,-114,-362
3420,-153,34,1046,97,-133,-334
3421,-151,26,1016,78,-157,-307
3422,-161,32,1003,27,-139,-274
3423,-149,35,1023,-20,-86,-260
3424,-164,23,1019,-55,-38,-252
3425,-160,14,1024,-45,7,-249
3426,-150,23,1035,-20,19,-237
3427,-163,3,1029,9,11,-243
3428,-159,9,1050,42,5,-243
3429,-157,-2,1052,27,-61,-225
3430,-165,16,1057,-4,-124,-235
3431,-157,22,1055,-84,-159,-206
3432,-157,23,1028,-125,-165,-188
3433,-159,25,1018,-96,-165,-172
3434,-158,14,997,-30,-147,-153
3435,-166,6,972,1,-73,-149
3436,-150,5,985,-2,-8,-157
3437,-151,23,1007,3,42,-165
3438,-157,24,1014,7,76,-155
3439,-147,26,1034,11,52,-122
3440,-159,15,1027,-2,-4,-106
3441,-159,20,1042,9,-38,-83
3442,-156,2,1020,11,-42,-57
3443,-178,3,1023,5,-45,-51
3444,-165,3,1013,25,-34,-71
3445,-168,1,1014,-22,-14,-94
3446,-193,6,1025,-57,21,-71
3447,-163,13,1006,-133,105,46
3448,-134,-12,996,-110,173,-4
3449,-185,1,1028,-61,-2,-98
3450,-166,8,1025,-94,29,-22
3451,-167,-23,1044,-75,62,-12
3452,-177,-11,1034,-59,-14,-51
3453,-179,-1,1041,-53,-18,-49
3454,-170,-17,1044,-12,-22,-24
3455,-174,-11,1001,3,-32,-32
3456,-169,-16,1008,-6,-10,-42
3457,-175,-11,993,-6,25,-34
3458,-165,-12,1004,7,60,-38
3459,-162,-8,1012,46,74,-47
3460,-174,-8,1013,33,78,-49
3461,-156,-12,1033,-34,66,-26
3462,-162,-10,1029,-84,31,0
3463,-166,-32,1024,-75,5,-16
3464,-180,-21,1006,-2,-4,-14
3465,-185,-46,1009,87,0,-14
3466,-184,-22,1035,115,23,-34
3467,-178,-8,1049,76,60,-45
3468,-169,-12,1048,17,103,-36
3469,-170,-16,1037,-43,78,-36
3470,-182,-7,1025,-83,56,-20
3471,-178,-12,1038,-96,64,5
3472,-186,-9,1042,-79,56,21
3473,-181,-19,1041,-28,19,21
3474,-170,-13,1023,37,-12,-12
3475,-187,-25,1051,58,-47,-18
3476,-189,-31,1017,41,-63,-4
3477,-181,-26,1025,-12,-51,-12
3478,-171,-25,1025,-71,-8,-32
3479,-167,-14,1021,-96,13,-14
3480,-175,-24,1031,-57,29,-16
3481,-160,-9,1048,-49,23,-22
3482,-165,-26,1042,-47,-2,-6
3483,-169,4,1045,-53,7,-16
3484,-161,-8,1045,-92,3,5
3485,-176,-6,1045,-65,-32,31
3486,-174,-14,1024,-28,-32,48
3487,-179,-28,1016,-34,-8,44
3488,-173,-22,1028,-84,25,42
3489,-173,-27,1017,-122,54,27
3490,-170,-28,1013,-98,48,9
3491,-178,-26,1030,-42,31,29
3492,-185,-37,1027,19,-8,42
3493,-181,-38,1036,37,-40,35
3494,-185,-36,1045,11,-36,33
3495,-185,-43,1036,-40,-20,11
3496,-176,-36,1026,-86,-14,-16
3497,-178,-33,1033,-92,-10,-14
3498,-173,-19,1032,-71,0,-8
3499,-175,-17,1014,-57,5,9
3500,-185,-41,1028,-26,11,23
3501,-185,-55,1007,-8,21,15
3502,-185,-44,1021,-24,48,15
3503,-180,-54,1041,-67,76,15
3504,-187,-56,1047,-67,46,-12
3505,-181,-35,1057,-77,0,-42
3506,-185,-42,1060,-100,-38,-26
3507,-183,-28,1024,-102,-69,-28
3508,-171,-9,1046,-84,-84,-18
3509,-179,-24,1041,-59,-84,-10
3510,-171,-4,1029,-28,-67,-16
3511,-180,-4,1042,-8,-26,-22
3512,-179,-21,1053,25,13,-26
3513,-176,-15,1067,54,50,-22
3514,-176,-23,1137,91,44,-16
3515,-180,-9,1227,130,48,-32
3516,-185,23,1319,74,37,-53
3517,-186,53,1401,33,-32,-36
3518,-193,90,1502,105,-145,-28
3519,-197,96,1547,117,-286,27
3520,-200,93,1593,74,-405,85
3521,-217,86,1632,50,-538,111
3522,-223,78,1681,44,-639,146
3523,-232,43,1694,9,-772,164
3524,-228,39,1707,-38,-956,164
3525,-255,32,1707,-141,-1165,185
3526,-255,35,1694,-196,-1340,201
3527,-253,47,1658,-223,-1530,218
3528,-256,28,1625,-151,-1704,279
3529,-251,28,1626,-88,-1862,310
3530,-255,2,1614,-61,-2059,339
3531,-259,-36,1572,-94,-2221,335
3532,-255,-65,1508,-256,-2391,339
3533,-246,-93,1457,-436,-2543,306
3534,-238,-88,1403,-528,-2651,240
3535,-244,-84,1361,-516,-2749,179
3536,-230,-71,1311,-448,-2864,156
3537,-223,-97,1238,-401,-2993,89
3538,-204,-105,1144,-489,-3081,23
3539,-167,-81,1047,-670,-3083,-28
3540,-122,-52,965,-868,-3057,-73
3541,-82,-31,867,-1010,-3016,-118
3542,-42,6,791,-959,-2942,-151
3543,-12,34,727,-764,-2862,-122
3544,16,62,711,-450,-2829,-67
3545,20,69,685,-274,-2762,-40
3546,45,72,623,-196,-2754,54
3547,55,54,519,-129,-2754,156
3548,71,24,437,-108,-2651,271
3549,99,2,358,-149,-2483,328
3550,108,-38,295,-147,-2334,371
3551,135,-59,262,-139,-2110,357
3552,173,-44,217,-196,-1868,335
3553,203,-23,201,-288,-1590,296
3554,234,5,184,-334,-1379,271
3555,254,30,125,-276,-1204,261
3556,279,77,76,-249,-1002,292
3557,315,103,22,-217,-760,353
3558,330,123,-14,-16,-553,421
3559,332,144,-39,205,-301,482
3560,316,150,-55,431,-84,585
3561,308,130,-31,625,300,691
3562,261,87,6,705,593,761
3563,236,28,49,691,896,841
3564,210,-15,108,628,1214,859
3565,197,-51,170,501,1505,853
3566,185,-47,226,357,1748,800
3567,149,-75,301,193,1958,753
3568,140,-91,327,128,2091,732
3569,101,-74,390,189,2175,666
3570,76,-61,449,365,2255,638
3571,46,-60,496,568,2335,640
3572,5,-68,529,691,2460,609
3573,-28,-92,585,597,2658,621
3574,-33,-112,665,371,2894,638
3575,-55,-84,723,193,3076,572
3576,-79,-81,827,228,3203,572
3577,-108,-100,935,421,3236,597
3578,-141,-123,994,619,3128,593
3579,-188,-135,1064,724,3019,537
3580,-185,-146,1106,664,2994,478
3581,-180,-96,1166,435,3025,417
3582,-179,-53,1232,326,3005,455
3583,-191,-30,1280,433,2964,490
3584,-229,-33,1336,630,2890,533
3585,-268,-92,1367,794,2824,568
3586,-288,-123,1416,761,2769,494
3587,-307,-129,1481,582,2753,378
3588,-302,-96,1526,392,2675,285
3589,-304,-78,1573,326,2496,207
3590,-306,-51,1590,371,2312,207
3591,-306,-38,1635,437,2138,214
3592,-307,-27,1658,451,1986,224
3593,-315,-17,1672,347,1841,244
3594,-316,-35,1667,113,1687,263
3595,-334,-56,1658,-81,1585,292
3596,-321,-55,1680,-96,1462,292
3597,-346,-68,1695,21,1318,250
3598,-363,-54,1742,130,1193,210
3599,-354,-60,1791,132,1068,193
3600,-357,-65,1862,80,880,134
3601,-342,-44,1883,0,609,91
3602,-362,-46,1889,-83,281,78
3603,-373,-51,1884,-90,25,85
3604,-387,-66,1904,-98,-155,44
3605,-387,-52,1962,-221,-293,46
3606,-357,-45,2003,-348,-452,68
3607,-361,-45,2038,-342,-717,60
3608,-378,-37,2044,-268,-1016,37
3609,-390,-46,2048,-202,-1276,31
3610,-400,-42,2048,-233,-1583,-16
3611,-397,-9,2041,-413,-2002,-73
3612,-402,1,1966,-592,-2375,-83
3613,-393,23,1876,-672,-2678,-96
3614,-396,38,1775,-661,-2977,-40
3615,-400,-4,1639,-583,-3167,-18
3616,-389,-6,1559,-551,-3243,15
3617,-374,-16,1525,-629,-3245,13
3618,-346,14,1470,-793,-3286,-8
3619,-331,40,1392,-934,-3379,-30
3620,-293,14,1275,-1010,-3487,-18
3621,-282,12,1171,-1086,-3592,-32
3622,-261,4,1048,-1057,-3729,-22
3623,-239,-12,985,-926,-3784,-61
3624,-213,-6,909,-850,-3805,-57
3625,-202,-26,807,-760,-3811,-65
3626,-187,-28,713,-713,-3733,-98
3627,-144,-21,637,-743,-3571,-84
3628,-111,-20,574,-813,-3348,-83
3629,-68,-22,535,-836,-3182,-69
3630,0,-24,466,-801,-3079,-32
3631,25,-28,433,-786,-2997,-30
3632,62,-2,392,-700,-2918,-40
3633,106,39,366,-682,-2803,-14
3634,140,64,313,-731,-2725,64
3635,158,49,220,-651,-2653,138
3636,184,42,113,-461,-2495,162
3637,210,44,76,-379,-2127,177
3638,234,62,23,-495,-1700,177
3639,260,77,-20,-717,-1305,179
3640,283,97,-57,-819,-1030,267
3641,314,112,-84,-725,-795,365
3642,340,102,-130,-524,-635,490
3643,334,96,-187,-184,-508,599
3644,344,69,-193,162,-280,695
3645,321,46,-192,443,25,781
3646,318,33,-169,603,353,787
3647,329,51,-120,544,759,773
3648,337,55,-69,335,1119,794
3649,338,73,1,167,1425,806
3650,343,88,58,150,1673,847
3651,323,137,136,357,1855,896
3652,265,138,225,550,2054,996
3653,213,82,317,691,2224,1126
3654,161,56,429,785,2404,1130
3655,100,23,530,738,2587,1150
3656,57,-33,615,667,2718,1181
3657,-10,-58,697,693,2791,1136
3658,-28,-94,787,708,2880,1109
3659,-30,-85,849,687,2925,1068
3660,-54,-43,925,734,2873,1009
3661,-84,-15,992,808,2880,1001
3662,-101,-8,1066,828,2906,1093
3663,-124,-33,1097,839,2876,1166
3664,-158,-45,1126,794,2818,1195
3665,-204,-102,1100,658,2783,1271
3666,-257,-160,1104,568,2796,1302
3667,-300,-188,1142,587,2871,1248
3668,-293,-238,1250,724,2923,1181
3669,-285,-222,1340,800,2947,1009
3670,-269,-192,1411,751,2859,916
3671,-274,-177,1439,841,2677,833
3672,-296,-169,1457,978,2486,761
3673,-290,-169,1458,970,2326,738
3674,-292,-165,1472,861,2218,718
3675,-286,-155,1508,658,2181,679
3676,-282,-151,1505,476,2130,691
3677,-307,-159,1538,353,2044,652
3678,-320,-193,1547,257,2009,562
3679,-328,-186,1607,197,1927,503
3680,-340,-191,1638,128,1742,421
3681,-340,-167,1628,37,1503,326
3682,-347,-152,1638,-61,1279,314
3683,-339,-152,1596,-108,1017,326
3684,-355,-160,1535,-73,755,271
3685,-357,-149,1463,-43,564,214
3686,-355,-157,1430,-30,484,181
3687,-345,-154,1397,-67,462,171
3688,-340,-164,1384,-168,427,158
3689,-334,-144,1360,-229,384,95
3690,-312,-153,1326,-268,320,42
3691,-321,-135,1311,-290,248,17
3692,-299,-127,1281,-319,169,25
3693,-301,-133,1254,-307,54,21
3694,-297,-137,1213,-293,-53,-18
3695,-294,-132,1205,-333,-143,-36
3696,-288,-127,1171,-307,-196,-49
3697,-284,-131,1135,-231,-258,-77
3698,-264,-137,1115,-178,-278,-139
3699,-265,-108,1087,-163,-262,-192
3700,-257,-110,1069,-145,-227,-209
3701,-234,-104,1045,-151,-194,-227
3702,-240,-108,1050,-174,-237,-243
3703,-237,-92,1030,-194,-270,-262
3704,-226,-92,1002,-235,-290,-250
3705,-210,-70,1000,-272,-303,-272
3706,-200,-74,974,-282,-319,-252
3707,-209,-81,963,-258,-360,-229
3708,-211,-75,936,-221,-331,-229
3709,-199,-84,936,-225,-284,-202
3710,-199,-93,919,-231,-221,-196
3711,-191,-77,923,-131,-208,-206
3712,-217,-95,917,-49,-165,-213
3713,-216,-100,911,-32,-122,-219
3714,-193,-100,931,-81,-96,-223
3715,-187,-87,912,-124,-104,-247
3716,-201,-68,923,-36,-125,-239
3717,-200,-72,906,42,-100,-184
3718,-211,-104,925,37,-69,-159
3719,-218,-112,908,25,-24,-145
3720,-224,-121,929,9,78,-172
3721,-226,-136,944,-42,208,-192
3722,-225,-152,994,-69,261,-221
3723,-217,-143,1023,-61,205,-243
3724,-232,-152,1043,3,138,-307
3725,-237,-147,1021,39,111,-352
3726,-235,-148,1011,35,52,-375
3727,-238,-125,1006,54,23,-401
3728,-231,-121,1003,85,25,-389
3729,-227,-109,1006,138,21,-366
3730,-222,-126,1024,156,23,-374
3731,-221,-118,1006,87,60,-387
3732,-220,-121,986,-32,111,-405
3733,-231,-126,1001,-100,162,-454
3734,-231,-124,1034,-124,183,-469
3735,-225,-121,1035,-96,166,-491
3736,-229,-110,1040,1,103,-514
3737,-245,-114,1045,119,68,-532
3738,-243,-111,1055,128,82,-532
3739,-245,-101,1066,31,107,-524
3740,-243,-116,1049,-40,119,-526
3741,-244,-116,1037,-77,144,-563
3742,-241,-110,1047,-79,169,-604
3743,-246,-106,1036,-32,171,-602
3744,-246,-116,1047,-2,152,-612
