sequence,AccelerometerX,AccelerometerY,AccelerometerZ,GyroscopeX,GyroscopeY,GyroscopeZ
0,-256,-41,1009,104,-15,-61
1,-257,-32,995,51,-59,-71
2,-251,-34,987,14,-77,-83
3,-251,-24,957,-1,-75,-88
4,-252,-28,946,-19,-32,-86
5,-258,-32,961,-25,11,-65
6,-262,-33,962,-7,52,-34
7,-255,-20,979,55,85,-18
8,-249,-29,993,112,85,-4
9,-254,-30,988,112,69,21
10,-257,-29,1012,81,32,27
11,-248,-34,1003,46,7,21
12,-251,-33,983,-7,7,23
13,-262,-47,986,-44,21,23
14,-260,-40,999,-38,11,13
15,-262,-36,971,1,11,17
16,-251,-38,983,49,42,21
17,-256,-42,995,81,77,29
18,-261,-40,1005,73,109,42
19,-268,-40,989,75,112,29
20,-271,-41,1024,61,62,-6
21,-263,-32,1013,16,-3,-18
22,-267,-32,1006,-29,-54,-20
23,-271,-41,989,-42,-81,-6
24,-265,-39,982,-17,-79,-1
25,-260,-41,974,12,-46,17
26,-262,-48,963,51,-1,17
27,-268,-56,976,59,36,7
28,-270,-46,1003,67,58,-6
29,-264,-33,1014,73,44,-20
30,-263,-23,999,59,-18,-8
31,-264,-40,1010,44,-75,-16
32,-259,-35,991,14,-108,-20
33,-256,-37,989,-25,-110,-38
34,-260,-52,964,-48,-108,-44
35,-259,-40,957,-25,-83,-32
36,-264,-38,949,10,-52,-32
37,-273,-38,947,46,-5,-22
38,-254,-35,953,87,48,-12
39,-250,-26,983,108,62,-30
40,-257,-21,999,77,42,-20
41,-258,-34,1010,40,15,-6
42,-262,-32,1007,16,-15,1
43,-259,-31,980,-19,-32,1
44,-256,-40,989,-27,-46,7
45,-268,-38,965,-19,-34,-1
46,-259,-39,951,-7,-9,-10
47,-255,-35,961,10,25,-22
48,-254,-32,960,32,46,-36
49,-270,-35,964,55,54,-36
50,-265,-26,988,73,58,-36
51,-256,-36,994,71,40,-22
52,-261,-33,1013,51,-3,-8
53,-256,-31,969,28,-52,-18
54,-254,-32,955,16,-67,-30
55,-261,-32,952,10,-38,-30
56,-258,-34,956,24,21,-32
57,-255,-29,970,49,73,-32
58,-264,-29,992,71,93,-40
59,-255,-24,981,53,83,-42
60,-266,-27,1000,24,64,-34
61,-255,-17,989,14,56,-12
62,-255,-20,995,26,38,9
63,-256,-25,986,32,7,3
64,-266,-35,980,30,-5,-4
65,-267,-37,985,14,30,-20
66,-259,-23,981,5,56,-32
67,-258,-23,995,-1,64,-34
68,-258,-13,980,5,67,-18
69,-253,-32,975,16,85,-6
70,-260,-26,985,12,95,-4
71,-263,-27,965,12,79,13
72,-257,-37,966,51,48,15
73,-263,-30,980,89,19,9
74,-264,-28,966,57,19,7
75,-262,-34,973,38,46,5
76,-265,-32,979,30,69,-6
77,-264,-40,981,42,83,-14
78,-271,-38,981,40,99,-16
79,-263,-42,998,28,101,-26
80,-276,-33,983,14,116,-28
81,-269,-39,994,22,112,-61
82,-267,-43,995,12,81,-86
83,-285,-27,989,12,58,-96
84,-269,-19,999,28,58,-79
85,-275,-18,975,53,69,-47
86,-276,-27,986,57,64,-26
87,-271,-23,990,57,56,-20
88,-279,-27,982,46,58,-18
89,-280,-41,992,18,42,-24
90,-266,-36,993,-13,25,-49
91,-267,-31,989,-68,11,-69
92,-285,-38,967,-76,3,-83
93,-288,-35,964,-33,7,-79
94,-268,-33,970,30,19,-73
95,-268,-30,952,96,19,-79
96,-278,-46,977,118,44,-92
97,-266,-32,1009,94,44,-128
98,-276,-32,983,69,48,-161
99,-273,-32,989,63,30,-178
100,-270,-20,983,12,25,-184
101,-273,-30,971,-31,13,-186
102,-276,-18,951,-27,3,-184
103,-275,-11,952,-9,15,-163
104,-271,-16,972,22,28,-122
105,-274,-19,963,30,42,-100
106,-254,-24,961,32,67,-102
107,-268,-24,1002,3,103,-120
108,-276,-19,990,-23,132,-112
109,-265,-28,1001,-19,134,-92
110,-280,-22,1002,-1,85,-81
111,-274,-26,1015,40,36,-47
112,-280,-37,1015,59,7,-32
113,-291,-54,1008,28,-11,-49
114,-278,-42,977,-48,-24,-88
115,-283,-43,977,-103,-11,-102
116,-290,-46,960,-76,5,-104
117,-280,-44,971,-7,21,-106
118,-280,-37,958,40,34,-102
119,-285,-44,974,63,62,-116
120,-288,-52,993,71,85,-128
121,-288,-42,1000,63,71,-157
122,-282,-38,1001,8,42,-182
123,-291,-42,992,-29,7,-182
124,-281,-42,985,-9,-34,-167
125,-282,-34,989,46,-79,-167
126,-281,-46,966,49,-93,-163
127,-283,-42,967,34,-73,-174
128,-284,-36,966,26,-32,-174
129,-281,-35,943,30,-5,-182
130,-275,-44,955,26,3,-178
131,-280,-47,947,30,15,-192
132,-277,-30,949,20,32,-192
133,-268,-34,960,42,46,-182
134,-267,-17,960,100,34,-188
135,-278,-27,963,85,9,-184
136,-269,-14,967,26,11,-194
137,-273,-20,971,-79,26,-208
138,-270,-18,934,-144,34,-200
139,-262,-4,962,-120,40,-182
140,-264,4,946,-64,69,-135
141,-268,-19,950,10,107,-79
142,-261,-36,949,63,136,-42
143,-272,-40,961,75,155,-45
144,-273,-37,992,75,146,-88
145,-280,-33,1001,14,124,-118
146,-282,-37,990,-62,101,-133
147,-289,-29,1009,-99,77,-122
148,-285,-36,1000,-101,32,-100
149,-284,-53,991,-50,-36,-92
150,-271,-51,943,8,-34,-104
151,-291,-47,958,55,30,-94
152,-287,-40,971,87,118,-83
153,-287,-36,988,122,155,-73
154,-299,-31,1015,137,163,-61
155,-299,-42,1017,128,144,-79
156,-308,-39,1029,87,83,-96
157,-299,-26,1030,14,7,-104
158,-293,-28,1038,-60,-56,-106
159,-299,-19,1001,-91,-61,-104
160,-287,-19,1003,-95,-22,-75
161,-297,-31,987,-62,-7,-30
162,-301,-44,976,-7,3,-16
163,-306,-47,990,-3,7,-30
164,-292,-45,991,-38,-11,-67
165,-289,-38,992,-79,-48,-96
166,-293,-27,977,-72,-73,-92
167,-283,-29,972,-11,-69,-67
168,-287,-39,960,28,-52,-45
169,-289,-42,966,7,-28,-44
170,-288,-34,967,-64,3,-59
171,-292,-40,947,-97,36,-57
172,-294,-43,987,-60,54,-65
173,-281,-45,996,7,26,-96
174,-285,-33,990,8,-3,-79
175,-282,-32,983,-13,-16,-75
176,-273,-17,995,-21,-34,-61
177,-271,-28,980,-23,-52,-12
178,-283,-32,973,12,-59,21
179,-273,-37,943,55,-54,29
180,-286,-46,960,20,-46,21
181,-277,-46,939,-31,-13,9
182,-285,-43,956,-15,40,7
183,-290,-45,965,51,58,21
184,-276,-48,975,112,48,27
185,-279,-45,989,141,28,7
186,-276,-44,991,106,15,9
187,-278,-29,981,55,-26,5
188,-271,-33,973,40,-63,-12
189,-285,-31,976,24,-65,-1
190,-279,-26,962,20,-22,21
191,-285,-37,948,42,34,25
192,-283,-37,964,49,77,37
193,-284,-42,975,55,93,39
194,-284,-35,969,79,91,25
195,-290,-39,993,75,77,25
196,-287,-34,990,69,34,1
197,-280,-24,979,30,-7,-1
198,-273,-32,972,-33,-26,9
199,-283,-31,976,-29,-34,15
200,-288,-32,972,8,-32,7
201,-282,-34,961,20,-9,29
202,-287,-37,969,20,52,21
203,-281,-42,978,44,110,11
204,-295,-46,1024,79,134,27
205,-292,-47,1030,116,103,42
206,-305,-51,1048,141,44,21
207,-302,-48,1064,108,15,21
208,-309,-57,1076,79,7,-1
209,-317,-53,1079,67,13,-12
210,-321,-63,1104,51,46,-26
211,-332,-73,1140,-25,93,-53
212,-325,-77,1185,-31,142,-106
213,-343,-60,1239,7,157,-120
214,-350,-64,1310,89,151,-83
215,-353,-40,1384,202,134,-47
216,-443,-26,1490,407,58,-4
217,-429,-16,1588,633,-28,150
218,-458,-27,1667,716,-304,257
219,-516,-50,1720,712,-714,228
220,-510,-64,1732,536,-1001,314
221,-533,-80,1746,436,-1304,335
222,-573,-88,1749,462,-1571,339
223,-601,-125,1770,551,-1755,347
224,-599,-123,1769,585,-1989,339
225,-610,-139,1758,591,-2311,292
226,-606,-135,1746,624,-2645,257
227,-591,-117,1734,651,-2979,167
228,-589,-91,1724,600,-3317,107
229,-559,-81,1713,585,-3696,64
230,-520,-62,1658,569,-4071,76
231,-518,-28,1633,555,-4378,150
232,-516,-23,1599,651,-4632,296
233,-502,-25,1543,827,-4948,443
234,-513,-57,1490,1048,-5380,562
235,-509,-79,1377,946,-5749,568
236,-488,-76,1273,747,-6093,453
237,-446,-69,1124,587,-6413,378
238,-427,-78,960,436,-6579,326
239,-370,-73,834,307,-6604,228
240,-263,-47,710,344,-6515,74
241,-213,-25,573,487,-6466,-104
242,-139,2,450,651,-6403,-219
243,-81,45,341,749,-6177,-348
244,10,38,254,768,-5923,-397
245,47,106,159,534,-5636,-503
246,107,143,60,284,-5325,-594
247,241,172,-39,67,-4979,-588
248,329,240,-134,-77,-4579,-561
249,368,268,-221,-33,-4114,-391
250,449,308,-302,36,-3538,-231
251,523,344,-380,198,-2909,-192
252,582,376,-412,380,-2266,-98
253,619,435,-451,372,-1655,42
254,625,440,-453,501,-1016,253
255,633,404,-433,751,-446,519
256,620,371,-400,876,79,685
257,610,332,-349,1034,587,757
258,573,286,-265,1387,942,726
259,533,273,-192,1526,1165,648
260,516,266,-149,1327,1386,515
261,494,249,-112,936,1571,386
262,491,276,-75,464,1718,326
263,460,300,-50,163,1839,343
264,419,284,-66,198,1917,464
265,338,238,-80,200,2058,564
266,279,211,-82,-44,2368,525
267,238,187,-76,-480,2831,439
268,270,154,-32,-968,3343,439
269,255,79,5,-1216,3724,496
270,178,57,72,-1199,3780,404
271,180,162,116,-1197,3821,275
272,108,215,133,-1083,3903,443
273,-4,195,177,-784,4054,744
274,-52,179,201,-630,4310,966
275,-95,73,210,-478,4573,1122
276,-111,-82,256,-574,4847,1218
277,-138,-237,268,-976,5116,1035
278,-191,-365,315,-1552,5372,550
279,-147,-220,395,-2261,5763,-57
280,-81,43,516,-2148,6312,-241
281,-228,296,724,-197,6622,33
282,-313,371,979,2151,6771,798
283,-386,246,1255,3212,6898,1464
284,-444,104,1588,2518,6923,1558
285,-526,-34,1820,520,6556,933
286,-505,-145,1904,-2378,5966,468
287,-542,-146,1893,-4341,5339,210
288,-702,-96,1926,-3962,4952,121
289,-768,-195,2048,-2462,4929,529
290,-808,-302,2048,-1261,4757,796
291,-889,-371,2048,-331,4351,605
292,-893,-287,2048,-261,3886,292
293,-875,-197,2048,-1074,3181,240
294,-859,-187,2048,-1900,2222,378
295,-870,-227,2048,-2316,1292,456
296,-823,-250,2048,-2505,554,501
297,-842,-279,2048,-2298,13,611
298,-841,-323,2048,-1671,-306,769
299,-836,-400,2048,-986,-515,837
300,-833,-431,2048,-652,-747,656
301,-821,-421,2048,-773,-966,357
302,-792,-361,2048,-1003,-1284,56
303,-742,-309,2048,-982,-1825,-153
304,-703,-246,2048,-671,-2565,-77
305,-676,-221,1971,-329,-3239,76
306,-625,-239,1829,-64,-3684,160
307,-546,-222,1709,61,-3974,210
308,-489,-199,1620,151,-4171,222
309,-457,-171,1510,311,-4181,289
310,-437,-149,1437,542,-4093,353
311,-419,-125,1410,700,-4026,400
312,-390,-100,1411,755,-3942,433
313,-341,-81,1401,583,-4001,464
314,-342,-37,1410,587,-4290,474
315,-360,-16,1367,608,-4683,589
316,-323,-34,1316,397,-5007,773
317,-333,-43,1204,-44,-5401,929
318,-304,-75,1071,-318,-5636,970
319,-270,-104,947,-452,-5663,1050
320,-275,-127,873,-411,-5567,1050
321,-238,-131,793,-312,-5444,1062
322,-210,-140,724,-259,-5378,1042
323,-151,-141,681,-302,-5308,923
324,-101,-111,629,-531,-5268,816
325,-60,-91,550,-814,-5341,777
326,-17,-50,416,-904,-5372,705
327,16,-60,269,-765,-5196,630
328,108,-43,172,-523,-4772,644
329,175,-26,80,-251,-4231,613
330,263,-36,34,-50,-3669,589
331,340,-21,25,104,-3186,497
332,367,7,55,315,-2770,392
333,390,21,88,565,-2460,386
334,397,33,108,1061,-2270,421
335,415,27,118,1462,-2151,507
336,454,10,118,1608,-1995,587
337,456,-28,112,1651,-1739,658
338,456,-60,142,1567,-1450,652
339,483,-79,142,1364,-1190,611
340,485,-96,178,1143,-958,539
341,499,-35,231,1087,-653,361
342,527,7,288,1110,-405,296
343,538,16,314,983,-349,310
344,535,24,300,696,-399,253
345,519,34,254,372,-444,175
346,523,14,178,87,-427,150
347,509,23,91,-150,-272,103
348,514,7,16,-445,58,7
349,541,7,-27,-618,521,-45
350,546,-3,-53,-691,1038,-77
351,554,43,-53,-798,1536,-108
352,556,92,-43,-716,1880,-79
353,523,123,8,-284,1987,95
354,502,151,31,227,1954,378
355,441,131,43,639,1837,699
356,339,84,2,944,1823,958
357,269,22,-31,938,2017,1050
358,181,-2,-61,674,2464,925
359,162,-32,-65,471,3081,794
360,217,-24,6,335,3644,697
361,209,38,45,503,3978,667
362,210,41,130,1104,4167,908
363,195,94,235,1946,4196,1113
364,146,138,332,2682,4208,1322
365,49,84,411,2964,4276,1482
366,-9,48,509,2618,4530,1353
367,-15,-7,623,1839,4985,1003
368,-25,-92,754,741,5357,634
369,-78,-98,873,-146,5622,242
370,-79,-36,993,-263,5737,-18
371,-172,41,1087,514,5569,-110
372,-365,165,1251,1645,5470,95
373,-467,241,1494,2895,5577,665
374,-560,108,1726,3602,5575,1324
375,-569,-100,1991,3124,5413,1404
376,-533,-124,2048,1706,5034,837
377,-493,-80,2048,108,4398,304
378,-481,-2,2048,-677,3480,35
379,-514,22,2048,-552,2650,9
380,-527,-14,2026,-326,2052,87
381,-514,-35,1920,-320,1718,33
382,-504,-72,1804,-624,1523,-32
383,-507,-90,1697,-958,1429,-77
384,-469,-88,1609,-1148,1388,-90
385,-461,-86,1550,-1077,1255,-106
386,-403,-94,1494,-878,1122,-45
387,-377,-78,1443,-603,950,46
388,-339,-66,1440,-273,827,138
389,-316,-85,1433,34,782,128
390,-312,-60,1453,239,650,-10
391,-287,6,1463,214,427,-124
392,-259,40,1403,149,259,-194
393,-230,58,1342,20,132,-223
394,-250,63,1314,-77,26,-253
395,-248,71,1270,-148,67,-258
396,-257,111,1263,-294,150,-206
397,-247,82,1268,-322,161,-51
398,-255,56,1240,-267,120,66
399,-231,36,1207,-243,42,167
400,-236,-8,1177,-337,-118,232
401,-246,-21,1108,-429,-249,179
402,-227,-26,1067,-425,-331,42
403,-237,-23,1015,-456,-327,-83
404,-225,-19,999,-484,-186,-143
405,-223,-24,990,-406,36,-213
406,-222,-1,1024,-177,218,-219
407,-222,2,1044,-13,282,-215
408,-205,18,1102,8,204,-122
409,-206,4,1116,-101,3,7
410,-221,-20,1089,-228,-270,21
411,-234,-20,1045,-249,-388,-55
412,-228,-22,1000,-355,-352,-65
413,-220,-56,972,-421,-243,-90
414,-221,-85,944,-363,-87,-102
415,-217,-97,970,-228,21,-157
416,-213,-93,929,-48,54,-213
417,-212,-87,952,133,75,-262
418,-197,-53,1002,270,5,-313
419,-193,-15,1037,311,-145,-348
420,-189,-4,1048,286,-343,-358
421,-161,31,1017,137,-515,-395
422,-171,39,969,-93,-575,-346
423,-159,7,915,-230,-505,-264
424,-164,-36,880,-271,-343,-225
425,-178,-54,887,-204,-118,-235
426,-176,-48,913,-126,128,-213
427,-177,-36,964,-68,304,-219
428,-179,-19,975,48,378,-260
429,-178,2,1010,221,345,-272
430,-156,1,1063,335,194,-227
431,-178,0,1065,311,-67,-198
432,-182,0,1008,61,-243,-180
433,-189,-20,990,-222,-255,-169
434,-180,-30,943,-384,-181,-145
435,-183,-48,926,-372,-95,-133
436,-193,-72,906,-212,15,-124
437,-177,-77,936,-11,132,-165
438,-180,-66,950,153,191,-194
439,-160,-65,964,225,148,-223
440,-176,-65,997,317,54,-313
441,-177,-59,1022,329,-102,-434
442,-170,-35,1021,276,-249,-604
443,-180,20,1013,71,-302,-645
444,-176,50,1009,-70,-261,-491
445,-175,31,990,-46,-206,-284
446,-168,-15,998,67,-147,-172
447,-173,-23,993,110,-136,-139
448,-176,-47,989,67,-91,-147
449,-182,-48,990,14,-54,-180
450,-187,-45,1011,-7,-34,-258
451,-191,-40,1012,-11,-50,-307
452,-188,-33,1013,1,-63,-331
453,-179,-8,1003,-29,-56,-344
454,-165,33,1019,-40,-87,-305
455,-162,39,1019,49,-151,-211
456,-156,42,1032,157,-200,-67
457,-160,15,992,130,-190,66
458,-179,-15,962,-1,-79,136
459,-188,-52,967,-158,99,81
460,-195,-79,988,-212,235,-63
461,-202,-75,1009,-234,296,-221
462,-202,-60,1051,-220,275,-366
463,-191,-37,1044,-109,140,-454
464,-200,-14,1030,108,-13,-440
465,-186,-5,1030,255,-102,-376
466,-178,13,1019,294,-128,-301
467,-185,8,1023,182,-56,-237
468,-164,2,1011,-3,54,-235
469,-158,1,1002,-195,122,-260
470,-161,-20,999,-331,181,-284
471,-167,-27,991,-406,235,-297
472,-171,-42,1013,-331,235,-323
473,-174,-18,1032,-74,110,-354
474,-192,-9,1019,176,-30,-303
475,-197,-7,1029,344,-93,-223
476,-203,-11,1049,362,-65,-178
477,-192,1,1033,298,-30,-176
478,-211,4,1030,200,-15,-188
479,-206,0,1019,85,73,-188
480,-191,-20,1018,-7,165,-180
481,-200,-18,1031,-91,181,-213
482,-196,-33,1012,-173,95,-213
483,-170,-34,995,-105,-7,-206
484,-193,-31,975,49,-108,-219
485,-192,-28,983,147,-138,-210
486,-193,-22,996,186,-104,-206
487,-205,-17,965,151,-32,-206
488,-198,-32,982,106,77,-213
489,-196,-31,1004,71,157,-213
490,-198,-33,1009,124,138,-213
491,-191,-16,1027,210,75,-225
492,-187,-26,1039,225,-30,-200
493,-204,-28,1011,208,-175,-202
494,-193,-32,999,198,-263,-204
495,-193,-40,978,200,-294,-225
496,-181,-31,963,186,-233,-286
497,-181,-23,960,128,-65,-342
498,-183,-20,976,16,97,-379
499,-176,-15,988,-79,163,-424
500,-156,24,1013,-74,153,-422
501,-147,27,1018,7,134,-346
502,-150,20,1034,171,48,-282
503,-163,4,1066,153,-58,-253
504,-152,2,1027,20,-120,-249
505,-168,-9,1035,-44,-171,-227
506,-185,-24,995,-66,-177,-213
507,-194,-31,986,-21,-100,-223
508,-217,-47,980,71,44,-254
509,-211,-43,1010,194,161,-290
510,-200,-33,1040,282,146,-329
511,-214,-17,1050,296,44,-360
512,-188,31,1065,272,-81,-327
513,-180,30,1049,290,-210,-225
514,-180,13,1036,247,-335,-184
515,-190,12,1025,112,-405,-182
516,-190,-8,985,-97,-391,-180
517,-187,-14,959,-159,-306,-206
518,-191,-43,942,-89,-179,-245
519,-186,-50,941,57,-16,-307
520,-192,-34,965,173,95,-399
521,-185,-12,987,214,138,-460
522,-172,21,1026,249,114,-493
523,-153,80,1072,216,56,-442
524,-123,75,1076,135,-110,-278
525,-141,66,1028,57,-315,-190
526,-151,40,999,-85,-386,-124
527,-156,15,959,-257,-333,-47
528,-174,-13,922,-277,-204,-34
529,-173,-41,901,-132,-1,-69
530,-186,-52,907,-1,204,-149
531,-173,-51,934,55,386,-266
532,-175,-50,952,18,497,-395
533,-165,-14,996,26,489,-571
534,-153,41,1024,128,435,-596
535,-151,73,1052,231,294,-495
536,-153,93,1069,296,54,-290
537,-173,38,1024,315,-169,-88
538,-182,-13,966,294,-243,-38
539,-196,-35,927,132,-153,-100
540,-199,-56,926,-87,42,-196
541,-198,-56,956,-202,214,-294
542,-193,-36,962,-169,304,-374
543,-194,0,1006,-54,314,-395
544,-189,7,1017,122,267,-379
545,-188,19,1028,325,138,-348
546,-187,32,1059,356,5,-286
547,-190,35,1068,229,-104,-223
548,-184,17,1040,22,-140,-225
549,-180,-5,1015,-234,-118,-260
550,-187,-19,1006,-406,-73,-313
551,-185,-26,978,-464,-11,-344
552,-182,-25,971,-427,58,-340
553,-191,-27,995,-294,110,-358
554,-184,-20,1007,12,81,-360
555,-182,-26,1001,286,1,-313
556,-183,-26,1018,423,-69,-301
557,-182,-1,1029,354,-100,-309
558,-183,-2,1028,186,-104,-303
559,-179,11,1019,36,-100,-301
560,-176,0,1009,-113,-108,-292
561,-185,-17,1002,-234,-118,-292
562,-183,-24,988,-238,-108,-276
563,-182,-27,972,-70,-128,-260
564,-180,-47,969,157,-138,-256
565,-183,-46,969,272,-118,-290
566,-174,-13,980,298,-54,-344
567,-162,24,1007,235,11,-342
568,-141,38,1019,155,28,-307
569,-159,31,1032,42,-1,-284
570,-161,23,1013,-126,-9,-262
571,-188,3,1032,-261,-1,-264
572,-185,-18,1005,-318,3,-280
573,-181,-15,998,-275,-32,-311
574,-190,-16,1010,-136,-67,-303
575,-190,-21,1000,10,-95,-260
576,-188,-21,1006,135,-95,-245
577,-180,0,1023,130,-87,-219
578,-174,-15,1028,32,-75,-213
579,-166,-14,1015,-64,-93,-221
580,-170,-3,994,-138,-87,-223
581,-163,-8,1011,-202,-46,-208
582,-164,-18,989,-218,-44,-157
583,-168,-29,1003,-140,-52,-159
584,-172,-46,989,-21,-58,-190
585,-175,-46,954,46,-58,-219
586,-201,-54,985,46,7,-233
587,-177,-56,998,8,103,-223
588,-187,-56,1012,10,107,-241
589,-190,-59,1029,32,50,-241
590,-189,-48,1037,44,15,-245
591,-179,-59,1032,44,-34,-243
592,-170,-58,1053,-42,-110,-268
593,-169,-56,1018,-152,-143,-297
594,-171,-60,1006,-212,-126,-327
595,-177,-46,1004,-206,-97,-385
596,-178,-48,1000,-195,-42,-374
597,-186,-47,996,-138,-3,-342
598,-163,-58,1006,-95,34,-305
599,-169,-63,1003,-103,58,-290
600,-163,-71,1003,-103,73,-299
601,-174,-80,995,-9,28,-344
602,-171,-66,1001,65,-42,-387
603,-177,-51,1013,36,-69,-415
604,-170,-32,1007,51,-34,-430
605,-183,-32,1018,34,-11,-407
606,-173,-45,1002,1,15,-387
607,-168,-57,982,-72,34,-362
608,-173,-78,987,-126,64,-393
609,-173,-67,995,-144,81,-428
610,-180,-57,995,-124,62,-436
611,-184,-55,993,-25,26,-432
612,-195,-55,1005,61,34,-454
613,-182,-52,1022,18,48,-481
614,-182,-44,1004,-60,30,-520
615,-180,-32,1027,-91,17,-514
616,-166,-14,998,-50,-22,-495
617,-169,-8,1004,49,-67,-446
618,-171,-19,980,141,-81,-399
619,-172,-22,991,180,-56,-372
620,-170,-19,999,182,-13,-362
621,-175,-17,1007,141,17,-370
622,-188,-28,1007,104,-1,-401
623,-183,-42,1013,5,-13,-446
624,-182,-26,987,-105,5,-516
625,-172,4,995,-146,11,-536
626,-162,26,996,-77,-28,-475
627,-154,17,996,118,-93,-362
628,-178,-1,977,286,-147,-301
629,-176,-2,986,268,-97,-297
630,-179,-3,981,114,-9,-340
631,-169,2,980,-38,67,-381
632,-178,-8,994,-140,120,-413
633,-179,-16,987,-187,124,-397
634,-172,-18,980,-120,103,-362
635,-164,-23,978,16,48,-340
636,-177,-7,1003,173,-16,-282
637,-164,-14,1013,280,-73,-221
638,-173,-17,1016,290,-104,-206
639,-174,-13,1016,186,-71,-217
640,-172,-24,1004,12,-11,-249
641,-172,-33,994,-128,50,-311
642,-169,-32,984,-236,107,-368
643,-169,-36,979,-236,132,-385
644,-169,-36,993,-87,142,-374
645,-173,-35,1004,106,118,-313
646,-170,-21,1006,389,19,-225
647,-170,-34,1021,516,-77,-184
648,-176,-44,1005,341,-83,-219
649,-175,-37,1003,48,-11,-266
650,-168,-29,986,-148,69,-303
651,-170,-27,961,-216,136,-307
652,-171,-41,983,-173,189,-292
653,-172,-44,987,-156,247,-301
654,-172,-26,982,-95,271,-294
655,-176,-28,1005,65,255,-249
656,-164,-25,1016,178,200,-206
657,-175,-36,1002,237,120,-200
658,-182,-23,997,196,77,-210
659,-170,-17,1010,128,83,-229
660,-183,-8,1017,26,56,-256
661,-185,-16,1021,-117,69,-249
662,-167,-29,981,-261,79,-243
663,-186,-21,1009,-341,89,-249
664,-181,-14,979,-298,112,-178
665,-166,-37,978,-142,97,-94
666,-184,-41,965,-11,64,-81
667,-187,-54,974,67,97,-77
668,-185,-82,983,61,153,-88
669,-198,-86,995,28,198,-155
670,-191,-83,1024,-7,214,-251
671,-197,-57,1037,-54,163,-319
672,-199,-30,1051,-68,71,-315
673,-191,-52,1032,-44,-5,-241
674,-196,-52,1019,-89,-85,-247
675,-186,-37,996,-113,-102,-235
676,-173,-47,990,-89,-91,-186
677,-195,-72,981,-40,-89,-186
678,-203,-89,972,-11,-1,-217
679,-196,-80,989,-40,124,-276
680,-200,-52,994,-56,200,-333
681,-178,-39,1016,7,181,-342
682,-177,-46,1029,30,89,-327
683,-181,-38,1033,34,5,-294
684,-190,-32,1019,57,-38,-258
685,-194,-29,1031,44,-69,-215
686,-220,-28,1014,7,-56,-196
687,-217,-53,1007,-56,-16,-190
688,-208,-77,1018,-118,36,-223
689,-189,-71,1003,-144,36,-282
690,-207,-73,991,-173,48,-327
691,-199,-48,987,-83,73,-338
692,-193,-43,1000,85,50,-348
693,-198,-4,1030,171,26,-321
694,-206,-12,1049,157,-7,-282
695,-188,-18,1027,67,-54,-284
696,-187,-41,1003,-50,-58,-280
697,-192,-54,989,-144,-24,-299
698,-203,-59,991,-208,46,-331
699,-191,-56,986,-296,97,-366
700,-200,-30,1001,-310,110,-385
701,-199,-22,995,-158,81,-329
702,-180,-46,984,167,5,-253
703,-194,-55,984,362,-69,-219
704,-190,-67,975,280,-20,-211
705,-194,-60,985,79,73,-239
706,-172,-28,991,-44,114,-227
707,-179,-25,1002,-33,99,-167
708,-181,-27,1017,-19,48,-126
709,-180,-27,1008,120,-42,-120
710,-168,-37,972,305,-132,-88
711,-187,-51,958,323,-140,-63
712,-171,-65,955,176,-58,-122
713,-176,-58,951,-11,62,-217
714,-171,-42,953,-146,157,-270
715,-179,-30,994,-146,226,-264
716,-180,-34,975,22,222,-215
717,-169,-7,995,219,161,-86
718,-160,-30,1006,442,62,54
719,-174,-61,1025,487,-58,103
720,-178,-63,995,346,-77,64
721,-181,-62,980,141,-15,-12
722,-198,-68,976,-113,95,-65
723,-196,-70,990,-283,200,-128
724,-195,-74,994,-355,278,-169
725,-211,-84,1004,-353,296,-192
726,-213,-93,1000,-294,331,-215
727,-204,-82,1003,-83,304,-206
728,-196,-79,1013,174,194,-170
729,-197,-72,1011,231,73,-155
730,-188,-65,1017,112,5,-153
731,-174,-53,993,-46,9,-170
732,-180,-51,986,-128,40,-198
733,-187,-52,994,-158,93,-188
734,-187,-46,995,-152,163,-186
735,-206,-46,1008,-142,210,-163
736,-184,-42,1025,-19,189,-114
737,-197,-69,1014,194,58,-57
738,-208,-86,991,280,-30,-22
739,-217,-94,982,253,5,-55
740,-203,-67,1020,171,58,-94
741,-213,-33,1005,120,83,-155
742,-205,-13,1013,65,116,-147
743,-208,-22,1018,10,120,-122
744,-189,-27,1023,-34,110,-104
745,-213,-16,1004,-34,89,-86
746,-200,-27,1030,53,69,-38
747,-211,-25,1031,180,40,-1
748,-224,-42,1034,210,5,29
749,-227,-64,1014,126,1,11
750,-240,-56,1021,51,13,-63
751,-228,-65,1004,-77,67,-126
752,-213,-43,1006,-201,85,-153
753,-215,-40,991,-269,79,-157
754,-204,-35,971,-230,54,-139
755,-204,-28,978,-113,25,-106
756,-212,-28,992,42,3,-45
757,-211,-34,995,169,-42,31
758,-225,-61,984,171,-56,33
759,-230,-74,1000,69,17,-18
760,-217,-72,1011,-48,79,-102
761,-206,-44,1000,-128,97,-170
762,-180,-27,1030,-50,140,-165
763,-193,-20,1043,122,202,-153
764,-179,23,1117,258,310,-147
765,-190,59,1196,471,384,-85
766,-167,71,1276,571,384,31
767,-166,66,1338,669,298,81
768,-190,60,1412,549,216,103
769,-206,44,1461,174,263,109
770,-246,26,1552,-271,329,81
771,-306,5,1623,-493,288,68
772,-340,14,1700,-304,196,162
773,-369,-38,1765,405,-100,310
774,-445,-61,1793,1100,-501,439
775,-451,-101,1849,1417,-804,667
776,-490,-162,1864,1282,-1147,802
777,-527,-161,1861,960,-1464,706
778,-528,-130,1860,719,-1692,587
779,-542,-112,1847,641,-1975,539
780,-543,-87,1840,694,-2356,550
781,-511,-99,1795,841,-2817,660
782,-502,-122,1706,885,-3304,714
783,-511,-120,1599,714,-3622,652
784,-476,-107,1540,393,-3833,615
785,-423,-94,1456,225,-3975,611
786,-385,-58,1400,151,-4067,593
787,-349,-35,1333,286,-4081,587
788,-333,2,1282,483,-4083,632
789,-309,15,1236,487,-4104,697
790,-297,42,1230,311,-4165,703
791,-252,42,1147,10,-4288,673
792,-226,52,1064,-427,-4526,658
793,-232,40,940,-749,-4743,665
794,-183,-2,806,-812,-4860,740
795,-142,-25,685,-650,-4766,759
796,-127,-35,580,-538,-4641,753
797,-87,-67,465,-435,-4434,757
798,-34,-86,385,-378,-4153,685
799,39,-93,291,-347,-3866,554
800,116,-70,216,-253,-3612,433
801,168,-56,163,44,-3399,378
802,225,-8,107,372,-3194,343
803,301,5,103,618,-2983,283
804,354,71,103,938,-2804,283
805,381,101,115,1243,-2679,318
806,443,140,110,1536,-2530,464
807,500,130,102,1637,-2378,636
808,483,123,72,1608,-2132,722
809,468,102,76,1557,-1778,718
810,460,70,94,1436,-1362,646
811,443,104,156,1298,-884,429
812,483,122,222,1014,-468,283
813,498,176,285,583,-200,142
814,507,210,349,303,-132,64
815,525,220,341,149,-218,158
816,517,197,285,-5,-391,292
817,491,160,201,-99,-505,331
818,463,157,105,-169,-462,253
819,465,167,-3,-304,-200,177
820,447,165,-82,-445,171,150
821,424,197,-146,-609,636,136
822,408,253,-160,-702,1093,158
823,358,256,-176,-659,1480,386
824,336,236,-169,-579,1866,646
825,349,175,-149,-413,2251,728
826,390,94,-130,-359,2569,746
827,374,61,-107,-576,2730,656
828,345,98,-75,-775,2944,486
829,255,108,-75,-661,3171,433
830,152,140,-25,-472,3484,464
831,27,150,16,-288,3901,597
832,-73,142,94,-72,4300,763
833,-104,89,174,-50,4679,956
834,-94,13,257,-259,4894,1140
835,-79,-112,310,-394,4942,1167
836,-62,-206,383,-544,4829,1083
837,-118,-185,454,-300,4757,792
838,-248,-63,540,346,4982,468
839,-355,-32,695,809,5452,421
840,-414,-97,833,770,5956,464
841,-400,-117,1033,456,6368,386
842,-267,-162,1256,-42,6601,369
843,-291,-159,1454,-628,6374,240
844,-331,-132,1615,-751,5847,150
845,-496,-46,1712,-476,5278,158
846,-690,-3,1900,14,4956,306
847,-687,-106,2048,442,4915,490
848,-652,-134,2048,257,4853,503
849,-635,-180,2048,-427,4624,523
850,-662,-202,2048,-767,4144,533
851,-760,-139,2048,-574,3448,460
852,-850,-90,2048,-320,2806,464
853,-911,-130,2048,-292,2179,503
854,-916,-142,2048,-667,1593,458
855,-823,-219,2048,-1349,1034,353
856,-724,-203,2048,-1783,439,224
857,-718,-157,2048,-1726,-91,232
858,-709,-141,2048,-1132,-345,382
859,-680,-140,2048,-208,-419,529
860,-692,-108,2048,315,-552,578
861,-678,-75,2048,241,-716,578
862,-667,-91,2048,-85,-1032,539
863,-658,-77,2048,-458,-1604,417
864,-644,-77,2048,-626,-2237,306
865,-616,-68,1987,-632,-2811,306
866,-599,-69,1876,-640,-3309,347
867,-597,-78,1753,-527,-3612,386
868,-563,-68,1665,-320,-3720,400
869,-549,-48,1597,-109,-3727,357
870,-498,-20,1561,-138,-3677,382
871,-435,-49,1505,-251,-3743,460
872,-409,-60,1451,-283,-3983,497
873,-394,-16,1396,-234,-4206,605
874,-367,0,1356,-101,-4403,837
875,-367,-29,1286,42,-4573,986
876,-370,7,1245,83,-4626,988
877,-333,-8,1171,-36,-4554,1091
878,-316,-75,1120,-150,-4583,1220
879,-333,-135,1047,-189,-4651,1173
880,-297,-178,993,-292,-4655,1087
881,-300,-197,954,-527,-4755,925
882,-273,-159,901,-722,-4886,755
883,-223,-150,856,-749,-5069,699
884,-203,-145,763,-720,-5317,667
885,-134,-158,629,-794,-5489,615
886,-122,-142,496,-816,-5528,497
887,-75,-147,346,-796,-5321,439
888,44,-186,216,-798,-5001,369
889,103,-182,110,-849,-4640,210
890,172,-163,17,-816,-4243,60
891,242,-164,-60,-658,-3796,-45
892,305,-132,-93,-267,-3329,-106
893,376,-109,-98,372,-2907,-116
894,395,-57,-63,1079,-2622,-106
895,424,24,-15,1700,-2409,39
896,473,13,11,2063,-2243,310
897,524,8,49,2116,-2087,486
898,544,-20,54,2008,-1931,540
899,504,-57,67,1837,-1739,464
900,501,-51,87,1487,-1458,275
901,512,-2,116,1100,-1136,9
902,517,10,104,799,-888,-196
903,502,85,128,514,-634,-338
904,524,182,163,305,-343,-278
905,576,177,170,169,-268,21
906,604,162,119,133,-347,150
907,595,147,30,141,-331,201
908,595,118,-32,-128,-161,292
909,603,105,-117,-509,136,279
910,611,122,-158,-726,567,242
911,583,142,-195,-429,1122,283
912,538,188,-145,159,1677,378
913,503,226,-101,567,2099,580
914,443,199,-93,739,2386,796
915,432,156,-40,739,2692,1007
916,378,90,0,610,2890,1070
917,294,91,30,321,3056,996
918,277,77,42,-56,3276,941
919,187,63,36,-23,3437,892
920,97,106,69,227,3685,867
921,18,170,126,581,4089,917
922,-32,172,198,753,4509,1064
923,-25,92,241,653,4860,1289
924,-28,-31,266,389,5011,1376
925,-67,-125,312,75,5028,1214
926,-35,-102,381,-284,5034,1029
927,-78,-14,466,225,5150,933
928,-226,27,595,1860,5212,1080
929,-333,42,804,3444,5415,1228
930,-315,-5,1022,3921,5870,1310
931,-358,-75,1309,3120,6134,968
932,-386,-3,1598,1702,6105,261
933,-306,104,1818,-40,5747,17
934,-382,164,1893,-951,5103,160
935,-496,176,2017,-492,4474,609
936,-592,51,2048,342,4050,1044
937,-643,-159,2048,382,3794,1240
938,-629,-316,2048,-579,3700,1095
939,-588,-349,2048,-1702,3528,580
940,-585,-310,2048,-2163,3112,128
941,-582,-246,2048,-1962,2489,-112
942,-598,-186,2028,-1214,1833,-120
943,-600,-178,2011,-437,1333,89
944,-573,-164,1969,-234,1019,224
945,-525,-217,1854,-640,773,310
946,-491,-240,1726,-1199,575,210
947,-446,-245,1611,-1601,411,76
948,-390,-275,1510,-1804,282,11
949,-359,-263,1424,-1882,235,-75
950,-382,-268,1318,-1736,304,-120
951,-394,-256,1288,-1284,480,-133
952,-350,-242,1316,-685,618,-153
953,-359,-196,1327,-187,497,-139
954,-327,-154,1360,217,204,-36
955,-292,-137,1329,452,-198,72
956,-284,-111,1269,415,-577,109
957,-266,-103,1165,149,-808,89
958,-257,-110,1070,-195,-858,50
959,-227,-130,988,-464,-745,7
960,-213,-132,926,-540,-520,-77
961,-200,-137,903,-370,-265,-170
962,-189,-133,930,-115,-26,-245
963,-189,-118,956,96,116,-264
964,-209,-115,1005,270,140,-282
965,-221,-52,1054,464,66,-288
966,-207,-73,1070,430,-110,-139
967,-191,-80,1050,233,-343,-104
968,-197,-80,1004,-42,-460,-133
969,-166,-82,952,-251,-405,-124
970,-180,-96,929,-255,-311,-86
971,-186,-117,906,-93,-218,-51
972,-186,-158,914,42,-108,-26
973,-199,-163,930,71,23,-79
974,-189,-119,965,81,91,-147
975,-182,-98,986,114,103,-120
976,-197,-103,1001,145,11,-67
977,-202,-87,995,100,-75,-51
978,-190,-98,992,-29,-104,-16
979,-185,-112,960,-122,-120,-1
980,-187,-127,936,-118,-104,29
981,-180,-175,927,-64,-20,42
982,-196,-193,919,85,75,-59
983,-207,-162,939,257,134,-202
984,-208,-161,941,342,173,-260
985,-211,-163,966,348,200,-319
986,-214,-128,1001,325,245,-356
987,-207,-93,1051,284,263,-348
988,-197,-71,1083,227,198,-235
989,-218,-108,1070,221,44,-133
990,-212,-124,1043,255,-81,-137
991,-214,-133,1003,223,-104,-194
992,-214,-140,1003,128,-69,-254
993,-210,-123,994,69,11,-319
994,-191,-114,985,79,73,-366
995,-188,-108,974,118,114,-368
996,-190,-114,974,182,144,-356
997,-193,-95,987,245,144,-336
998,-194,-99,1022,303,97,-286
999,-203,-82,1011,403,26,-264
1000,-207,-73,1030,466,-1,-253
1001,-217,-93,1054,366,-7,-268
1002,-217,-105,1037,143,-13,-323
1003,-217,-95,1003,-76,5,-378
1004,-213,-84,985,-181,42,-419
1005,-210,-90,976,-122,67,-415
1006,-207,-81,991,-11,85,-385
1007,-204,-66,1000,79,87,-342
1008,-203,-70,996,231,28,-303
1009,-238,-81,1019,307,-52,-249
1010,-230,-93,1016,282,-50,-266
1011,-244,-99,1002,126,-34,-315
1012,-241,-111,990,-54,-22,-407
1013,-229,-98,1005,-195,-1,-506
1014,-206,-79,974,-232,17,-553
1015,-200,-60,979,-105,-20,-528
1016,-198,-57,983,157,-85,-444
1017,-199,-43,982,397,-141,-335
1018,-203,-70,984,477,-140,-245
1019,-210,-77,995,401,-140,-233
1020,-219,-79,1003,251,-95,-264
1021,-218,-85,1000,51,-9,-313
1022,-224,-98,1006,-152,56,-399
1023,-212,-120,1002,-292,77,-465
1024,-220,-122,988,-324,62,-524
1025,-214,-104,967,-173,40,-542
1026,-217,-107,977,124,9,-479
1027,-220,-104,984,315,-9,-428
1028,-212,-107,1005,356,19,-413
1029,-214,-98,1018,264,23,-420
1030,-202,-90,1006,180,26,-420
1031,-190,-97,1010,118,1,-430
1032,-188,-123,976,-21,-34,-479
1033,-188,-123,979,-150,-40,-547
1034,-173,-118,947,-144,-15,-586
1035,-195,-85,948,96,13,-583
1036,-205,-71,960,395,62,-506
1037,-193,-73,987,583,91,-440
1038,-215,-54,1011,553,69,-446
1039,-201,-56,1043,348,93,-452
1040,-195,-64,1017,48,62,-481
1041,-190,-78,1003,-218,-7,-551
1042,-187,-54,977,-345,-50,-610
1043,-181,-60,960,-273,-65,-588
1044,-200,-63,919,-9,-48,-532
1045,-206,-73,931,270,26,-473
1046,-197,-67,951,450,120,-428
1047,-180,-34,973,549,212,-354
1048,-190,-47,998,581,220,-249
1049,-206,-43,1028,549,191,-184
1050,-217,-49,1064,434,173,-225
1051,-218,-48,1102,77,97,-311
1052,-232,-62,1085,-290,9,-395
1053,-228,-74,1036,-493,-91,-448
1054,-233,-109,982,-503,-179,-463
1055,-242,-132,946,-398,-136,-493
1056,-241,-133,920,-181,-22,-588
1057,-237,-92,943,48,103,-661
1058,-214,-70,959,266,187,-612
1059,-205,-54,984,450,161,-538
1060,-195,-46,1030,571,112,-481
1061,-180,-56,1041,467,38,-450
1062,-183,-54,1037,225,-58,-487
1063,-195,-59,1007,79,-122,-534
1064,-210,-66,992,16,-118,-530
1065,-221,-84,986,40,-75,-518
1066,-220,-85,963,155,5,-547
1067,-223,-90,1000,331,69,-553
1068,-218,-66,1006,428,85,-559
1069,-193,-65,1032,417,23,-536
1070,-190,-37,1021,383,-83,-532
1071,-186,-19,1012,311,-157,-528
1072,-208,-13,996,194,-165,-516
1073,-210,-13,972,94,-126,-520
1074,-203,-13,996,40,-48,-503
1075,-192,-8,981,106,-18,-487
1076,-202,-3,998,243,-38,-461
1077,-203,-19,1011,276,-44,-409
1078,-203,-17,994,219,-40,-424
1079,-198,-15,1000,87,-48,-465
1080,-190,17,989,-34,-75,-452
1081,-194,41,1016,1,-108,-434
1082,-188,29,975,59,-128,-352
1083,-182,2,981,104,-136,-295
1084,-187,-2,970,130,-124,-274
1085,-185,-19,948,143,-59,-278
1086,-194,-4,952,153,48,-303
1087,-200,18,987,94,155,-335
1088,-190,25,1006,26,196,-284
1089,-177,8,1017,-5,153,-243
1090,-183,10,999,-7,73,-194
1091,-180,-24,1001,-66,46,-139
1092,-187,-39,992,-76,36,-143
1093,-210,-44,993,-83,17,-143
1094,-199,-50,981,-62,40,-149
1095,-218,-57,980,-25,79,-165
1096,-220,-72,993,-25,128,-190
1097,-198,-63,996,-21,175,-221
1098,-199,-45,1036,44,157,-211
1099,-191,-62,1034,108,93,-157
1100,-203,-75,1027,87,38,-135
1101,-193,-81,1013,40,17,-151
1102,-204,-84,1005,-54,9,-182
1103,-199,-97,995,-154,19,-208
1104,-200,-111,989,-222,48,-225
1105,-202,-135,988,-222,54,-256
1106,-215,-131,951,-111,54,-286
1107,-215,-124,954,-3,122,-297
1108,-216,-101,981,100,191,-282
1109,-223,-94,1014,235,155,-260
1110,-211,-84,1044,284,83,-251
1111,-211,-95,1049,151,23,-249
1112,-193,-93,1023,-50,-30,-290
1113,-200,-95,988,-238,-48,-338
1114,-198,-98,978,-304,-44,-360
1115,-198,-108,949,-247,-24,-372
1116,-214,-132,937,-115,38,-399
1117,-210,-117,949,-17,189,-444
1118,-205,-84,1000,51,296,-485
1119,-208,-63,1016,159,267,-430
1120,-204,-70,1049,260,167,-344
1121,-199,-77,1046,227,17,-323
1122,-204,-82,1019,104,-59,-360
1123,-212,-75,1009,-25,-100,-362
1124,-217,-95,982,-91,-106,-368
1125,-214,-101,982,-115,-73,-397
1126,-221,-103,942,-99,-3,-442
1127,-221,-98,963,-5,124,-452
1128,-217,-73,995,116,194,-444
1129,-213,-68,1020,214,185,-420
1130,-231,-60,1045,227,118,-409
1131,-211,-57,1059,128,73,-395
1132,-205,-75,1057,-15,-26,-366
1133,-210,-89,1013,-89,-116,-401
1134,-214,-95,981,-158,-132,-448
1135,-213,-92,972,-197,-93,-481
1136,-225,-82,975,-161,-20,-501
1137,-225,-85,973,-81,62,-512
1138,-232,-73,996,14,107,-526
1139,-211,-71,1008,59,95,-493
1140,-205,-51,1010,79,52,-440
1141,-196,-61,1015,104,-9,-393
1142,-211,-58,1007,118,-71,-368
1143,-216,-66,990,57,-89,-370
1144,-216,-75,973,-52,-48,-372
1145,-203,-91,986,-117,-9,-391
1146,-220,-90,982,-117,-13,-428
1147,-224,-89,966,10,-13,-430
1148,-201,-94,989,221,-22,-413
1149,-206,-77,1001,366,-40,-442
1150,-195,-56,1012,372,-7,-467
1151,-202,-38,1020,216,30,-454
1152,-204,-28,1021,94,52,-422
1153,-189,-48,1007,8,36,-381
1154,-205,-76,973,-68,25,-360
1155,-220,-89,1008,-136,34,-342
1156,-210,-101,993,-140,25,-350
1157,-217,-108,986,-72,-52,-399
1158,-213,-102,988,20,-93,-479
1159,-208,-89,994,55,-65,-518
1160,-202,-64,988,10,-7,-512
1161,-183,-63,981,14,15,-465
1162,-198,-72,976,83,-9,-452
1163,-190,-67,968,153,21,-374
1164,-192,-72,971,178,56,-333
1165,-203,-74,986,182,64,-336
1166,-195,-80,995,145,58,-305
1167,-198,-100,1003,81,44,-335
1168,-216,-87,990,-31,36,-420
1169,-214,-86,1004,-181,71,-489
1170,-211,-100,988,-296,91,-499
1171,-211,-86,981,-294,75,-477
1172,-215,-99,966,-175,60,-440
1173,-208,-103,965,5,54,-401
1174,-199,-104,956,89,71,-379
1175,-192,-102,938,85,126,-364
1176,-196,-84,970,71,187,-358
1177,-187,-90,991,63,241,-342
1178,-188,-103,995,-11,243,-329
1179,-196,-121,998,-124,192,-358
1180,-202,-119,983,-191,159,-405
1181,-221,-127,960,-222,134,-428
1182,-210,-129,964,-185,183,-399
1183,-212,-155,973,-83,222,-364
1184,-236,-152,963,14,243,-354
1185,-231,-154,978,55,314,-370
1186,-221,-144,1002,18,368,-407
1187,-220,-146,1016,-44,321,-463
1188,-231,-152,1036,-103,218,-542
1189,-214,-135,1017,-177,136,-592
1190,-209,-131,993,-199,77,-598
1191,-238,-129,990,-105,40,-573
1192,-227,-124,983,-23,30,-495
1193,-223,-140,949,36,36,-452
1194,-228,-147,962,81,79,-430
1195,-238,-143,960,167,167,-473
1196,-241,-137,977,188,259,-544
1197,-237,-118,1011,61,310,-608
1198,-220,-102,1008,-58,292,-643
1199,-223,-81,1007,61,181,-637
1200,-227,-88,987,253,85,-579
1201,-229,-100,985,335,36,-532
1202,-233,-89,989,292,54,-544
1203,-234,-84,999,198,109,-565
1204,-248,-89,1016,92,134,-596
1205,-241,-80,1009,-21,159,-633
1206,-239,-89,990,-124,171,-647
1207,-233,-74,996,-158,171,-645
1208,-219,-96,969,-126,159,-620
1209,-214,-70,964,22,114,-551
1210,-209,-83,959,278,79,-458
1211,-225,-87,971,438,54,-387
1212,-231,-81,976,464,69,-366
1213,-232,-99,966,356,134,-381
1214,-244,-111,995,149,191,-467
1215,-245,-95,973,-66,202,-590
1216,-226,-71,981,-179,198,-608
1217,-217,-69,965,-48,167,-544
1218,-237,-66,960,202,95,-481
1219,-237,-75,955,395,77,-420
1220,-233,-66,975,467,73,-391
1221,-246,-43,988,456,99,-401
1222,-234,-43,994,335,136,-413
1223,-233,-46,1022,145,140,-452
1224,-218,-51,1005,-27,122,-465
1225,-225,-70,984,-195,89,-487
1226,-232,-48,967,-263,97,-514
1227,-218,-45,989,-197,136,-469
1228,-236,-41,967,77,97,-387
1229,-245,-57,971,266,64,-301
1230,-251,-85,958,270,93,-295
1231,-256,-67,962,198,165,-362
1232,-254,-52,986,106,247,-381
1233,-238,-56,1017,26,253,-356
1234,-253,-55,1022,20,196,-346
1235,-235,-66,1005,28,140,-354
1236,-241,-75,992,44,73,-350
1237,-237,-43,968,122,97,-286
1238,-253,-55,984,42,62,-342
1239,-235,-37,999,284,101,-235
1240,-248,-37,986,348,95,-188
1241,-234,-28,992,303,101,-180
1242,-252,-26,990,184,151,-208
1243,-242,-17,1011,32,222,-196
1244,-251,-36,1011,-31,224,-178
1245,-262,-46,1013,-111,189,-192
1246,-261,-57,986,-191,150,-210
1247,-242,-58,985,-169,91,-210
1248,-263,-41,985,-3,46,-176
1249,-261,-21,992,245,38,-44
1250,-254,-25,1014,424,34,78
1251,-260,-56,1005,421,48,89
1252,-267,-73,986,219,64,42
1253,-258,-86,990,10,99,-30
1254,-252,-93,982,-126,110,-88
1255,-257,-96,975,-204,75,-131
1256,-265,-85,977,-120,38,-147
1257,-259,-99,976,143,5,-104
1258,-280,-98,999,341,-42,-79
1259,-276,-93,1017,362,-7,-100
1260,-259,-114,1016,210,17,-106
1261,-248,-118,1009,-5,-3,-120
1262,-250,-137,988,-134,-15,-149
1263,-255,-145,970,-175,5,-196
1264,-244,-121,985,-148,46,-227
1265,-237,-102,980,5,48,-206
1266,-239,-107,1001,264,-46,-145
1267,-255,-134,992,311,-124,-157
1268,-259,-131,981,229,-134,-253
1269,-263,-118,981,44,-87,-301
1270,-255,-90,976,-91,-15,-243
1271,-255,-91,972,-140,25,-217
1272,-247,-94,977,-97,-1,-223
1273,-248,-99,971,-25,-54,-210
1274,-223,-102,941,-33,-93,-200
1275,-222,-86,929,-38,-85,-198
1276,-230,-85,911,18,-87,-180
1277,-219,-95,915,126,-56,-161
1278,-236,-86,918,145,26,-172
1279,-247,-64,944,34,128,-176
1280,-243,-71,957,-31,214,-157
1281,-258,-66,985,-46,232,-139
1282,-245,-65,996,-60,192,-108
1283,-247,-63,986,-11,79,-73
1284,-255,-72,950,30,-16,-61
1285,-247,-85,954,104,-30,-47
1286,-248,-79,947,159,-15,-53
1287,-245,-75,954,210,26,-63
1288,-252,-69,973,237,71,-83
1289,-242,-56,983,202,157,-102
1290,-253,-56,985,85,237,-116
1291,-236,-27,1012,-3,247,-104
1292,-223,-28,991,122,177,-16
1293,-232,-38,987,356,42,117
1294,-237,-63,977,479,-40,181
1295,-250,-61,974,462,-59,185
1296,-253,-70,981,354,-13,171
1297,-253,-66,999,241,77,124
1298,-250,-74,1006,114,134,68
1299,-261,-81,989,-34,171,15
1300,-259,-80,989,-202,235,-30
1301,-257,-74,1009,-306,275,-53
1302,-257,-70,996,-204,243,3
1303,-257,-80,1023,118,122,107
1304,-258,-110,1008,327,-1,181
1305,-270,-127,983,262,-32,138
1306,-272,-123,980,24,38,48
1307,-268,-132,975,-175,128,-36
1308,-246,-103,976,-251,171,-69
1309,-255,-112,969,-183,150,-71
1310,-271,-102,971,-91,134,-63
1311,-271,-111,991,59,134,-44
1312,-281,-113,1029,161,75,3
1313,-287,-114,1034,194,26,-8
1314,-273,-105,1008,151,-15,-20
1315,-279,-114,994,61,-32,-55
1316,-286,-101,977,-66,-3,-102
1317,-280,-109,964,-212,56,-133
1318,-262,-108,968,-283,79,-176
1319,-271,-100,956,-189,46,-182
1320,-275,-101,944,5,-3,-141
1321,-264,-111,934,149,17,-98
1322,-257,-94,943,210,66,-124
1323,-253,-62,994,219,71,-131
1324,-247,-41,993,194,44,-112
1325,-247,-33,982,137,-9,-81
1326,-249,-55,979,28,-22,-45
1327,-257,-64,956,-62,15,-59
1328,-263,-78,952,-111,103,-77
1329,-257,-75,952,-83,175,-85
1330,-272,-50,976,53,189,-61
1331,-266,-64,999,352,130,31
1332,-284,-62,1002,516,48,70
1333,-288,-53,1020,395,75,58
1334,-275,-62,1016,89,130,17
1335,-275,-49,1016,-122,107,-47
1336,-267,-51,995,-283,67,-75
1337,-276,-75,953,-384,52,-77
1338,-281,-64,938,-341,89,-77
1339,-275,-54,930,-70,112,-18
1340,-270,-69,967,317,69,93
1341,-287,-72,961,485,40,146
1342,-283,-72,989,434,91,124
1343,-274,-54,1014,270,159,54
1344,-254,-44,1031,48,171,21
1345,-259,-54,1016,-152,107,9
1346,-267,-56,997,-238,42,11
1347,-284,-66,966,-216,13,27
1348,-293,-81,957,-95,30,60
1349,-286,-85,989,40,71,87
1350,-298,-95,990,118,85,89
1351,-290,-79,1002,110,87,80
1352,-284,-95,998,24,101,68
1353,-291,-78,1008,-64,112,21
1354,-276,-90,996,-181,116,-14
1355,-278,-102,999,-243,79,-22
1356,-293,-109,993,-255,25,-26
1357,-286,-104,970,-199,-16,-38
1358,-287,-108,950,-56,-50,-28
1359,-291,-117,945,89,-48,1
1360,-276,-121,963,186,-34,-6
1361,-288,-99,975,149,17,-42
1362,-295,-97,969,24,95,-47
1363,-282,-104,982,-72,146,-67
1364,-290,-94,1006,-140,128,-69
1365,-279,-103,1012,-208,62,-40
1366,-284,-109,988,-212,-34,-67
1367,-278,-95,983,-128,-85,-90
1368,-276,-95,959,104,-100,-42
1369,-289,-107,977,290,-108,-4
1370,-300,-84,963,286,-58,-18
1371,-282,-75,979,180,11,-12
1372,-273,-57,989,100,13,-24
1373,-272,-53,980,-3,-9,-44
1374,-256,-50,982,-111,-20,-26
1375,-250,-54,973,-132,-44,-12
1376,-258,-62,965,-64,-77,9
1377,-254,-65,948,24,-81,21
1378,-278,-82,957,85,-24,9
1379,-280,-64,960,77,81,9
1380,-283,-67,977,14,153,1
1381,-290,-69,997,-50,189,-30
1382,-297,-57,1000,-183,210,-69
1383,-287,-52,1026,-341,222,-71
1384,-280,-52,1018,-417,153,-42
1385,-283,-53,1006,-284,25,9
1386,-274,-73,989,-31,-91,85
1387,-287,-102,979,92,-143,103
1388,-305,-90,976,28,-79,58
1389,-277,-73,1001,-40,67,-1
1390,-267,-41,1024,-19,124,-26
1391,-276,-22,1078,77,136,25
1392,-257,17,1172,167,191,76
1393,-243,17,1250,206,226,150
1394,-271,53,1358,214,208,167
1395,-276,87,1463,128,148,240
1396,-304,100,1558,221,-5,417
1397,-347,79,1622,337,-138,564
1398,-368,15,1705,432,-241,626
1399,-416,-11,1783,516,-386,613
1400,-488,-41,1861,491,-530,564
1401,-537,-63,1959,362,-671,554
1402,-542,-12,2048,251,-917,562
1403,-586,33,2048,423,-1370,667
1404,-601,17,2048,839,-1958,949
1405,-661,-40,2048,1059,-2573,1097
1406,-659,-60,2048,926,-3054,1087
1407,-631,-87,1992,581,-3380,1050
1408,-606,-96,1906,350,-3729,1001
1409,-573,-107,1834,358,-4040,1017
1410,-581,-71,1766,643,-4282,1046
1411,-573,-57,1722,1092,-4470,1197
1412,-605,-54,1732,1399,-4589,1345
1413,-641,-36,1709,1358,-4706,1402
1414,-640,-58,1628,987,-4874,1406
1415,-613,-68,1564,655,-5208,1337
1416,-603,-54,1360,522,-5712,1265
1417,-603,-69,1174,409,-6153,1205
1418,-548,-53,969,155,-6425,1124
1419,-483,-54,719,-107,-6489,968
1420,-366,-62,432,-349,-6288,800
1421,-240,-70,234,-447,-5891,587
1422,-91,-32,3,-607,-5474,232
1423,21,43,-194,-824,-5005,-143
1424,115,89,-378,-915,-4436,-379
1425,173,194,-495,-411,-3862,-333
1426,264,299,-509,276,-3323,224
1427,342,245,-505,956,-2893,968
1428,345,130,-521,1553,-2554,1404
1429,330,36,-513,1751,-2167,1466
1430,383,-29,-482,1462,-1731,1343
1431,430,-98,-470,854,-1362,1109
1432,435,-108,-456,397,-1040,740
1433,442,-54,-416,544,-755,335
1434,414,17,-386,1130,-472,80
1435,390,120,-298,1647,-138,193
1436,374,140,-191,1760,198,456
1437,366,113,-117,1544,435,589
1438,387,157,-58,1081,556,499
1439,455,210,-27,635,628,353
1440,473,245,-39,321,702,353
1441,464,227,-72,16,821,429
1442,414,200,-115,-103,1116,476
1443,306,131,-106,-126,1640,460
1444,217,68,-51,-238,2284,386
1445,164,-10,9,-511,2810,279
1446,111,-45,135,-935,3132,-22
1447,95,-9,225,-1202,3273,-420
1448,147,69,313,-1105,3177,-764
1449,176,200,335,-1292,2890,-749
1450,283,236,317,-1615,2810,-346
1451,185,220,250,-1521,2831,246
1452,57,167,220,-878,3329,757
1453,-111,46,293,59,4185,1224
1454,-227,-103,411,407,5089,1486
1455,-356,-209,523,-115,5780,1230
1456,-368,-276,646,-1115,6189,800
1457,-336,-305,732,-2195,6317,439
1458,-356,-188,835,-2550,6159,224
1459,-344,-102,918,-1636,5847,429
1460,-402,-72,1011,216,5419,912
1461,-463,-83,1094,1298,5214,1244
1462,-487,-116,1245,1257,5476,1249
1463,-503,-189,1493,63,5929,1046
1464,-449,-301,1722,-1648,6103,683
1465,-478,-287,1891,-2804,5702,193
1466,-523,-266,2000,-3183,4982,74
1467,-615,-284,2048,-2642,4257,296
1468,-748,-311,2048,-1759,3694,476
1469,-792,-398,2048,-1115,3386,650
1470,-793,-522,2048,-1322,3202,710
1471,-815,-545,2048,-1978,3040,429
1472,-815,-489,2048,-2361,2831,142
1473,-830,-509,2048,-2117,2335,46
1474,-864,-462,2048,-1505,1511,-49
1475,-893,-438,2048,-1079,638,21
1476,-867,-465,2048,-958,-126,206
1477,-855,-489,2048,-921,-727,179
1478,-827,-465,2048,-941,-1065,52
1479,-752,-438,2048,-947,-1294,58
1480,-764,-384,2048,-704,-1544,1
1481,-735,-288,2032,-378,-1653,23
1482,-673,-261,2048,49,-1806,218
1483,-673,-260,2048,473,-2257,283
1484,-679,-201,2021,612,-2804,224
1485,-650,-160,1951,436,-3253,296
1486,-629,-177,1915,258,-3665,326
1487,-618,-150,1849,91,-4190,195
1488,-602,-101,1733,-87,-4667,181
1489,-543,-119,1642,-103,-4907,310
1490,-518,-108,1534,61,-5005,425
1491,-487,-83,1481,307,-5116,554
1492,-440,-74,1426,466,-5212,755
1493,-453,-81,1363,512,-5321,941
1494,-468,-90,1282,448,-5331,1080
1495,-477,-60,1243,315,-5317,1181
1496,-460,-98,1173,153,-5315,1359
1497,-422,-161,1101,-11,-5452,1468
1498,-418,-212,975,-193,-5692,1341
1499,-402,-221,787,-439,-5819,1173
1500,-357,-199,638,-583,-5796,1027
1501,-292,-194,469,-534,-5602,910
1502,-232,-206,364,-495,-5350,806
1503,-130,-163,267,-388,-5034,654
1504,-65,-121,185,-283,-4710,572
1505,19,-129,91,-146,-4503,607
1506,110,-129,14,180,-4239,644
1507,144,-151,-17,630,-3999,615
1508,214,-99,2,987,-3733,486
1509,239,-36,9,1278,-3542,525
1510,260,-24,26,1510,-3384,691
1511,290,6,26,1659,-3085,824
1512,325,-45,40,1633,-2765,1066
1513,352,-152,33,1557,-2495,1148
1514,399,-151,67,1508,-2306,982
1515,404,-113,60,1694,-2141,855
1516,396,-125,89,1948,-2016,822
1517,413,-129,90,2137,-1929,679
1518,419,-101,80,2094,-1772,371
1519,414,-58,75,1915,-1515,46
1520,431,-21,67,1507,-1132,-157
1521,471,8,54,967,-710,-309
1522,531,69,52,405,-374,-413
1523,509,108,26,-7,-130,-389
1524,523,127,27,-77,95,-229
1525,516,176,32,368,216,7
1526,485,164,35,921,333,314
1527,501,148,23,817,794,415
1528,489,125,27,1147,542,480
1529,493,176,-22,210,1054,378
1530,476,184,-31,-109,1331,404
1531,419,195,-62,-103,1550,511
1532,378,164,-80,36,1810,726
1533,338,119,-63,299,2167,980
1534,285,97,-54,489,2513,1117
1535,234,-10,-20,514,2888,1285
1536,178,-88,39,411,3267,1214
1537,126,-108,76,163,3577,949
1538,161,-63,102,-44,3790,689
1539,174,-81,157,321,3974,619
1540,170,-120,234,764,4191,624
1541,163,-55,355,1184,4478,621
1542,89,-34,509,1589,4857,746
1543,4,-45,649,1725,5150,925
1544,-128,-65,818,1911,5433,955
1545,-280,-98,992,2137,5523,931
1546,-300,-95,1235,2299,5458,845
1547,-282,-127,1468,2085,5364,728
1548,-227,-116,1639,1548,5218,519
1549,-129,-40,1775,788,4984,263
1550,-145,146,1867,67,4544,271
1551,-186,178,1902,7,3997,722
1552,-254,123,1892,378,3351,1228
1553,-371,58,1836,587,3097,1361
1554,-395,-64,1861,348,3271,1371
1555,-426,-199,1881,-376,3400,1230
1556,-436,-265,1846,-1132,3216,867
1557,-397,-208,1761,-1294,2859,417
1558,-407,-161,1681,-845,2382,331
1559,-440,-152,1654,-74,1946,435
1560,-443,-137,1608,464,1638,507
1561,-414,-119,1579,475,1448,578
1562,-370,-124,1547,128,1378,578
1563,-291,-132,1498,-154,1374,499
1564,-267,-118,1457,-478,1351,404
1565,-271,-94,1386,-829,1306,439
1566,-267,-106,1341,-870,1228,468
1567,-284,-86,1320,-460,1091,404
1568,-298,-46,1306,153,989,326
1569,-307,-37,1308,421,913,275
1570,-309,-35,1307,339,866,228
1571,-293,-19,1297,141,831,115
1572,-278,-3,1297,-187,734,48
1573,-266,-7,1241,-509,575,64
1574,-271,14,1197,-724,429,76
1575,-267,20,1136,-697,300,197
1576,-243,-30,1086,-437,185,386
1577,-272,-46,1030,-126,189,400
1578,-260,-55,986,51,308,343
1579,-258,-67,980,260,401,306
1580,-251,-61,983,399,439,181
1581,-222,-17,1009,317,542,89
1582,-229,-5,1043,36,575,56
1583,-205,5,1058,-240,528,93
1584,-231,2,1039,-382,396,111
1585,-233,-5,1030,-347,275,132
1586,-263,-33,995,-115,165,189
1587,-292,-61,976,128,136,201
1588,-302,-52,975,200,276,115
1589,-299,-43,992,167,413,-8
1590,-278,2,1024,67,517,-102
1591,-254,22,1069,-79,493,-77
1592,-245,7,1077,-107,265,11
1593,-257,-24,1017,-54,-52,44
1594,-275,-27,964,-48,-204,13
1595,-252,-15,967,-187,-208,-1
1596,-261,-13,934,-283,-132,-57
1597,-244,-7,951,-199,36,-98
1598,-249,-29,968,-134,224,-104
1599,-264,-28,994,-109,329,-116
1600,-256,11,1020,-89,353,-163
1601,-258,25,1041,-21,278,-88
1602,-259,11,1031,118,116,15
1603,-253,19,1030,217,5,85
1604,-262,2,1034,165,-58,93
1605,-263,-12,1024,24,-71,85
1606,-265,-30,986,-132,-65,56
1607,-284,-43,965,-226,-15,11
1608,-267,-58,970,-204,122,-26
1609,-284,-43,978,-97,239,-71
1610,-272,-41,995,48,265,-63
1611,-262,-14,1024,258,187,-20
1612,-258,-1,1052,442,71,42
1613,-259,-2,1044,405,-13,72
1614,-276,8,1039,161,-28,52
1615,-278,-26,1033,-181,3,-1
1616,-277,-51,995,-482,48,-83
1617,-292,-65,966,-638,91,-172
1618,-276,-81,956,-640,157,-221
1619,-291,-89,969,-396,200,-233
1620,-285,-62,1008,-91,163,-237
1621,-278,-31,1031,149,69,-182
1622,-293,-36,1036,255,-54,-96
1623,-283,-25,1035,239,-126,-85
1624,-273,-4,1015,157,-149,-110
1625,-257,-27,1022,16,-167,-85
1626,-262,-41,983,-23,-177,-92
1627,-254,-61,973,-70,-149,-133
1628,-261,-57,947,-56,-91,-165
1629,-281,-64,970,57,-16,-172
1630,-265,-61,965,198,13,-180
1631,-264,-39,993,227,17,-188
1632,-254,-12,1017,257,-22,-159
1633,-250,-22,1004,258,-89,-94
1634,-256,-23,1014,264,-145,-100
1635,-265,-32,1004,157,-171,-126
1636,-280,-48,979,3,-120,-165
1637,-275,-56,969,-101,-65,-200
1638,-298,-52,970,-91,-3,-253
1639,-279,-58,982,-33,58,-307
1640,-258,-40,993,-17,83,-336
1641,-274,-28,1018,-38,34,-329
1642,-251,-16,1016,-5,-67,-307
1643,-249,-8,1000,100,-204,-251
1644,-241,-2,984,165,-270,-206
1645,-249,-8,981,89,-245,-186
1646,-250,-23,962,-126,-159,-178
1647,-262,-40,949,-300,-38,-202
1648,-274,-79,943,-327,124,-286
1649,-268,-64,960,-281,200,-385
1650,-265,-55,978,-156,171,-422
1651,-275,-59,967,63,66,-403
1652,-265,-46,990,255,-11,-360
1653,-265,-21,1008,294,-79,-327
1654,-260,-16,1023,284,-149,-284
1655,-253,-12,1002,298,-196,-282
1656,-254,-13,990,233,-165,-290
1657,-270,-39,986,65,-97,-299
1658,-261,-55,966,-79,-56,-366
1659,-276,-34,953,-195,-42,-448
1660,-256,-33,947,-175,-7,-471
1661,-250,-33,945,-21,-3,-444
1662,-250,-37,938,182,-32,-385
1663,-246,-34,950,294,-30,-354
1664,-251,-5,974,313,5,-356
1665,-253,2,992,325,13,-311
1666,-247,4,990,342,5,-295
1667,-254,-5,1012,270,34,-297
1668,-257,10,1004,149,93,-321
1669,-257,6,1004,122,118,-299
1670,-259,-23,1030,100,83,-290
1671,-282,-11,1038,51,-16,-358
1672,-273,-8,1025,-9,-108,-358
1673,-280,-24,1009,57,-190,-329
1674,-275,-23,991,110,-224,-309
1675,-270,-40,971,42,-190,-336
1676,-271,-24,984,-132,-97,-403
1677,-262,-5,980,-324,3,-420
1678,-248,-1,988,-408,34,-440
1679,-246,-3,999,-392,3,-413
1680,-239,-15,972,-310,-56,-379
1681,-241,-11,966,-113,-134,-329
1682,-235,-18,946,51,-202,-286
1683,-228,-6,958,126,-194,-288
1684,-238,-13,938,96,-118,-301
1685,-243,-17,941,57,-7,-317
1686,-239,-6,953,8,132,-352
1687,-219,-6,965,-33,210,-362
1688,-239,17,995,-76,239,-346
1689,-240,19,998,-85,222,-272
1690,-248,7,1007,-13,175,-169
1691,-245,-9,1045,128,91,-137
1692,-256,-3,1038,176,-9,-165
1693,-275,-8,1031,104,-69,-186
1694,-275,-33,999,-25,-91,-190
1695,-277,-49,979,-140,-59,-233
1696,-268,-75,945,-199,3,-292
1697,-257,-71,949,-206,85,-333
1698,-253,-58,947,-128,120,-325
1699,-264,-50,966,36,103,-284
1700,-259,-36,975,184,103,-268
1701,-267,-23,1008,241,77,-260
1702,-258,-17,1023,192,48,-258
1703,-255,-18,1029,-21,15,-301
1704,-247,-12,1031,-277,-20,-350
1705,-259,-18,1013,-497,-11,-366
1706,-238,-32,994,-533,11,-348
1707,-236,-49,973,-392,-26,-258
1708,-249,-77,956,-167,-56,-188
1709,-246,-95,964,-15,-26,-149
1710,-251,-96,983,34,25,-151
1711,-258,-99,996,8,34,-219
1712,-267,-87,985,-117,7,-270
1713,-274,-84,973,-171,-7,-319
1714,-253,-79,961,-189,5,-350
1715,-246,-70,974,-171,-11,-342
1716,-246,-64,961,-44,-3,-321
1717,-249,-68,977,34,21,-299
1718,-266,-82,975,49,40,-307
1719,-276,-86,976,28,71,-325
1720,-273,-84,1019,-25,118,-350
1721,-258,-72,1015,-40,62,-385
1722,-271,-62,1001,-34,-50,-393
1723,-262,-57,978,-25,-112,-389
1724,-259,-58,961,-19,-116,-393
1725,-255,-62,938,-38,-108,-378
1726,-262,-42,941,57,-89,-385
1727,-247,-32,937,139,23,-383
1728,-244,-35,962,151,81,-325
1729,-237,-51,966,106,77,-323
1730,-249,-41,968,65,73,-350
1731,-260,-46,968,65,83,-344
1732,-244,-42,981,85,85,-336
1733,-255,-44,995,112,50,-327
1734,-249,-33,999,153,23,-325
1735,-246,-17,1012,145,60,-350
1736,-246,-16,1017,16,93,-333
1737,-257,-6,1007,-70,67,-329
1738,-259,-31,989,-74,30,-288
1739,-254,-56,970,-13,13,-233
1740,-263,-90,956,53,28,-223
1741,-273,-99,942,75,71,-256
1742,-281,-81,944,108,112,-311
1743,-263,-69,977,188,157,-307
1744,-266,-62,993,299,140,-301
1745,-255,-59,977,335,130,-301
1746,-247,-32,1001,292,146,-325
1747,-263,-18,1031,100,159,-346
1748,-267,-9,1044,-128,167,-342
1749,-261,-36,1035,-286,153,-303
1750,-267,-58,999,-257,73,-251
1751,-272,-84,966,-77,-38,-208
1752,-272,-107,972,94,-59,-188
1753,-279,-86,979,190,-16,-217
1754,-285,-80,988,217,48,-260
1755,-278,-69,1007,241,71,-266
1756,-279,-67,1009,249,48,-270
1757,-287,-66,1016,198,9,-280
1758,-268,-66,1004,91,-7,-297
1759,-264,-62,1017,-34,-30,-294
1760,-263,-62,1005,-111,-59,-272
1761,-273,-72,991,-62,-93,-249
1762,-269,-84,984,14,-100,-211
1763,-275,-109,987,59,-104,-208
1764,-282,-110,975,85,-61,-305
1765,-269,-110,975,-13,15,-399
1766,-248,-105,971,-124,91,-450
1767,-242,-79,982,-140,93,-475
1768,-233,-56,977,-27,11,-430
1769,-245,-57,984,137,-75,-372
1770,-246,-53,998,212,-93,-336
1771,-251,-53,1008,178,-79,-317
1772,-255,-69,996,104,-95,-311
1773,-258,-84,969,44,-75,-323
1774,-261,-102,956,-17,-11,-340
1775,-270,-123,954,-60,71,-387
1776,-268,-115,959,-72,136,-444
1777,-270,-106,975,-38,138,-501
1778,-275,-53,998,69,114,-506
1779,-265,-50,1017,292,30,-389
1780,-267,-67,991,444,-83,-313
1781,-272,-68,995,393,-108,-335
1782,-279,-72,982,212,-50,-362
1783,-258,-64,987,77,7,-411
1784,-265,-62,975,16,50,-438
1785,-261,-75,975,16,93,-454
1786,-262,-43,976,53,124,-458
1787,-259,-49,1007,122,105,-430
1788,-254,-33,1012,225,38,-422
1789,-253,-19,1008,323,-38,-366
1790,-252,-33,1002,337,-99,-307
1791,-267,-29,998,341,-149,-319
1792,-268,-21,991,257,-126,-317
1793,-267,-44,969,59,-56,-331
1794,-261,-53,972,-109,5,-385
1795,-252,-50,965,-206,38,-405
1796,-257,-57,960,-126,42,-393
1797,-250,-55,948,87,26,-336
1798,-233,-56,964,311,-13,-262
1799,-245,-45,985,454,-63,-231
1800,-257,-50,998,436,-79,-233
1801,-251,-51,1004,264,-44,-272
1802,-255,-44,1019,69,-18,-307
1803,-253,-49,1015,-70,-24,-329
1804,-251,-64,975,-140,-26,-340
1805,-267,-95,946,-122,17,-368
1806,-271,-92,955,-15,89,-379
1807,-258,-86,974,167,103,-372
1808,-264,-63,999,299,48,-364
1809,-246,-29,1012,350,-3,-354
1810,-244,-29,1027,301,-40,-342
1811,-232,-22,1012,153,-83,-335
1812,-228,-38,1006,5,-87,-350
1813,-234,-50,966,-91,-46,-360
1814,-250,-67,946,-87,52,-366
1815,-252,-78,957,-48,171,-368
1816,-287,-65,959,20,286,-393
1817,-263,-42,961,188,370,-376
1818,-271,-41,982,417,359,-299
1819,-271,-36,994,620,319,-217
1820,-275,-40,1013,614,234,-180
1821,-270,-43,1032,403,140,-202
1822,-273,-44,1023,182,77,-278
1823,-258,-52,1006,-19,-11,-307
1824,-270,-72,980,-89,-93,-335
1825,-280,-71,968,-97,-120,-356
1826,-275,-84,941,-72,-73,-385
1827,-272,-93,928,20,-9,-415
1828,-268,-77,925,171,40,-440
1829,-264,-60,985,299,85,-387
1830,-261,-52,986,374,83,-346
1831,-263,-51,1013,378,66,-346
1832,-264,-41,1000,292,32,-336
1833,-266,-61,1001,229,-26,-358
1834,-285,-57,1010,132,-91,-409
1835,-279,-73,981,-58,-106,-446
1836,-279,-79,951,-142,-120,-465
1837,-271,-93,924,-31,-114,-452
1838,-261,-93,924,137,-71,-446
1839,-262,-79,926,251,-9,-454
1840,-257,-66,947,339,40,-442
1841,-257,-36,970,395,69,-444
1842,-251,-34,994,313,116,-452
1843,-240,-38,1033,92,97,-479
1844,-232,-17,1015,-103,5,-512
1845,-261,-24,981,-130,-77,-493
1846,-259,-65,976,-74,-100,-432
1847,-280,-82,963,-1,-91,-419
1848,-273,-89,954,55,-85,-428
1849,-278,-85,927,159,-36,-452
1850,-278,-64,961,282,42,-460
1851,-256,-62,976,309,109,-456
1852,-257,-35,979,307,109,-454
1853,-260,-25,1008,288,69,-454
1854,-261,-25,1005,270,7,-436
1855,-258,-43,1001,217,-48,-432
1856,-282,-53,980,108,-63,-454
1857,-280,-65,981,61,-24,-493
1858,-265,-66,987,114,-7,-504
1859,-262,-70,979,212,-11,-506
1860,-280,-64,976,311,-26,-522
1861,-265,-29,1001,389,7,-508
1862,-257,-22,1030,407,30,-465
1863,-267,6,1032,368,-1,-454
1864,-247,-13,1035,337,-71,-436
1865,-237,-28,1006,311,-140,-409
1866,-261,-44,989,241,-181,-411
1867,-265,-56,988,122,-161,-438
1868,-275,-55,978,24,-83,-532
1869,-282,-50,977,-36,36,-579
1870,-266,-31,984,24,116,-575
1871,-264,-18,1004,243,71,-499
1872,-249,-25,1001,448,-32,-407
1873,-257,-23,1008,483,-91,-393
1874,-249,-33,998,344,-67,-422
1875,-251,-31,992,235,-50,-438
1876,-257,-32,1005,178,-81,-438
1877,-266,-43,977,139,-116,-471
1878,-273,-35,979,75,-89,-520
1879,-276,-43,965,36,-69,-534
1880,-261,-54,956,59,-20,-542
1881,-259,-33,975,122,28,-538
1882,-249,-5,988,253,19,-497
1883,-240,-14,990,376,-15,-426
1884,-247,-29,1008,366,-52,-420
1885,-259,-19,989,190,-63,-454
1886,-254,-26,963,-9,-54,-506
1887,-262,-37,963,-181,-30,-547
1888,-248,-41,941,-193,3,-545
1889,-248,-62,924,-103,26,-520
1890,-240,-86,935,30,81,-499
1891,-250,-80,943,133,136,-491
1892,-248,-83,972,153,194,-479
1893,-240,-62,979,128,163,-485
1894,-244,-57,975,173,124,-463
1895,-256,-45,995,188,124,-440
1896,-257,-55,1017,128,122,-417
1897,-251,-66,1042,38,83,-415
1898,-276,-74,1001,-120,46,-520
1899,-266,-79,983,-265,21,-590
1900,-262,-87,956,-382,89,-643
1901,-255,-92,941,-337,140,-665
1902,-259,-75,943,-138,150,-657
1903,-262,-62,955,192,120,-571
1904,-264,-75,962,471,77,-479
1905,-270,-57,971,589,52,-493
1906,-274,-34,1007,542,91,-526
1907,-253,7,1035,364,99,-559
1908,-263,18,1028,163,44,-600
1909,-241,8,1018,-44,5,-608
1910,-251,-4,985,-159,-1,-610
1911,-259,-18,955,-163,13,-592
1912,-263,-14,962,-66,81,-579
1913,-278,-17,978,71,136,-542
1914,-278,3,991,292,146,-456
1915,-290,-2,1007,477,114,-405
1916,-287,-15,1011,428,109,-389
1917,-281,-27,1015,214,75,-430
1918,-279,-28,1016,10,46,-514
1919,-282,-17,1002,-126,11,-586
1920,-287,-11,981,-165,11,-592
1921,-271,-25,957,-130,40,-571
1922,-270,-29,963,-58,50,-538
1923,-276,-21,950,94,71,-518
1924,-279,-5,975,360,83,-444
1925,-281,-20,998,493,97,-378
1926,-290,-40,1017,411,75,-401
1927,-283,-28,1028,225,48,-491
1928,-266,-18,1004,12,25,-534
1929,-263,-9,1019,-11,-61,-528
1930,-259,-8,997,48,-104,-514
1931,-271,-25,973,34,-85,-503
1932,-266,-31,974,-15,-13,-510
1933,-266,12,964,-21,67,-520
1934,-260,8,978,120,87,-424
1935,-261,-2,996,307,60,-335
1936,-271,-18,1015,329,21,-311
1937,-271,-16,1009,210,26,-364
1938,-262,-15,1012,67,28,-383
1939,-271,-11,1006,-21,-9,-405
1940,-270,-6,992,1,-46,-413
1941,-268,-3,995,104,-83,-372
1942,-282,-43,961,198,-116,-321
1943,-283,-56,967,235,-89,-327
1944,-290,-50,958,204,-20,-362
1945,-295,-21,983,133,44,-405
1946,-291,-7,995,44,67,-415
1947,-269,-14,999,-40,42,-428
1948,-262,-21,988,-165,-16,-450
1949,-268,-19,964,-234,-67,-465
1950,-257,-14,958,-181,-79,-407
1951,-246,-18,955,36,-122,-309
1952,-262,-32,946,229,-173,-253
1953,-271,-36,949,346,-134,-215
1954,-266,-62,936,294,-44,-227
1955,-272,-51,950,145,42,-299
1956,-262,-29,966,-11,124,-372
1957,-256,-36,995,-117,171,-401
1958,-248,-22,1001,-185,138,-426
1959,-251,-1,1005,-212,67,-397
1960,-239,-7,1012,-138,-36,-305
1961,-242,-12,987,57,-151,-225
1962,-247,-23,943,157,-188,-184
1963,-229,-25,950,147,-132,-186
1964,-255,-22,944,79,-32,-211
1965,-245,-20,958,12,83,-253
1966,-256,-8,971,-89,153,-284
1967,-251,-9,982,-220,171,-303
1968,-256,-26,988,-304,153,-290
1969,-248,-9,996,-269,79,-253
1970,-249,-37,971,-130,-13,-167
1971,-254,-43,943,55,-77,-100
1972,-260,-36,960,196,-67,-75
1973,-259,-31,981,251,-20,-28
1974,-259,-30,961,292,15,-47
1975,-285,-22,976,292,66,-102
1976,-267,-28,1009,137,146,-145
1977,-255,-20,1013,5,171,-210
1978,-257,-11,1004,-140,150,-221
1979,-253,13,1016,-183,97,-143
1980,-240,-8,996,-58,15,-73
1981,-265,-10,993,130,-59,-12
1982,-264,-24,980,186,-69,21
1983,-276,-41,980,112,-18,-16
1984,-276,-45,980,-25,48,-85
1985,-278,-54,978,-140,112,-135
1986,-261,-53,980,-163,144,-172
1987,-266,-35,978,-142,142,-161
1988,-258,-28,986,-54,112,-114
1989,-251,-12,999,57,50,-30
1990,-256,-7,1020,208,-59,29
1991,-263,-34,1001,376,-153,87
1992,-257,-40,974,233,-140,80
1993,-269,-31,980,75,-112,1
1994,-260,-36,954,-89,-5,-34
1995,-252,-37,956,-173,89,-112
1996,-272,-35,969,-224,128,-139
1997,-264,-34,959,-179,142,-135
1998,-264,-24,984,-3,103,-69
1999,-246,-23,1004,190,-3,42
2000,-258,-43,995,350,-104,115
2001,-272,-44,981,337,-132,130
2002,-288,-48,975,225,-59,103
2003,-299,-60,989,106,26,64
2004,-292,-56,991,-7,110,7
2005,-283,-56,1023,-128,153,-57
2006,-276,-50,1033,-214,132,-90
2007,-272,-40,1012,-171,60,-85
2008,-276,-38,1006,-56,-52,-26
2009,-270,-58,995,65,-157,50
2010,-265,-52,987,133,-210,48
2011,-264,-50,967,98,-196,42
2012,-268,-56,958,3,-128,31
2013,-269,-48,979,-93,-58,-8
2014,-268,-58,964,-146,-1,-61
2015,-256,-64,942,-175,46,-92
2016,-256,-48,959,-154,89,-110
2017,-255,-25,957,-48,67,-77
2018,-243,-35,978,118,7,3
2019,-255,-45,983,247,-79,81
2020,-257,-64,974,237,-87,93
2021,-262,-54,967,120,-61,46
2022,-273,-47,973,-13,-26,-26
2023,-260,-47,958,-124,25,-57
2024,-261,-46,951,-158,54,-75
2025,-257,-57,957,-167,73,-69
2026,-262,-62,966,-138,110,-75
2027,-262,-42,979,-111,132,-86
2028,-258,-45,993,22,101,-51
2029,-261,-47,995,133,48,-6
2030,-263,-63,998,171,9,25
2031,-269,-68,990,104,-15,17
2032,-273,-63,986,20,-15,-20
2033,-269,-37,987,-23,25,-4
2034,-263,-37,990,-5,40,15
2035,-258,-41,1004,-3,26,31
2036,-272,-65,964,-31,7,21
2037,-270,-62,980,-46,38,-10
2038,-264,-54,976,-33,71,-22
2039,-281,-64,973,22,54,-18
2040,-276,-62,980,59,34,-30
2041,-267,-53,980,63,21,-44
2042,-256,-45,983,91,-3,-42
2043,-251,-30,989,157,-24,11
2044,-267,-37,986,221,-20,64
2045,-272,-34,987,235,11,64
2046,-262,-49,994,132,26,27
2047,-267,-34,989,24,34,-1
2048,-265,-32,996,-21,50,-1
2049,-266,-15,968,24,30,17
2050,-269,-12,986,135,-28,60
2051,-266,-29,989,280,-99,132
2052,-266,-53,978,354,-120,177
2053,-280,-76,978,337,-67,138
2054,-289,-62,978,194,38,74
2055,-287,-51,998,12,138,-1
2056,-271,-47,1010,-134,175,-69
2057,-258,-34,1012,-185,134,-85
2058,-273,-33,990,-150,56,-73
2059,-272,-24,981,-9,3,-18
2060,-264,-24,972,196,-46,85
2061,-276,-40,978,307,-99,124
2062,-268,-56,974,255,-87,103
2063,-266,-58,971,112,-22,54
2064,-271,-57,985,-34,60,-24
2065,-261,-38,980,-146,101,-73
2066,-260,-35,981,-210,95,-98
2067,-266,-23,981,-179,50,-69
2068,-265,-18,970,-101,15,-10
2069,-258,-35,966,42,-13,42
2070,-266,-31,959,122,-36,85
2071,-275,-63,961,151,-13,99
2072,-275,-60,961,120,50,81
2073,-281,-68,998,36,116,23
2074,-280,-56,1009,-58,150,-44
2075,-284,-46,1021,-134,112,-67
2076,-289,-50,1016,-158,38,-81
2077,-274,-40,995,-87,-24,-65
2078,-266,-45,995,49,-102,-20
2079,-263,-59,972,126,-155,-14
2080,-279,-61,957,65,-114,-53
2081,-269,-53,949,-38,-9,-83
2082,-265,-39,946,-74,75,-92
2083,-278,-33,957,-74,112,-90
2084,-264,-35,968,-66,140,-83
2085,-264,-27,965,-66,110,-55
2086,-265,-32,959,36,48,-40
2087,-273,-18,960,116,-20,-12
2088,-274,-34,941,96,-42,3
2089,-257,-42,956,36,-3,-8
2090,-268,-50,917,3,38,-42
2091,-265,-32,945,-33,99,-73
2092,-268,-28,955,-64,171,-77
2093,-268,-27,950,-105,202,-90
2094,-266,-39,971,-140,196,-90
2095,-264,-19,959,-165,165,-112
2096,-268,-21,952,-89,120,-100
2097,-260,-30,951,49,79,-18
2098,-269,-56,946,174,73,17
2099,-275,-61,946,192,112,13
2100,-281,-51,949,120,177,-24
2101,-281,-37,983,53,243,-75
2102,-276,-9,998,-38,257,-98
2103,-261,11,1013,-87,226,-61
2104,-265,-22,1003,-58,150,7
2105,-281,-29,980,-46,58,23
2106,-272,-32,979,-44,73,27
2107,-292,-29,975,-62,124,44
2108,-280,-34,1004,-15,155,80
2109,-289,-48,999,85,134,128
2110,-287,-48,1016,184,85,109
2111,-308,-43,1014,214,64,99
2112,-297,-46,1011,157,69,85
2113,-312,-50,1015,63,77,25
2114,-301,-53,1005,-46,107,-4
2115,-302,-37,1002,-91,114,-14
2116,-303,-32,1005,-48,103,-1
2117,-292,-35,1012,73,71,21
2118,-308,-24,1002,184,28,52
2119,-301,-27,1011,216,5,85
2120,-302,-22,1020,171,-9,93
2121,-308,-21,1003,24,-36,85
2122,-297,-33,989,-134,-40,44
2123,-299,-43,948,-201,-38,42
2124,-291,-42,933,-142,-18,42
2125,-293,-53,927,-3,25,44
2126,-287,-51,947,91,48,52
2127,-283,-56,952,89,64,25
2128,-294,-36,949,63,71,11
2129,-271,-33,945,98,56,11
2130,-265,-38,936,102,26,5
2131,-290,-19,936,46,32,-10
2132,-283,-25,948,-44,91,11
2133,-298,-41,948,-56,128,29
2134,-308,-38,936,-50,128,5
2135,-301,-43,934,-66,142,-1
2136,-295,-63,936,-66,150,-32
2137,-296,-38,934,-50,140,-71
2138,-291,-38,928,-15,134,-44
2139,-300,-52,924,36,124,-18
2140,-296,-56,927,28,128,-36
2141,-280,-65,926,-66,183,-26
2142,-285,-41,948,-107,253,-45
2143,-280,-33,954,-25,300,-4
2144,-289,-34,974,151,349,85
2145,-318,-55,998,274,413,134
2146,-298,-55,1062,260,464,107
2147,-315,-54,1129,159,482,-16
2148,-297,-41,1197,-9,485,-73
2149,-246,-22,1330,-7,536,-75
2150,-229,13,1474,282,595,15
2151,-300,99,1631,766,648,150
2152,-408,161,1855,1397,767,339
2153,-533,211,2048,1966,790,593
2154,-644,159,2048,2229,626,851
2155,-707,65,2048,1723,161,986
2156,-807,-29,2048,981,-618,831
2157,-866,-21,2048,61,-1608,576
2158,-914,-35,2048,-304,-2571,519
2159,-915,-37,2048,-68,-3333,529
2160,-897,-63,2048,444,-3979,640
2161,-875,-108,2048,885,-4528,763
2162,-850,-127,2048,1051,-4907,783
2163,-824,-114,1977,1018,-5075,675
2164,-774,-92,1900,924,-5077,605
2165,-776,-23,1856,885,-5130,613
2166,-760,23,1791,956,-5274,751
2167,-735,2,1736,1114,-5583,933
2168,-740,-26,1622,1157,-5981,1005
2169,-753,-45,1491,987,-6399,1031
2170,-765,-60,1356,790,-6710,1013
2171,-765,-56,1216,469,-6936,945
2172,-723,-38,1057,214,-7106,851
2173,-621,-11,893,-9,-7194,716
2174,-577,15,741,-214,-7309,646
2175,-458,41,579,-415,-7343,546
2176,-342,62,396,-722,-7251,408
2177,-242,135,231,-1095,-7067,310
2178,-138,179,85,-1208,-6724,289
2179,-52,190,-72,-1017,-6413,408
2180,41,188,-220,-851,-6140,580
2181,119,198,-348,-796,-5813,599
2182,181,210,-517,-1009,-5386,529
2183,279,207,-638,-1316,-4739,503
2184,345,205,-742,-1527,-3985,525
2185,487,193,-825,-1484,-3196,542
2186,553,181,-857,-1115,-2528,562
2187,572,185,-851,-394,-1852,554
2188,570,149,-785,448,-1343,472
2189,572,189,-729,1102,-884,378
2190,611,226,-650,1383,-483,412
2191,606,246,-571,1548,-186,443
2192,626,288,-518,1637,-1,404
2193,622,339,-454,1774,134,433
2194,599,328,-402,1850,241,622
2195,545,287,-388,1751,370,773
2196,475,215,-385,1249,610,757
2197,383,104,-413,360,1001,589
2198,297,41,-383,-677,1472,179
2199,246,33,-404,-1585,1907,-301
2200,193,51,-416,-2031,2345,-616
2201,208,115,-379,-1909,2792,-661
2202,307,126,-348,-1189,2972,-458
2203,355,167,-377,-259,2814,-258
2204,332,225,-398,479,2653,-20
2205,298,230,-429,803,2827,343
2206,253,177,-449,704,3226,593
2207,175,130,-408,231,3814,599
2208,108,118,-314,-249,4550,533
2209,56,93,-215,-353,5144,482
2210,-40,73,-121,-109,5577,474
2211,-119,50,9,286,5956,734
2212,-212,14,105,684,6208,970
2213,-312,27,149,952,6482,1109
2214,-393,-60,256,993,6816,1308
2215,-520,-23,437,1186,7163,1222
2216,-658,170,695,1870,7603,908
2217,-618,88,917,2214,8140,1005
2218,-603,-52,1163,1622,8263,1191
2219,-664,-85,1448,733,8210,724
2220,-639,-27,1728,-431,8142,339
2221,-641,85,2014,-1355,7884,306
2222,-771,132,2048,-1226,7435,503
2223,-811,60,2048,-730,6614,785
2224,-960,-45,2048,-376,5782,777
2225,-991,-174,2048,-632,5257,593
2226,-1057,-285,2048,-1636,4886,365
2227,-1074,-322,2048,-2675,4552,146
2228,-1046,-324,2048,-3009,4153,81
2229,-1091,-319,2048,-2251,3437,158
2230,-1077,-361,2048,-1085,2679,310
2231,-1027,-390,2048,-408,1905,335
2232,-975,-375,2048,-536,1276,156
2233,-882,-325,2048,-986,804,-79
2234,-847,-281,2048,-1253,329,-270
2235,-827,-227,2048,-1226,-73,-313
2236,-837,-210,2048,-949,-319,-254
2237,-816,-192,2048,-583,-487,-122
2238,-790,-171,2048,-144,-747,-96
2239,-764,-104,2048,147,-1136,-36
2240,-718,-36,2048,319,-1544,76
2241,-657,0,2048,333,-2003,156
2242,-605,22,2048,323,-2518,173
2243,-595,51,1994,423,-3024,158
2244,-581,87,1901,415,-3474,193
2245,-566,130,1819,358,-3702,220
2246,-534,143,1748,204,-3794,353
2247,-504,123,1682,10,-3823,476
2248,-481,100,1591,-122,-3747,568
2249,-453,117,1557,-46,-3683,705
2250,-459,114,1560,174,-3770,849
2251,-475,85,1574,401,-4044,953
2252,-498,104,1569,458,-4345,1019
2253,-538,89,1518,350,-4614,1230
2254,-511,15,1455,208,-4880,1388
2255,-575,-23,1367,59,-5159,1406
2256,-570,-35,1295,-165,-5247,1402
2257,-563,-52,1228,-331,-5216,1421
2258,-556,-30,1186,-372,-5220,1515
2259,-537,-94,1188,-216,-5335,1654
2260,-560,-128,1147,10,-5661,1648
2261,-541,-112,1084,98,-5983,1546
2262,-532,-62,1036,-138,-6165,1441
2263,-494,-47,1001,-597,-6241,1355
2264,-485,-50,864,-1130,-6403,1300
2265,-419,-68,705,-1550,-6550,1103
2266,-339,-55,506,-1906,-6542,939
2267,-308,-80,325,-2013,-6501,851
2268,-257,-132,145,-1761,-6335,841
2269,-147,-163,-10,-1452,-6018,685
2270,-90,-175,-136,-1191,-5536,443
2271,77,-157,-232,-1021,-4884,289
2272,162,-140,-329,-1013,-4343,52
2273,263,-89,-408,-925,-3800,-194
2274,368,-16,-423,-714,-3309,-335
2275,455,61,-418,-288,-2917,-194
2276,534,31,-408,247,-2653,124
2277,604,70,-382,760,-2433,275
2278,630,87,-364,1169,-2130,343
2279,658,84,-343,1350,-1780,472
2280,686,17,-319,1299,-1464,562
2281,691,-18,-306,1198,-1183,482
2282,699,9,-295,1102,-872,249
2283,691,5,-258,1059,-550,80
2284,731,79,-210,985,-249,-42
2285,735,159,-194,891,-59,11
2286,738,172,-184,883,40,218
2287,765,158,-160,882,177,326
2288,762,169,-193,653,316,322
2289,720,151,-224,253,509,275
2290,684,131,-249,-76,786,249
2291,618,89,-327,-230,1136,271
2292,577,66,-315,-173,1595,283
2293,531,81,-331,38,2017,292
2294,532,152,-327,442,2360,392
2295,470,169,-295,977,2567,626
2296,410,162,-294,1397,2788,886
2297,357,164,-259,1452,3163,958
2298,289,141,-244,1091,3556,869
2299,220,119,-224,485,3919,775
2300,174,81,-252,-142,4310,734
2301,129,22,-288,-484,4618,751
2302,108,-54,-341,-437,4819,789
2303,70,30,-274,266,5071,876
2304,-47,32,-211,2034,5446,878
2305,-148,8,-22,3708,5857,1007
2306,-205,36,225,4364,6290,853
2307,-238,139,489,4352,6628,480
2308,-272,234,683,3403,6816,365
2309,-204,296,916,1842,7005,435
2310,-262,360,1049,977,7130,476
2311,-338,199,1263,1008,7005,859
2312,-463,41,1469,1391,6843,1361
2313,-637,-122,1789,1946,6784,1236
2314,-762,-212,2048,2018,6657,706
2315,-870,-243,2048,1446,6294,-157
2316,-924,-98,2048,370,5806,-784
2317,-933,23,2048,-646,5265,-805
2318,-866,35,2048,-982,4597,-579
2319,-812,90,2048,-517,3870,-260
2320,-780,37,2048,-31,3050,119
2321,-772,-60,2048,-144,2368,292
2322,-673,-112,1955,-882,2191,107
2323,-615,-114,1802,-1671,2278,-96
2324,-567,-88,1671,-2062,2446,-219
2325,-497,-89,1594,-2033,2626,-182
2326,-487,-68,1622,-1712,2702,-42
2327,-443,-39,1648,-1365,2638,240
2328,-458,-56,1682,-740,2349,611
2329,-448,-106,1716,116,1819,843
2330,-471,-132,1674,635,1153,871
2331,-526,-85,1602,714,704,564
2332,-510,-47,1520,370,480,289
2333,-505,24,1458,42,429,132
2334,-427,85,1439,-62,472,119
2335,-404,37,1377,-34,347,292
2336,-374,-18,1314,18,181,347
2337,-340,-32,1265,-97,93,214
2338,-332,-5,1221,-238,-58,97
2339,-347,14,1146,-159,-255,95
2340,-369,-3,1063,94,-374,124
2341,-388,-21,1002,272,-325,128
2342,-394,-54,943,217,-140,50
2343,-389,-41,953,59,150,-77
2344,-356,-2,982,-11,403,-176
2345,-343,74,1008,-72,548,-233
2346,-333,85,1043,-95,597,-151
2347,-329,99,1100,-5,454,-10
2348,-327,54,1099,1,128,171
2349,-334,4,1029,22,-190,224
2350,-305,-20,984,59,-417,189
2351,-318,-32,916,3,-489,87
2352,-313,-17,857,-38,-321,-30
2353,-301,-10,858,-23,26,-133
2354,-288,25,901,-46,317,-190
2355,-283,42,946,-136,460,-210
2356,-291,54,977,-134,460,-151
2357,-275,62,999,-27,243,11
2358,-276,41,970,325,-126,156
2359,-309,32,940,665,-436,271
2360,-309,-16,873,723,-532,314
2361,-349,-38,777,727,-405,189
2362,-342,-43,770,673,-89,52
2363,-336,-44,787,602,263,-38
2364,-310,0,848,587,499,-151
2365,-307,93,905,557,710,-278
2366,-220,151,1022,342,862,-229
2367,-214,174,1146,133,692,-147
2368,-191,167,1144,-33,278,35
2369,-254,111,1060,-158,-140,154
2370,-279,73,1015,-240,-325,249
2371,-346,39,954,-441,-290,242
2372,-398,-24,905,-433,-73,158
2373,-378,-75,899,-284,275,58
2374,-390,-77,966,-77,542,-51
2375,-386,-64,1006,40,669,-219
2376,-368,-6,1079,167,616,-299
2377,-343,58,1150,292,353,-217
2378,-355,76,1151,372,-104,-118
2379,-343,88,1136,301,-419,-77
2380,-346,104,1118,51,-602,-77
2381,-343,102,1043,-308,-645,29
2382,-342,48,983,-538,-612,81
2383,-325,-2,919,-515,-501,72
2384,-344,-67,889,-443,-286,7
2385,-366,-71,904,-431,-20,-120
2386,-355,-66,929,-384,189,-256
2387,-342,-54,963,-306,200,-335
2388,-318,-3,995,-173,91,-417
2389,-304,64,1006,89,-85,-409
2390,-299,55,1042,272,-329,-251
2391,-320,46,1026,268,-536,-221
2392,-347,21,1001,61,-667,-299
2393,-356,13,955,-279,-675,-356
2394,-371,-4,901,-644,-573,-379
2395,-343,-17,881,-859,-401,-378
2396,-317,2,925,-822,-280,-370
2397,-278,24,964,-568,-276,-278
2398,-230,33,990,-201,-333,-131
2399,-230,44,1017,75,-417,-63
2400,-255,45,1033,126,-458,-126
2401,-278,83,1031,-60,-433,-210
2402,-286,75,1028,-361,-388,-176
2403,-303,45,987,-576,-325,-118
2404,-295,13,961,-640,-282,-104
2405,-302,11,936,-574,-225,-120
2406,-281,-2,940,-384,-165,-51
2407,-303,4,978,-120,-145,3
2408,-304,6,986,89,-130,54
2409,-283,-13,1031,126,-114,78
2410,-300,-27,1024,65,-147,5
2411,-296,-16,1012,-87,-181,-88
2412,-291,1,1019,-228,-173,-149
2413,-284,1,1012,-265,-181,-174
2414,-287,12,996,-216,-163,-120
2415,-295,-11,976,-173,-114,-20
2416,-292,-22,987,-19,-77,23
2417,-281,-33,987,147,-106,70
2418,-297,-55,987,280,-173,80
2419,-295,-57,995,272,-227,39
2420,-307,-71,994,55,-272,-88
2421,-311,-65,1013,-265,-296,-233
2422,-301,-43,981,-554,-313,-354
2423,-292,-30,966,-669,-345,-415
2424,-267,-32,930,-749,-325,-294
2425,-251,-73,935,-656,-286,-178
2426,-259,-67,906,-286,-298,-122
2427,-204,-79,918,38,-233,39
2428,-217,-94,914,325,-288,-28
2429,-257,-79,917,358,-266,-110
2430,-246,-83,934,251,-108,-169
2431,-251,-72,953,139,9,-210
2432,-258,-65,951,102,34,-237
2433,-264,-48,969,116,50,-239
2434,-257,-32,994,239,42,-213
2435,-269,-28,1009,376,-30,-161
2436,-273,-39,1010,411,-91,-133
2437,-261,-33,1006,362,-138,-149
2438,-258,-36,974,276,-130,-174
2439,-255,-33,994,165,-83,-196
2440,-251,-39,965,79,-5,-198
2441,-255,-30,946,63,73,-155
2442,-249,-41,938,67,151,-102
2443,-254,-25,954,132,224,-88
2444,-248,-30,1011,214,224,-71
2445,-258,-35,1022,245,138,-71
2446,-256,-33,1029,204,32,-106
2447,-270,-36,1033,141,-99,-172
2448,-268,-52,1010,51,-204,-254
2449,-272,-39,990,-15,-218,-288
2450,-265,-34,962,-13,-136,-342
2451,-249,-16,973,55,13,-348
2452,-242,-17,985,46,124,-321
2453,-250,-16,991,8,153,-299
2454,-258,-10,986,7,153,-225
2455,-254,-31,1001,100,83,-165
2456,-261,-35,1002,204,-56,-196
2457,-278,-36,1006,104,-124,-262
2458,-273,-42,1022,-134,-93,-309
2459,-286,-34,1010,-331,-58,-358
2460,-268,-29,988,-386,3,-374
2461,-249,-52,954,-345,50,-342
2462,-267,-56,960,-236,85,-292
2463,-240,-57,943,-52,167,-264
2464,-236,-34,955,184,181,-278
2465,-246,-13,975,399,169,-276
2466,-238,-15,979,454,241,-247
2467,-273,-35,969,374,327,-258
2468,-279,-23,956,200,458,-272
2469,-296,-45,979,32,569,-256
2470,-305,-26,1002,-126,609,-258
2471,-305,-62,1043,-68,507,-253
2472,-302,-40,1034,133,280,-299
2473,-307,-41,1040,231,91,-331
2474,-315,-40,1034,206,15,-387
2475,-311,-19,1027,108,11,-460
2476,-289,-26,997,-9,46,-475
2477,-286,-9,974,-66,58,-489
2478,-279,-16,958,-50,99,-440
2479,-289,-29,957,46,128,-413
2480,-293,-11,971,141,118,-422
2481,-285,-13,985,223,91,-407
2482,-282,0,1002,303,32,-362
2483,-290,-15,1006,315,-15,-358
2484,-308,-17,1016,214,-11,-419
2485,-302,-7,1027,30,9,-506
2486,-305,11,1004,-120,-30,-536
2487,-285,-2,973,-159,-56,-518
2488,-273,0,947,-93,-38,-477
2489,-264,5,944,10,-28,-409
2490,-275,0,937,94,9,-295
2491,-271,-12,949,274,15,-241
2492,-266,-14,952,454,-22,-243
2493,-268,-20,957,462,-26,-288
2494,-277,-20,975,280,-9,-393
2495,-281,-10,989,22,34,-504
2496,-263,24,989,-130,58,-538
2497,-271,26,987,-120,25,-456
2498,-275,14,971,32,-56,-358
2499,-273,-2,956,178,-73,-305
2500,-260,-12,962,286,-52,-264
2501,-269,7,944,323,-30,-239
2502,-281,0,934,313,19,-196
2503,-284,-24,983,339,69,-260
2504,-290,0,999,245,48,-360
2505,-299,20,987,51,21,-411
2506,-296,17,1002,-81,30,-403
2507,-276,7,1002,-83,3,-372
2508,-280,-4,981,28,-83,-321
2509,-277,-15,969,186,-138,-239
2510,-287,-22,953,282,-169,-172
2511,-287,-34,939,380,-140,-155
2512,-293,-24,964,469,-28,-192
2513,-297,-12,995,454,87,-233
2514,-298,-18,1016,303,161,-307
2515,-275,7,1020,106,126,-407
2516,-304,22,1043,38,19,-456
2517,-283,39,1012,28,-91,-391
2518,-274,18,990,110,-243,-299
2519,-266,2,964,112,-321,-176
2520,-265,-8,924,104,-284,-118
2521,-263,-22,929,159,-179,-104
2522,-264,-16,930,276,-46,-128
2523,-274,-8,941,413,36,-180
2524,-277,-12,974,503,60,-235
2525,-280,-11,1003,485,42,-305
2526,-279,23,1011,317,21,-376
2527,-263,33,1030,130,-32,-370
2528,-265,32,1015,104,-114,-327
2529,-276,20,984,112,-159,-268
2530,-267,-4,981,114,-155,-221
2531,-261,-15,956,69,-122,-208
2532,-276,-23,927,104,-38,-225
2533,-269,-34,931,180,126,-274
2534,-289,-11,957,262,241,-344
2535,-264,-2,956,214,359,-338
2536,-255,-16,968,260,396,-364
2537,-273,4,990,303,306,-415
2538,-266,21,1019,356,220,-362
2539,-259,16,1033,339,87,-292
2540,-280,-2,1017,294,-7,-243
2541,-290,-4,1005,221,-30,-243
2542,-296,-6,991,190,-32,-243
2543,-304,-8,992,190,-22,-270
2544,-302,-16,979,249,11,-309
2545,-278,-15,989,274,34,-331
2546,-292,-12,986,249,44,-348
2547,-273,-6,975,249,44,-333
2548,-288,8,985,282,44,-323
2549,-276,7,990,296,36,-284
2550,-285,12,1007,305,-1,-268
2551,-291,20,1003,305,-63,-274
2552,-295,6,1010,280,-106,-299
2553,-302,-3,980,202,-89,-350
2554,-300,6,969,69,-15,-430
2555,-299,21,986,-54,58,-499
2556,-292,39,993,-118,89,-481
2557,-290,32,990,-62,34,-448
2558,-278,50,1003,38,-63,-389
2559,-293,35,985,161,-163,-344
2560,-277,19,988,149,-265,-288
2561,-276,23,981,92,-321,-272
2562,-275,32,944,61,-309,-323
2563,-285,23,933,40,-169,-391
2564,-265,27,916,-21,48,-434
2565,-266,27,957,-17,142,-481
2566,-265,35,960,130,140,-422
2567,-278,45,994,339,66,-344
2568,-281,45,1002,477,-15,-276
2569,-291,51,1013,501,-83,-243
2570,-284,51,1026,405,-120,-241
2571,-292,45,995,247,-141,-268
2572,-287,36,989,94,-116,-303
2573,-296,34,974,-17,-58,-327
2574,-297,25,980,-93,3,-342
2575,-306,23,976,-115,40,-379
2576,-281,46,978,-159,42,-383
2577,-290,49,971,-163,3,-342
2578,-266,73,963,-150,-40,-241
2579,-266,60,952,-167,-69,-63
2580,-263,37,959,-191,-99,35
2581,-255,36,947,-195,-100,50
2582,-244,18,948,-175,-136,50
2583,-242,-12,930,-226,-153,1
2584,-269,-21,912,-353,-93,-110
2585,-266,-7,902,-499,48,-254
2586,-253,0,916,-499,175,-331
2587,-262,-9,926,-413,232,-317
2588,-261,-18,933,-158,214,-325
2589,-267,-15,952,38,153,-321
2590,-270,-14,949,176,112,-264
2591,-268,-8,992,325,50,-190
2592,-265,-15,986,358,-11,-172
2593,-264,-11,971,288,5,-210
2594,-279,-14,983,161,91,-239
2595,-282,-24,986,46,218,-280
2596,-291,-23,986,-93,308,-333
2597,-297,-6,1025,-204,351,-370
2598,-293,-11,1000,-161,310,-335
2599,-303,-33,1011,-7,204,-309
2600,-308,-34,1018,122,91,-295
2601,-321,-38,999,151,-7,-313
2602,-338,-35,1002,118,-15,-317
2603,-325,-45,995,94,36,-378
2604,-326,-26,988,63,81,-446
2605,-315,-19,994,5,95,-483
2606,-320,-21,987,-15,110,-503
2607,-300,-25,978,1,110,-532
2608,-298,-2,1012,106,87,-555
2609,-300,7,1039,198,26,-495
2610,-298,10,1033,294,-85,-420
2611,-314,10,1021,368,-184,-413
2612,-309,13,1017,366,-214,-415
2613,-288,17,1017,337,-202,-430
2614,-309,24,999,260,-155,-479
2615,-292,23,980,110,-87,-559
2616,-305,41,980,-29,-44,-583
2617,-293,36,1002,-77,-42,-567
2618,-296,34,974,-54,-79,-555
2619,-292,52,988,10,-110,-510
2620,-277,26,988,57,-173,-479
2621,-287,35,979,147,-245,-473
2622,-285,50,978,221,-266,-436
2623,-272,51,989,196,-311,-383
2624,-282,54,973,225,-323,-395
2625,-276,56,940,204,-265,-415
2626,-272,51,965,165,-149,-360
2627,-265,35,993,126,-48,-336
2628,-274,40,989,108,-52,-327
2629,-284,36,996,73,-32,-290
2630,-281,38,1007,87,-48,-245
2631,-289,40,1003,143,-110,-206
2632,-283,40,1007,198,-181,-169
2633,-272,26,1005,237,-247,-149
2634,-276,23,973,251,-268,-194
2635,-263,24,961,169,-200,-254
2636,-263,16,949,44,-99,-280
2637,-270,7,960,-29,-16,-286
2638,-262,7,950,-44,34,-297
2639,-257,10,960,26,48,-245
2640,-275,20,971,223,1,-167
2641,-264,21,970,440,-50,-67
2642,-272,-4,988,505,-118,-40
2643,-268,-11,990,466,-147,-139
2644,-270,11,1002,280,-132,-272
2645,-274,16,989,30,-65,-313
2646,-259,17,978,-105,7,-350
2647,-250,2,977,-136,30,-352
2648,-249,6,968,-56,13,-276
2649,-270,1,963,96,-42,-215
2650,-269,17,987,272,-102,-178
2651,-272,-11,972,366,-163,-145
2652,-272,-11,981,333,-177,-137
2653,-275,-22,985,225,-153,-180
2654,-285,-4,965,120,-106,-321
2655,-293,6,973,-56,-22,-399
2656,-267,10,966,-161,52,-434
2657,-257,14,981,-185,50,-450
2658,-256,19,977,-126,-5,-378
2659,-255,5,965,42,-71,-290
2660,-257,10,961,180,-141,-258
2661,-270,-6,950,262,-157,-235
2662,-279,-18,945,258,-110,-247
2663,-281,-18,977,216,-44,-305
2664,-274,2,952,116,11,-379
2665,-263,-5,952,55,64,-420
2666,-263,2,979,28,79,-446
2667,-259,51,1001,102,69,-434
2668,-253,58,994,317,5,-303
2669,-265,56,1023,526,-108,-227
2670,-259,42,1018,542,-181,-184
2671,-255,27,1009,397,-159,-219
2672,-248,36,981,180,-102,-288
2673,-241,31,990,16,-48,-340
2674,-246,23,980,-62,-11,-368
2675,-259,42,980,-3,5,-362
2676,-250,39,983,174,-24,-272
2677,-256,44,994,344,-83,-200
2678,-267,52,998,411,-128,-153
2679,-257,36,984,327,-151,-157
2680,-264,46,979,169,-120,-206
2681,-265,45,953,-38,-58,-256
2682,-264,36,973,-216,26,-323
2683,-248,40,969,-290,79,-381
2684,-248,30,958,-228,54,-364
2685,-266,36,961,-97,13,-327
2686,-258,24,956,34,3,-270
2687,-245,16,972,186,-15,-225
2688,-248,30,975,290,-46,-208
2689,-259,52,965,319,-46,-200
2690,-250,45,979,280,-3,-210
2691,-246,67,988,184,52,-223
2692,-255,72,998,128,93,-194
2693,-249,64,1010,61,81,-190
2694,-253,51,991,-40,52,-206
2695,-265,55,998,-163,52,-231
2696,-248,64,985,-212,56,-249
2697,-259,59,979,-167,26,-215
2698,-263,65,961,-50,-11,-159
2699,-263,48,970,91,-30,-108
2700,-270,47,958,171,-24,-90
2701,-253,44,968,200,11,-90
2702,-271,59,976,184,48,-106
2703,-256,56,992,128,101,-114
2704,-255,74,1007,28,112,-112
2705,-248,78,1022,-21,73,-86
2706,-258,62,1004,-1,-5,-61
2707,-264,54,978,42,-63,-44
2708,-276,51,988,40,-67,-51
2709,-267,61,975,7,-11,-67
2710,-263,53,988,8,46,-77
2711,-262,62,994,20,64,-55
2712,-270,57,985,48,85,-6
2713,-249,64,995,85,97,29
2714,-252,70,1015,128,79,42
2715,-250,78,1019,192,13,103
2716,-257,74,1012,223,-79,160
2717,-270,42,1016,186,-141,160
2718,-287,21,996,85,-145,99
2719,-282,15,972,-97,-99,-10
2720,-287,12,966,-230,-24,-94
2721,-275,21,950,-243,67,-135
2722,-276,20,980,-161,120,-139
2723,-276,42,1012,-72,103,-79
2724,-261,44,1010,120,1,37
2725,-248,23,1011,294,-136,85
2726,-253,31,995,284,-198,72
2727,-254,27,998,165,-163,46
2728,-257,17,979,-7,-100,9
2729,-267,26,971,-142,-50,-51
2730,-260,24,958,-226,5,-104
2731,-256,31,972,-245,48,-102
2732,-259,20,973,-183,25,-55
2733,-248,10,981,-48,-56,-16
2734,-267,10,985,92,-143,-1
2735,-270,10,963,149,-157,11
2736,-267,0,978,112,-99,-10
2737,-263,15,979,32,-26,-55
2738,-263,11,990,-83,34,-88
2739,-260,12,978,-156,69,-129
2740,-268,17,985,-193,58,-145
2741,-258,21,961,-140,17,-116
2742,-255,13,962,22,-59,-28
2743,-248,-13,935,229,-192,21
2744,-253,6,907,350,-241,7
2745,-266,10,900,393,-151,11
2746,-258,26,929,403,5,-20
2747,-261,60,969,317,155,-69
2748,-251,78,993,139,237,-73
2749,-251,69,1020,-7,226,-85
2750,-249,71,1007,-107,132,-114
2751,-255,62,976,-226,-69,-47
2752,-240,79,998,-202,13,-83
2753,-242,39,960,-218,-104,-24
2754,-237,45,950,-148,-91,-6
2755,-234,42,929,-15,-44,7
2756,-232,41,916,59,26,17
2757,-256,46,934,61,128,-1
2758,-250,58,985,26,228,9
2759,-239,47,1001,22,235,42
2760,-262,47,1004,22,175,56
2761,-261,41,1019,-25,136,37
2762,-273,51,1015,-93,114,31
2763,-274,34,1013,-144,93,44
2764,-278,34,1008,-87,64,42
2765,-279,25,1018,-50,42,37
2766,-281,15,983,-101,48,21
2767,-262,7,993,-183,77,-30
2768,-249,15,987,-189,107,-47
2769,-251,30,994,-93,107,-18
2770,-257,31,985,63,112,50
2771,-267,36,1007,214,50,109
2772,-265,32,1011,223,1,128
2773,-268,17,1012,147,-15,95
2774,-277,18,1005,24,13,58
2775,-267,7,993,-79,52,13
2776,-265,-9,991,-118,64,-18
2777,-270,0,972,-99,67,-57
2778,-269,8,1000,-62,79,-79
2779,-273,25,1011,-36,107,-69
2780,-279,42,1040,-52,107,-40
2781,-269,26,1024,-29,46,1
2782,-269,25,1018,-29,-67,25
2783,-253,14,1003,-33,-136,5
2784,-266,7,966,-36,-143,1
2785,-265,-7,953,-1,-93,-1
2786,-269,-4,947,48,-20,-26
2787,-282,15,960,94,34,-51
2788,-278,15,991,155,42,-30
2789,-272,28,1013,192,-3,-1
2790,-269,42,1014,212,-67,-1
2791,-275,48,984,165,-108,9
2792,-270,35,1001,85,-116,-4
2793,-265,37,994,-9,-93,-36
2794,-255,30,979,-120,-59,-40
2795,-266,16,989,-136,-61,-67
2796,-253,32,949,-136,-63,-83
2797,-269,6,952,-130,-40,-102
2798,-275,24,953,-132,-1,-104
2799,-256,29,950,-122,26,-83
2800,-263,41,972,-79,11,-42
2801,-258,32,955,10,-24,15
2802,-253,19,959,122,-63,35
2803,-250,21,951,159,-81,21
2804,-254,18,952,110,-30,-28
2805,-270,24,965,10,67,-65
2806,-262,33,990,-77,138,-104
2807,-259,45,990,-132,155,-92
2808,-271,40,994,-113,134,-61
2809,-258,42,1010,-29,62,-38
2810,-270,50,996,22,-5,11
2811,-254,34,989,100,-69,46
2812,-267,15,991,118,-138,66
2813,-276,-10,955,71,-132,31
2814,-279,-1,930,-17,-32,-30
2815,-279,4,943,-99,93,-85
2816,-273,17,969,-117,177,-102
2817,-266,22,988,-79,189,-90
2818,-267,39,1004,1,128,-67
2819,-269,37,999,55,46,-32
2820,-258,40,1018,108,-9,-1
2821,-263,30,992,112,-67,21
2822,-263,26,974,38,-81,-1
2823,-272,32,966,-44,-40,-49
2824,-274,14,947,-115,38,-73
2825,-276,12,954,-130,124,-110
2826,-280,25,969,-115,183,-116
2827,-273,37,983,-91,171,-102
2828,-264,43,1000,-3,118,-71
2829,-263,33,1010,92,17,-20
2830,-266,42,1001,122,-63,5
2831,-263,22,994,104,-99,-12
2832,-264,24,975,44,-77,-40
2833,-261,35,975,5,15,-55
2834,-257,37,992,12,101,-55
2835,-274,39,1014,53,167,-63
2836,-274,44,1046,53,235,-85
2837,-270,48,1073,20,239,-51
2838,-268,52,1106,18,196,-14
2839,-283,32,1127,89,142,-4
2840,-275,55,1140,210,120,5
2841,-268,70,1205,411,118,15
2842,-276,109,1287,538,161,1
2843,-294,109,1360,532,259,-1
2844,-284,144,1441,520,290,-38
2845,-307,168,1525,382,216,-69
2846,-316,197,1608,243,134,64
2847,-333,196,1679,151,-100,228
2848,-369,170,1720,130,-452,353
2849,-416,173,1760,151,-852,433
2850,-429,139,1752,276,-1243,497
2851,-462,112,1733,405,-1636,580
2852,-493,53,1725,337,-1911,687
2853,-502,11,1712,233,-2118,658
2854,-485,15,1737,190,-2352,558
2855,-465,62,1757,143,-2620,546
2856,-463,98,1769,221,-2946,650
2857,-477,85,1728,383,-3391,749
2858,-491,83,1607,196,-3792,777
2859,-454,81,1497,-183,-4032,714
2860,-423,60,1352,-677,-4278,626
2861,-409,61,1165,-1138,-4479,525
2862,-385,66,1011,-1406,-4630,497
2863,-340,53,865,-1523,-4683,456
2864,-303,37,704,-1529,-4641,392
2865,-237,48,533,-1429,-4573,300
2866,-183,46,384,-1304,-4407,228
2867,-142,25,242,-1161,-4100,185
2868,-77,28,126,-1072,-3700,42
2869,-21,43,-1,-1072,-3259,-131
2870,22,71,-92,-1093,-2745,-245
2871,92,142,-156,-1097,-2155,-313
2872,137,182,-161,-931,-1671,-249
2873,200,220,-186,-701,-1358,-131
2874,230,264,-237,-417,-1134,138
2875,249,230,-299,-31,-970,468
2876,254,184,-330,366,-806,701
2877,260,148,-387,690,-569,773
2878,254,132,-395,813,-224,755
2879,232,90,-380,774,234,654
2880,220,106,-314,602,814,525
2881,217,143,-245,389,1384,517
2882,222,152,-165,374,1831,640
2883,197,133,-96,592,2161,755
2884,151,96,-18,883,2407,831
2885,86,25,57,1153,2556,839
2886,37,-23,122,1204,2714,691
2887,-12,10,220,1010,3073,501
2888,-42,-3,338,790,3560,396
2889,-85,8,481,671,4038,408
2890,-137,15,649,686,4491,455
2891,-221,15,821,758,4905,503
2892,-302,-9,1034,673,5288,482
2893,-347,-40,1288,296,5581,331
2894,-360,-27,1526,-437,5630,175
2895,-326,-71,1700,-1083,5339,140
2896,-299,-81,1814,-1437,4749,128
2897,-344,-46,1841,-1195,4044,322
2898,-417,-40,1954,-519,3468,593
2899,-487,-22,2048,-93,3187,664
2900,-557,8,2048,18,3169,646
2901,-561,-48,2048,-409,3273,662
2902,-553,-76,2048,-1044,3179,576
2903,-606,-27,2048,-1533,2661,501
2904,-619,-3,2048,-1525,1859,646
2905,-649,13,2048,-958,859,871
2906,-673,-31,2048,-255,-227,1113
2907,-701,-95,2048,-128,-1034,1165
2908,-707,-119,2048,-445,-1460,1060
2909,-687,-127,2048,-935,-1587,874
2910,-681,-90,2048,-1292,-1667,706
2911,-675,-71,2048,-1421,-1804,636
2912,-655,-58,1962,-1365,-2100,650
2913,-614,-66,1879,-1083,-2567,761
2914,-575,-85,1747,-763,-3138,869
2915,-547,-105,1630,-533,-3649,867
2916,-512,-77,1490,-517,-4044,755
2917,-449,-6,1359,-712,-4278,697
2918,-382,12,1232,-941,-4341,660
2919,-323,12,1108,-1183,-4329,638
2920,-283,3,1010,-1378,-4284,650
2921,-259,-15,893,-1386,-4229,701
2922,-239,-52,776,-1320,-4196,789
2923,-227,-100,696,-1097,-4147,787
2924,-197,-137,584,-908,-4038,771
2925,-167,-127,551,-673,-3891,660
2926,-129,-114,504,-589,-3722,546
2927,-74,-96,454,-636,-3645,472
2928,-3,-80,420,-630,-3528,408
2929,39,-32,345,-663,-3393,415
2930,72,-42,269,-566,-3272,533
2931,98,-71,203,-316,-3108,593
2932,142,-61,123,-156,-2866,609
2933,176,-51,42,-83,-2565,578
2934,198,-22,17,-9,-2145,511
2935,220,8,36,171,-1704,464
2936,233,37,66,298,-1413,464
2937,234,22,56,260,-1216,529
2938,264,29,73,208,-997,480
2939,261,63,60,83,-802,496
2940,275,45,16,-13,-577,593
2941,274,21,-23,-85,-315,646
2942,285,-2,-72,-56,3,609
2943,294,-6,-130,192,310,529
2944,289,22,-150,575,614,521
2945,287,20,-144,903,1007,585
2946,266,30,-132,1102,1439,621
2947,231,31,-53,1188,1857,673
2948,205,27,-16,1299,2255,744
2949,171,51,75,1383,2562,822
2950,138,36,119,1346,2800,900
2951,65,-7,146,1280,3001,910
2952,30,-25,172,1219,3300,863
2953,-15,-67,188,1284,3603,787
2954,-79,-85,268,1401,3950,755
2955,-143,-54,442,1620,4452,687
2956,-236,25,653,1757,5021,558
2957,-309,33,892,1721,5462,566
2958,-358,48,1193,1546,5515,622
2959,-361,53,1420,1128,5122,644
2960,-232,14,1567,706,4468,550
2961,-240,45,1643,395,3630,667
2962,-259,34,1677,303,2909,992
2963,-298,24,1676,653,2685,1212
2964,-402,-37,1759,1069,2823,1294
2965,-453,-138,1830,889,3075,1224
2966,-488,-180,1878,180,3243,925
2967,-487,-201,1913,-562,3245,464
2968,-547,-129,1989,-1122,2948,185
2969,-518,-109,1970,-1449,2284,185
2970,-488,-124,1883,-1316,1331,271
2971,-530,-153,1737,-943,472,400
2972,-547,-168,1596,-538,34,525
2973,-528,-227,1468,-124,58,580
2974,-526,-251,1399,30,321,496
2975,-526,-239,1376,14,614,279
2976,-484,-152,1346,-56,804,109
2977,-434,-88,1334,24,802,119
2978,-402,-77,1322,221,624,189
2979,-369,-50,1299,296,345,249
2980,-369,-31,1260,198,146,289
2981,-350,11,1239,124,91,214
2982,-324,36,1174,-126,110,214
2983,-305,-12,1105,-249,153,304
2984,-309,-93,1058,-68,89,292
2985,-314,-106,990,104,-30,142
2986,-296,-98,957,122,-38,37
2987,-301,-60,927,118,36,3
2988,-272,-17,899,110,179,21
2989,-257,33,928,128,353,54
2990,-222,56,945,89,509,185
2991,-232,61,1009,173,485,296
2992,-242,63,1016,313,362,390
2993,-216,18,1035,421,95,396
2994,-214,-17,995,329,-208,390
2995,-246,-41,934,212,-368,283
2996,-252,-34,884,92,-300,111
2997,-268,14,876,28,-34,-22
2998,-267,5,900,-27,278,-51
2999,-279,37,953,-5,468,-49
3000,-282,70,987,85,495,37
3001,-274,68,1032,210,359,240
3002,-307,1,983,176,-206,322
3003,-303,9,1014,405,-143,400
3004,-282,33,1024,374,85,386
3005,-301,-3,965,-77,-145,199
3006,-304,-31,917,-296,-28,66
3007,-328,-29,884,-388,146,-71
3008,-321,-36,896,-404,374,-163
3009,-323,-1,919,-357,528,-227
3010,-324,37,950,-283,587,-100
3011,-308,24,1022,-68,480,95
3012,-298,3,1024,219,194,232
3013,-324,-10,989,409,-108,279
3014,-329,-31,946,387,-220,249
3015,-333,-37,944,216,-122,124
3016,-319,-31,966,5,46,-22
3017,-314,21,945,-154,257,-153
3018,-308,18,985,-251,400,-122
3019,-281,4,1001,-126,364,-49
3020,-287,2,1028,87,187,21
3021,-297,6,1025,229,-24,124
3022,-298,12,983,368,-171,203
3023,-295,23,992,376,-204,267
3024,-292,8,995,223,-104,179
3025,-302,17,981,8,13,64
3026,-309,10,965,-214,132,9
3027,-309,7,961,-304,249,-38
3028,-312,3,993,-281,304,-45
3029,-315,0,993,-161,243,-6
3030,-319,23,1018,51,112,21
3031,-329,24,1036,282,-50,121
3032,-330,15,1030,458,-181,193
3033,-327,14,1010,458,-233,154
3034,-327,26,1007,268,-192,81
3035,-315,25,988,-25,-59,1
3036,-314,23,976,-269,89,-79
3037,-310,34,994,-394,189,-104
3038,-321,47,989,-316,192,-36
3039,-316,33,1012,-103,118,87
3040,-327,16,1005,126,-5,162
3041,-328,-4,1005,194,-85,199
3042,-327,-22,989,139,-143,130
3043,-316,1,1000,28,-188,37
3044,-313,2,966,-38,-212,-26
3045,-323,-4,969,-126,-141,-69
3046,-298,-4,953,-138,-56,-116
3047,-319,34,964,-136,26,-139
3048,-292,34,990,-156,116,-59
3049,-292,35,996,-34,67,60
3050,-289,11,990,133,-56,173
3051,-309,-17,978,247,-175,228
3052,-324,-40,953,229,-200,195
3053,-328,-57,948,157,-143,85
3054,-325,-58,941,65,-73,-49
3055,-319,-37,938,8,15,-167
3056,-312,-22,957,1,116,-227
3057,-290,28,1003,28,153,-227
3058,-291,53,1028,63,97,-45
3059,-294,35,1055,159,-59,111
3060,-300,31,1035,233,-200,167
3061,-319,17,1022,116,-266,214
3062,-320,-21,999,-66,-286,164
3063,-337,-42,972,-183,-284,25
3064,-334,-67,930,-290,-200,-124
3065,-342,-65,903,-296,-61,-237
3066,-324,-44,922,-259,69,-294
3067,-306,-7,955,-126,89,-286
3068,-301,39,989,147,-40,-196
3069,-287,68,1000,487,-224,-12
3070,-282,57,994,716,-419,130
3071,-288,36,1004,598,-497,175
3072,-284,27,983,268,-415,37
3073,-266,56,972,-93,-268,-131
3074,-266,53,943,-288,-177,-182
3075,-274,54,894,-302,-95,-196
3076,-289,44,900,-214,3,-188
3077,-277,66,907,-89,95,-147
3078,-264,71,946,16,153,-34
3079,-255,66,972,171,81,50
3080,-281,50,978,202,5,132
3081,-281,42,986,147,-28,124
3082,-294,17,994,65,-52,66
3083,-298,16,986,-17,-83,-1
3084,-301,29,963,-58,-5,-79
3085,-297,21,957,-93,120,-118
3086,-309,17,972,-111,210,-102
3087,-290,12,969,-31,243,-47
3088,-300,-4,967,116,191,-4
3089,-319,-11,985,239,130,50
3090,-323,-16,987,278,87,52
3091,-316,1,1012,204,69,-12
3092,-306,4,1028,75,26,-92
3093,-318,25,1017,-23,-58,-128
3094,-308,11,1002,-60,-112,-139
3095,-310,15,976,-107,-116,-120
3096,-308,-21,959,-118,-67,-98
3097,-291,1,938,-89,-9,-106
3098,-292,5,935,-42,38,-83
3099,-295,13,945,46,40,-57
3100,-291,14,937,57,46,-14
3101,-284,-13,945,71,66,33
3102,-289,-44,966,149,60,-47
3103,-304,-24,973,108,30,-176
3104,-310,-5,972,32,13,-231
3105,-315,0,967,-13,19,-233
3106,-301,1,965,8,40,-233
3107,-292,14,971,48,54,-213
3108,-306,20,971,89,48,-182
3109,-297,11,974,118,50,-110
3110,-307,13,979,130,36,-100
3111,-300,8,973,48,25,-110
3112,-302,-12,959,-64,28,-163
3113,-312,-4,972,-122,28,-272
3114,-307,2,971,-148,21,-336
3115,-305,24,975,-103,32,-331
3116,-302,18,985,22,13,-294
3117,-298,15,998,96,-7,-233
3118,-288,8,986,141,-34,-192
3119,-293,16,999,126,-46,-184
3120,-294,32,1006,32,-26,-182
3121,-316,32,1016,-62,-24,-155
3122,-299,12,1001,-179,-56,-147
3123,-300,8,981,-214,-61,-206
3124,-300,-9,965,-195,-50,-219
3125,-298,-4,975,-122,-34,-243
3126,-286,12,978,-38,-15,-217
3127,-292,9,979,36,-28,-120
3128,-283,5,996,104,-58,-16
3129,-301,36,995,139,-79,64
3130,-302,24,1006,65,-30,152
3131,-302,7,1034,-25,9,95
3132,-327,11,1040,-240,3,3
3133,-333,-4,1021,-351,-15,-110
3134,-319,-9,995,-374,-1,-247
3135,-321,-31,989,-337,-24,-309
3136,-307,-11,964,-175,-48,-315
3137,-312,-19,963,18,-102,-262
3138,-297,-12,971,174,-163,-237
3139,-298,2,959,247,-186,-237
3140,-289,1,967,276,-171,-229
3141,-282,10,964,298,-157,-233
3142,-287,18,983,247,-138,-262
3143,-293,22,995,133,-118,-274
3144,-296,41,974,116,-126,-299
3145,-301,32,983,128,-155,-272
3146,-299,14,956,169,-147,-258
3147,-301,7,959,135,-93,-274
3148,-294,0,971,77,-40,-290
3149,-293,5,984,63,-48,-286
3150,-299,9,960,63,-67,-278
3151,-284,13,962,28,-42,-241
3152,-285,5,957,-50,21,-182
3153,-271,-20,964,-83,91,-198
3154,-274,-12,981,-19,95,-225
3155,-281,-26,971,65,34,-233
3156,-304,-38,970,186,-16,-268
3157,-308,-6,974,192,5,-309
3158,-292,-7,976,149,42,-274
3159,-288,-3,985,196,36,-276
3160,-288,26,993,225,17,-268
3161,-285,31,1007,194,-24,-249
3162,-298,13,1006,139,-75,-253
3163,-297,14,993,49,-104,-286
3164,-285,8,983,20,-95,-311
3165,-291,-8,973,-11,-97,-364
3166,-293,14,969,-36,-100,-393
3167,-296,15,956,8,-102,-354
3168,-302,-12,951,83,-81,-340
3169,-304,1,953,92,-54,-338
3170,-312,1,950,71,-15,-307
3171,-292,-7,976,112,5,-295
3172,-285,13,977,155,-26,-311
3173,-290,14,986,157,-42,-321
3174,-299,8,995,132,-58,-338
3175,-288,-5,974,83,-69,-383
3176,-294,18,966,59,-73,-422
3177,-291,34,985,59,-38,-387
3178,-283,26,979,110,-22,-325
3179,-284,16,996,190,-63,-305
3180,-296,21,998,217,-112,-278
3181,-285,12,976,208,-140,-264
3182,-281,18,973,165,-147,-286
3183,-273,24,977,126,-122,-331
3184,-270,48,980,38,-85,-340
3185,-277,27,988,8,-54,-333
3186,-269,14,1000,14,-40,-350
3187,-293,21,982,-7,-50,-333
3188,-285,4,988,10,-81,-317
3189,-274,11,982,61,-143,-311
3190,-287,17,974,96,-194,-276
3191,-279,12,974,92,-183,-249
3192,-263,12,981,49,-165,-266
3193,-275,2,960,18,-124,-323
3194,-277,17,965,-44,-28,-370
3195,-282,29,965,-66,54,-389
3196,-276,13,982,-60,81,-385
3197,-282,26,974,-27,56,-368
3198,-268,32,992,26,11,-311
3199,-263,11,969,73,-63,-243
3200,-251,1,951,96,-126,-231
3201,-278,-14,933,28,-122,-253
3202,-280,-9,925,-52,-20,-294
3203,-277,-18,922,-77,122,-358
3204,-256,7,957,-105,247,-409
3205,-270,32,981,-77,278,-381
3206,-278,31,997,73,191,-301
3207,-282,27,996,239,23,-204
3208,-283,0,993,290,-89,-120
3209,-285,-14,986,272,-102,-143
3210,-284,-7,972,147,-46,-188
3211,-283,-10,982,38,36,-254
3212,-282,-12,968,-81,116,-335
3213,-280,-23,982,-179,153,-391
3214,-299,-13,962,-165,159,-415
3215,-287,-1,974,-64,146,-378
3216,-290,6,998,106,79,-282
3217,-301,-12,1001,239,-16,-229
3218,-296,-7,999,229,-48,-243
3219,-290,-1,1003,126,-11,-272
3220,-302,6,991,18,9,-309
3221,-287,-23,976,-19,26,-335
3222,-292,-13,966,-27,42,-368
3223,-299,-3,973,10,67,-374
3224,-292,-7,987,130,50,-348
3225,-293,6,986,284,15,-286
3226,-288,0,1005,397,-28,-239
3227,-298,1,999,389,-54,-239
3228,-296,4,994,290,-50,-295
3229,-300,12,996,159,-18,-329
3230,-297,12,1005,53,-1,-360
3231,-291,-7,997,-58,3,-395
3232,-307,-19,974,-136,-5,-426
3233,-297,-22,982,-120,15,-452
3234,-292,-13,987,-27,-9,-442
3235,-307,-5,976,96,-77,-391
3236,-296,-5,960,262,-151,-356
3237,-305,-11,963,327,-173,-331
3238,-294,3,967,301,-134,-358
3239,-287,2,974,217,-71,-397
3240,-272,11,995,63,-15,-419
3241,-263,7,1001,-79,17,-461
3242,-279,4,974,-128,15,-481
3243,-287,-12,977,-87,-1,-469
3244,-293,-11,983,-19,7,-444
3245,-290,-33,971,104,-48,-430
3246,-295,-23,968,237,-132,-419
3247,-297,-3,976,307,-167,-407
3248,-280,-8,989,280,-143,-417
3249,-288,5,989,161,-102,-454
3250,-283,15,960,59,-59,-483
3251,-256,13,985,1,-30,-481
3252,-259,5,955,14,-36,-460
3253,-271,10,964,89,-52,-420
3254,-280,-9,974,190,-85,-381
3255,-283,-8,984,251,-97,-397
3256,-290,-7,986,194,-56,-438
3257,-281,0,987,89,-18,-491
3258,-286,8,993,20,5,-518
3259,-279,32,1001,-3,13,-508
3260,-263,18,1001,49,3,-460
3261,-272,24,992,132,-42,-422
3262,-279,23,993,182,-67,-383
3263,-269,-9,983,217,-110,-364
3264,-292,4,990,217,-140,-399
3265,-284,3,987,212,-89,-417
3266,-285,-13,986,212,-77,-426
3267,-295,6,994,176,-73,-458
3268,-286,15,991,77,-34,-493
3269,-276,15,983,10,-30,-491
3270,-272,20,968,1,-58,-489
3271,-259,24,976,38,-61,-442
3272,-257,10,961,157,-81,-385
3273,-270,12,962,247,-110,-346
3274,-290,-2,949,251,-77,-350
3275,-273,0,970,200,23,-401
3276,-288,-6,975,110,71,-444
3277,-295,11,992,38,73,-491
3278,-289,18,980,-40,71,-514
3279,-276,17,982,-72,34,-516
3280,-263,30,976,-62,-42,-477
3281,-261,29,957,36,-93,-422
3282,-262,19,947,212,-157,-360
3283,-258,13,920,307,-163,-311
3284,-251,-3,914,303,-46,-329
3285,-264,3,918,223,71,-378
3286,-270,21,951,143,159,-428
3287,-267,10,974,171,187,-436
3288,-281,14,986,217,118,-422
3289,-279,18,977,221,38,-376
3290,-266,-2,983,212,-1,-368
3291,-282,-8,965,182,-16,-391
3292,-279,3,965,151,23,-399
3293,-283,-8,980,118,69,-411
3294,-278,-3,967,79,109,-438
3295,-274,-7,1004,53,153,-454
3296,-273,-29,979,75,155,-465
3297,-280,-11,992,61,132,-481
3298,-286,-2,994,-13,171,-434
3299,-278,8,1019,12,196,-430
3300,-285,22,1025,63,114,-399
3301,-285,4,1003,87,21,-358
3302,-305,4,992,135,-42,-340
3303,-299,-8,962,178,-24,-379
3304,-301,0,981,157,54,-428
3305,-290,-4,966,102,85,-481
3306,-288,13,971,118,87,-524
3307,-293,42,963,153,95,-547
3308,-296,52,974,157,157,-510
3309,-267,51,990,130,173,-477
3310,-275,52,956,135,91,-501
3311,-292,72,996,208,-85,-417
3312,-279,52,985,233,-56,-325
3313,-238,8,963,311,-56,-327
3314,-285,4,976,233,-124,-364
3315,-323,24,942,44,-1,-340
3316,-289,3,955,108,155,-378
3317,-267,1,967,188,159,-385
3318,-278,13,957,282,101,-358
3319,-289,27,971,374,73,-350
3320,-283,32,991,403,66,-317
3321,-298,74,1002,411,48,-274
3322,-282,84,1008,442,13,-215
3323,-257,56,1007,419,-28,-186
3324,-282,37,965,286,-54,-192
3325,-290,20,952,112,1,-254
3326,-297,10,940,-21,107,-321
3327,-307,10,944,-81,177,-395
3328,-296,23,928,-77,249,-420
3329,-287,10,935,3,275,-413
3330,-270,41,917,67,294,-407
3331,-305,13,937,100,294,-426
3332,-292,53,940,-7,396,-434
3333,-293,49,950,-146,437,-442
3334,-299,59,956,-238,462,-419
3335,-281,70,989,-126,347,-413
3336,-274,67,978,98,159,-294
3337,-290,50,954,344,-61,-225
3338,-298,37,909,419,-100,-163
3339,-312,25,898,342,5,-202
3340,-314,51,916,235,169,-256
3341,-299,79,926,196,288,-247
3342,-309,85,964,194,333,-200
3343,-296,73,987,206,331,-163
3344,-316,53,990,196,267,-163
3345,-305,55,970,85,263,-190
3346,-289,54,976,38,257,-225
3347,-290,54,984,18,210,-219
3348,-300,68,965,63,146,-176
3349,-306,75,959,153,114,-106
3350,-317,59,946,231,140,-47
3351,-332,50,956,257,194,-57
3352,-332,49,970,176,267,-92
3353,-335,50,984,55,353,-126
3354,-317,53,975,-25,382,-157
3355,-314,40,1004,-117,364,-165
3356,-328,54,989,-163,308,-180
3357,-303,64,994,-156,271,-90
3358,-307,57,996,-15,189,-6
3359,-324,51,990,173,73,70
3360,-348,41,962,299,5,128
3361,-342,10,980,313,28,111
3362,-351,3,972,182,97,39
3363,-355,18,992,-9,189,-30
3364,-326,12,993,-109,245,-88
3365,-350,24,1006,-118,210,-128
3366,-342,55,1004,-62,150,-116
3367,-336,76,1008,77,64,9
3368,-325,47,1002,233,-63,132
3369,-326,33,979,319,-161,171
3370,-338,1,970,280,-151,185
3371,-357,11,953,169,-63,124
3372,-344,0,946,14,75,31
3373,-349,8,955,-109,192,-53
3374,-357,-9,965,-185,243,-108
3375,-351,5,989,-212,232,-161
3376,-339,38,982,-208,171,-137
3377,-314,40,978,-91,79,-69
3378,-322,49,972,118,-42,17
3379,-324,49,959,239,-130,107
3380,-320,36,945,262,-141,121
3381,-331,30,943,151,-73,103
3382,-342,21,939,44,28,52
3383,-348,16,958,-101,138,-20
3384,-349,18,949,-255,224,-86
3385,-347,3,966,-349,243,-129
3386,-346,15,972,-300,198,-137
3387,-344,38,982,-130,101,-53
3388,-330,41,992,100,-15,81
3389,-334,28,1003,307,-138,156
3390,-343,15,966,290,-188,171
3391,-347,6,959,174,-138,117
3392,-335,13,951,1,-16,21
3393,-352,13,938,-173,112,-55
3394,-340,17,936,-253,249,-114
3395,-352,25,955,-234,317,-129
3396,-335,12,970,-115,269,-92
3397,-355,24,982,89,130,-57
3398,-349,46,973,194,32,42
3399,-349,36,980,258,-13,76
3400,-347,43,973,212,-34,85
3401,-333,39,958,130,-38,46
3402,-333,37,952,14,7,-1
3403,-349,30,946,-130,67,-36
3404,-352,33,941,-195,128,-73
3405,-359,29,943,-191,153,-83
3406,-350,34,947,-150,132,-77
3407,-357,24,950,-74,85,-12
3408,-356,12,942,67,19,21
3409,-351,0,950,155,-32,21
3410,-368,12,932,147,-5,-16
3411,-361,27,921,89,69,-45
3412,-342,62,975,48,128,-55
3413,-327,55,977,73,105,3
3414,-346,33,966,91,5,31
3415,-350,23,941,36,-61,21
3416,-347,4,928,-62,-58,-16
3417,-344,10,907,-140,-11,-63
3418,-343,7,886,-185,77,-110
3419,-332,16,888,-173,177,-124
3420,-325,15,913,-81,243,-120
3421,-348,35,932,24,253,-100
3422,-340,56,950,71,263,-40
3423,-340,51,981,75,267,50
3424,-341,43,992,96,220,74
3425,-347,41,989,59,146,85
3426,-348,36,964,-25,103,68
3427,-357,15,949,-95,103,72
3428,-375,-6,943,-70,114,33
3429,-378,8,943,20,153,21
3430,-378,11,963,110,185,21
3431,-368,19,963,173,198,-1
3432,-375,31,988,116,185,-8
3433,-361,43,988,22,204,17
3434,-359,39,995,-54,210,27
3435,-370,60,1003,-154,200,25
3436,-358,50,1018,-197,196,60
3437,-342,30,997,-93,128,91
3438,-380,-4,974,1,64,119
3439,-394,-10,965,132,105,58
3440,-381,16,1008,159,206,-26
3441,-375,58,1044,85,302,-30
3442,-347,84,1136,63,355,3
3443,-326,95,1194,10,411,15
3444,-333,129,1265,-109,360,35
3445,-338,150,1340,-216,267,107
3446,-352,149,1370,-115,93,195
3447,-396,126,1372,30,-106,314
3448,-420,101,1418,165,-183,357
3449,-442,97,1458,176,-177,417
3450,-481,114,1503,190,-132,468
3451,-502,122,1589,258,-114,533
3452,-534,102,1696,298,-241,564
3453,-522,110,1761,98,-509,499
3454,-533,129,1792,-212,-837,421
3455,-534,157,1777,-548,-1192,464
3456,-536,142,1745,-599,-1542,562
3457,-556,130,1725,-509,-1913,669
3458,-568,85,1670,-320,-2224,767
3459,-578,50,1637,-189,-2427,806
3460,-608,31,1592,-99,-2599,816
3461,-630,41,1572,7,-2722,857
3462,-637,29,1561,149,-2862,888
3463,-629,20,1581,212,-3077,947
3464,-626,41,1568,219,-3405,1126
3465,-620,-9,1483,157,-3794,1308
3466,-627,-25,1431,182,-4140,1287
3467,-578,-28,1355,85,-4339,1181
3468,-562,6,1284,-34,-4417,1064
3469,-516,1,1237,-197,-4433,964
3470,-486,-9,1139,-324,-4464,853
3471,-421,-36,1069,-408,-4538,687
3472,-378,-30,961,-413,-4520,443
3473,-334,-44,902,-361,-4485,214
3474,-294,34,850,-277,-4352,25
3475,-256,141,815,-257,-4186,203
3476,-206,173,799,-140,-4073,648
3477,-153,121,776,42,-4026,1087
3478,-130,109,733,217,-4030,1367
3479,-149,83,714,251,-3981,1513
3480,-136,22,702,94,-3880,1449
3481,-63,-32,702,-296,-3811,1224
3482,-42,-45,629,-720,-3845,880
3483,-29,-40,569,-1070,-3847,533
3484,-16,-53,489,-1320,-3823,335
3485,46,-75,450,-1245,-3761,103
3486,73,-5,385,-1003,-3641,-53
3487,127,28,395,-702,-3522,64
3488,154,54,376,-386,-3317,162
3489,214,26,381,-300,-3194,283
3490,311,22,366,-466,-3020,283
3491,322,31,337,-564,-2938,195
3492,355,28,292,-576,-2968,64
3493,374,39,212,-605,-2946,-86
3494,388,78,141,-726,-2841,-264
3495,426,120,51,-796,-2673,-395
3496,479,191,-64,-730,-2481,-520
3497,503,207,-124,-622,-2276,-532
3498,525,251,-210,-370,-1999,-372
3499,508,213,-293,-138,-1497,-36
3500,483,205,-344,135,-960,156
3501,467,205,-359,149,-401,228
3502,474,186,-377,-23,210,314
3503,477,132,-356,-126,812,343
3504,484,161,-320,-247,1306,361
3505,478,218,-315,-253,1700,451
3506,429,216,-284,-48,1939,654
3507,353,174,-246,292,2130,818
3508,266,161,-202,516,2355,794
3509,212,141,-147,321,2728,705
3510,151,60,-111,-179,3146,589
3511,101,-48,-76,-796,3509,378
3512,82,-137,-85,-1378,3802,130
3513,27,-140,-80,-1488,4007,-100
3514,-19,-89,-47,-1076,4151,-159
3515,-49,1,19,-122,4189,87
3516,-93,-2,96,1216,4097,455
3517,-181,10,205,2251,4118,747
3518,-208,-33,291,2391,4425,871
3519,-171,-152,417,1841,4901,708
3520,-193,-176,510,882,5452,425
3521,-245,-90,569,151,5831,265
3522,-279,7,690,214,5987,349
3523,-370,61,807,926,5976,609
3524,-457,8,946,1397,5780,861
3525,-494,-65,1036,1237,5763,896
3526,-443,-222,1054,493,5829,831
3527,-490,-284,1069,-105,5915,730
3528,-542,-252,1118,-247,5898,554
3529,-601,-121,1198,55,5931,400
3530,-715,53,1359,657,5980,371
3531,-720,124,1523,932,6023,482
3532,-708,75,1635,803,6083,568
3533,-677,-54,1690,48,5927,675
3534,-699,-136,1710,-667,5775,593
3535,-746,-134,1772,-1161,5663,371
3536,-796,-60,1896,-1324,5603,371
3537,-928,70,2048,-745,5360,486
3538,-961,65,2048,-21,4970,812
3539,-1033,-42,2048,635,4362,1039
3540,-1047,-182,2048,489,3618,872
3541,-1043,-127,2048,-113,2847,511
3542,-1037,-35,2048,-777,2126,300
3543,-1068,36,2048,-904,1364,240
3544,-1081,76,2048,-687,651,347
3545,-1110,73,2048,-261,36,482
3546,-1083,55,2048,-40,-427,572
3547,-1035,39,2048,-5,-823,581
3548,-1037,69,2048,-171,-1204,511
3549,-1005,88,2048,-439,-1567,519
3550,-977,77,2048,-560,-1950,517
3551,-965,64,2048,-640,-2349,496
3552,-921,65,2022,-652,-2698,503
3553,-894,100,1975,-544,-3054,556
3554,-865,90,1901,-243,-3538,693
3555,-849,96,1822,-33,-4007,814
3556,-845,84,1753,-54,-4356,884
3557,-806,84,1650,-298,-4522,869
3558,-768,72,1566,-626,-4628,831
3559,-740,64,1481,-837,-4743,837
3560,-698,44,1385,-999,-4804,828
3561,-666,34,1310,-1007,-4788,789
3562,-656,78,1288,-841,-4765,794
3563,-622,54,1279,-548,-4833,867
3564,-621,80,1274,-232,-5034,951
3565,-623,49,1250,-167,-5298,1158
3566,-625,-21,1180,-236,-5569,1300
3567,-636,-57,1096,-355,-5753,1316
3568,-639,-89,1022,-501,-5819,1279
3569,-612,-115,932,-599,-5757,1259
3570,-569,-136,860,-613,-5659,1164
3571,-555,-111,828,-618,-5466,1072
3572,-500,-127,786,-492,-5343,1005
3573,-450,-124,751,-482,-5317,902
3574,-403,-129,668,-632,-5362,726
3575,-312,-150,589,-798,-5358,455
3576,-198,-122,483,-1013,-5286,244
3577,-171,-38,399,-993,-5239,173
3578,-113,-10,330,-859,-5071,253
3579,-40,-30,275,-695,-4890,439
3580,-10,27,264,-386,-4751,542
3581,53,73,245,-302,-4499,701
3582,131,-8,199,-400,-4294,872
3583,210,-90,165,-488,-4233,775
3584,237,-79,101,-681,-4208,550
3585,257,-68,5,-784,-4136,404
3586,317,-67,-89,-673,-3964,265
3587,380,-86,-169,-482,-3727,124
3588,444,-95,-231,-224,-3399,-8
3589,490,-93,-278,57,-2999,-186
3590,566,-29,-304,208,-2450,-358
3591,606,64,-258,319,-1870,-249
3592,639,69,-210,454,-1458,140
3593,647,27,-214,591,-1167,439
3594,626,1,-204,747,-995,511
3595,607,-3,-200,704,-792,460
3596,602,-16,-209,581,-544,408
3597,634,-18,-217,491,-268,292
3598,635,-3,-223,348,15,95
3599,660,40,-217,270,316,-110
3600,644,62,-222,151,626,-178
3601,607,89,-244,92,952,-81
3602,555,56,-224,77,1282,60
3603,476,32,-216,91,1607,156
3604,400,13,-212,112,1913,154
3605,356,11,-181,159,2218,107
3606,364,-2,-157,329,2528,109
3607,345,-7,-127,542,2755,167
3608,317,42,-94,741,2966,185
3609,283,63,-64,682,3226,304
3610,192,88,-77,464,3534,390
3611,143,98,-73,114,3989,453
3612,95,44,-66,-185,4452,554
3613,125,-46,-1,-259,4800,687
3614,163,-108,44,65,5124,933
3615,71,-244,143,983,5292,1210
3616,-54,-351,229,2192,5331,1128
3617,-180,-310,312,3083,5321,810
3618,-316,-181,400,3534,5333,322
3619,-375,-28,514,3467,5628,-167
3620,-303,217,725,3042,6066,-376
3621,-314,339,905,2985,6317,-172
3622,-280,280,1099,3079,6200,195
3623,-230,300,1279,2909,5982,564
3624,-233,221,1382,2376,5851,767
3625,-358,122,1466,1491,5790,751
3626,-452,128,1614,776,5843,318
3627,-564,243,1768,321,6026,-106
3628,-702,259,1956,94,6025,-153
3629,-826,258,2048,206,5792,-122
3630,-902,243,2048,210,5286,74
3631,-849,130,2048,-23,4735,326
3632,-791,-17,2048,-415,4044,472
3633,-722,-16,2018,-620,3442,279
3634,-679,49,2011,-652,2950,244
3635,-691,75,2032,-490,2525,304
3636,-698,112,2027,-540,2247,300
3637,-689,70,1967,-1052,1999,390
3638,-687,-42,1881,-1634,1778,439
3639,-637,-135,1782,-2040,1544,374
3640,-589,-148,1662,-2031,1237,357
3641,-566,-171,1537,-1318,788,460
3642,-569,-150,1436,-220,314,572
3643,-565,-98,1374,757,122,580
3644,-545,-45,1368,1239,216,490
3645,-530,-3,1358,1151,362,328
3646,-481,52,1363,880,466,109
3647,-451,95,1369,342,323,31
3648,-420,73,1298,-271,36,72
3649,-384,50,1237,-617,-319,3
3650,-348,32,1110,-913,-661,33
3651,-356,-4,996,-808,-888,-1
3652,-337,6,911,-503,-831,-69
3653,-324,25,888,3,-565,-69
3654,-330,10,887,389,-294,-69
3655,-339,42,917,551,-54,-92
3656,-300,53,969,501,142,-104
3657,-268,64,1022,227,103,-116
3658,-316,106,1026,-130,-77,-223
3659,-318,156,1020,-466,-85,-94
3660,-313,110,1023,-544,-132,-28
3661,-291,75,988,-659,-145,60
3662,-308,28,947,-529,-85,76
3663,-341,-2,945,-228,17,54
3664,-353,-7,969,59,132,-20
3665,-325,21,1021,210,202,-186
3666,-333,79,1045,225,173,-270
3667,-333,126,1082,188,83,-206
3668,-319,116,1096,85,-69,-4
3669,-319,80,1060,-21,-266,124
3670,-317,64,1048,-93,-407,150
3671,-319,66,1018,-226,-425,171
3672,-290,44,1000,-247,-349,193
3673,-329,41,1000,-199,-237,154
3674,-304,31,986,-95,-34,117
3675,-323,23,988,-23,71,103
3676,-319,12,1009,-42,107,66
3677,-319,34,1021,-95,48,17
3678,-322,34,1033,-138,-42,33
3679,-310,39,1021,-122,-188,76
3680,-323,32,1035,-62,-298,107
3681,-316,37,1024,-83,-370,113
3682,-308,19,1002,-161,-343,138
3683,-319,-12,986,-193,-276,124
3684,-310,-33,973,-245,-163,91
3685,-312,-53,954,-247,-79,29
3686,-319,-44,956,-273,3,-34
3687,-300,-64,956,-199,73,-71
3688,-300,-31,986,-115,62,-94
3689,-309,-7,1003,-27,-48,-32
3690,-293,1,989,161,-206,56
3691,-315,9,1022,325,-341,80
3692,-319,-29,1022,258,-419,103
3693,-313,-48,989,159,-448,37
3694,-317,-62,971,48,-380,-86
3695,-321,-56,950,-70,-257,-211
3696,-324,-50,936,-115,-100,-309
3697,-336,-62,936,-142,3,-376
3698,-322,-39,956,-122,67,-411
3699,-305,2,977,-62,75,-321
3700,-298,-23,1033,126,-52,-202
3701,-322,-28,1024,255,-266,-174
3702,-322,-31,1020,190,-409,-204
3703,-320,-54,980,-42,-436,-256
3704,-309,-60,949,-265,-405,-352
3705,-297,-73,918,-402,-331,-501
3706,-278,-48,904,-411,-214,-614
3707,-272,-21,948,-11,-65,-508
3708,-276,-11,900,-242,-106,-602
3709,-272,-9,984,149,-85,-448
3710,-279,18,993,198,-138,-415
3711,-290,8,987,135,-181,-397
3712,-283,13,987,26,-227,-413
3713,-287,2,983,-140,-245,-401
3714,-270,-12,911,-341,-128,-579
3715,-276,-17,946,-281,-225,-450
3716,-280,-12,917,-294,9,-624
3717,-266,20,914,-117,107,-604
3718,-276,24,941,132,79,-512
3719,-291,19,961,350,-30,-409
3720,-295,29,953,419,-75,-342
3721,-298,10,957,301,-59,-305
3722,-329,-17,967,42,-5,-358
3723,-331,-28,958,-251,112,-524
3724,-330,-9,965,-445,226,-672
3725,-314,4,961,-404,247,-739
3726,-304,19,962,-253,228,-741
3727,-281,46,991,-11,136,-682
3728,-258,54,991,208,-18,-536
3729,-249,33,989,362,-153,-438
3730,-253,42,974,405,-202,-352
3731,-258,33,977,344,-157,-340
3732,-255,52,985,217,-40,-401
3733,-255,61,992,67,91,-479
3734,-267,65,981,-21,192,-514
3735,-260,56,1020,-76,218,-481
3736,-243,34,1020,-93,167,-419
3737,-268,23,996,-54,28,-385
3738,-263,19,979,-7,-69,-311
3739,-244,26,955,83,-95,-247
3740,-261,30,959,151,-99,-198
3741,-268,6,940,180,-52,-190
3742,-287,4,963,171,62,-243
3743,-273,13,965,100,202,-297
3744,-288,35,1006,14,261,-321
3745,-280,75,1020,-1,198,-251
3746,-267,43,1014,130,19,-141
3747,-288,15,1005,212,-151,-85
3748,-304,24,980,198,-212,-108
3749,-285,15,955,83,-157,-118
3750,-297,1,943,-11,-63,-151
3751,-290,-4,937,-54,120,-231
3752,-295,-12,949,-93,282,-325
3753,-303,-12,979,-179,374,-403
3754,-304,-6,964,-171,403,-481
3755,-300,23,995,-42,353,-516
3756,-288,54,1017,108,249,-477
3757,-286,71,1051,253,23,-309
3758,-302,28,1027,284,-239,-192
3759,-299,24,998,208,-327,-215
3760,-308,7,963,7,-265,-241
3761,-292,5,923,-177,-124,-266
3762,-281,-4,932,-234,32,-284
3763,-280,8,933,-140,107,-280
3764,-284,6,940,65,118,-237
3765,-282,9,954,239,85,-182
3766,-263,7,964,342,56,-129
3767,-274,24,997,305,52,-81
3768,-276,20,990,149,28,-47
3769,-289,7,986,16,9,-45
3770,-295,0,969,-101,32,-102
3771,-298,-20,968,-240,85,-159
3772,-300,-44,949,-327,157,-206
3773,-296,-47,939,-281,232,-264
3774,-285,-36,965,-124,261,-266
3775,-287,-30,966,69,220,-204
3776,-301,-33,965,231,165,-135
3777,-295,-9,995,305,134,-126
3778,-290,-2,998,249,109,-81
3779,-302,-14,996,106,83,-36
3780,-303,-28,988,8,71,-92
3781,-306,-29,990,-60,54,-172
3782,-306,-51,965,-118,48,-249
3783,-308,-49,952,-136,75,-331
3784,-303,-28,938,-93,132,-378
3785,-305,-14,958,26,171,-387
3786,-292,17,991,174,151,-321
3787,-283,13,992,303,69,-204
3788,-291,3,1010,342,11,-167
3789,-287,7,1005,231,38,-135
3790,-289,7,994,89,109,-110
3791,-297,-23,998,-48,118,-96
3792,-301,-37,997,-74,89,-151
3793,-318,-37,985,-58,71,-172
3794,-310,-44,984,-11,69,-192
3795,-317,-60,962,53,73,-239
3796,-319,-58,973,87,95,-303
3797,-322,-29,982,65,155,-352
3798,-318,10,1010,49,185,-317
3799,-298,2,1042,171,91,-221
3800,-309,-15,1027,301,-67,-159
3801,-323,-13,1016,257,-134,-131
3802,-326,-37,1002,83,-91,-120
3803,-323,-52,995,-85,-58,-204
3804,-320,-53,973,-169,-59,-333
3805,-323,-52,959,-167,-54,-438
3806,-338,-38,943,-118,-26,-473
3807,-317,-41,964,-21,-16,-473
3808,-304,-15,954,104,-30,-442
3809,-305,-11,966,237,-83,-378
3810,-298,-1,977,341,-138,-344
3811,-301,13,977,303,-140,-311
3812,-288,10,987,204,-130,-321
3813,-302,-4,990,38,-120,-350
3814,-315,-6,949,-79,-99,-399
3815,-317,7,967,-95,-54,-458
3816,-316,2,964,-64,-16,-438
3817,-317,-8,951,16,3,-417
