sequence,AccelerometerX,AccelerometerY,AccelerometerZ,GyroscopeX,GyroscopeY,GyroscopeZ
0,16,-8,1022,24,136,7
1,11,-8,1044,14,118,17
2,14,-18,1029,7,73,9
3,9,-20,1031,-3,19,1
4,0,-12,1019,-23,-15,-1
5,4,-12,1007,-25,-16,3
6,0,-5,988,8,17,7
7,7,-11,998,49,71,15
8,13,-26,1006,53,110,15
9,-1,-17,1022,49,116,-10
10,-1,-8,1021,18,107,-18
11,9,-15,1047,-5,89,-10
12,-3,-2,1058,1,48,-16
13,-7,-9,1047,-11,3,-1
14,-1,-13,1043,-27,-46,9
15,-9,-15,1029,-23,-63,5
16,3,-14,1003,-17,-26,-8
17,3,-18,1003,-5,38,-10
18,4,-6,1024,-3,93,-22
19,8,-3,1023,-15,118,-16
20,-9,-5,1036,-15,107,-6
21,-7,-3,1037,24,75,5
22,-10,-3,1048,46,30,21
23,-20,-7,1057,32,-26,29
24,-11,-18,1055,8,-81,29
25,-10,-18,1030,3,-120,17
26,-12,-4,1019,1,-108,-1
27,-1,-18,1004,-40,-61,-16
28,9,-17,991,-54,-7,-36
29,11,-5,1006,-40,38,-34
30,2,-1,1011,1,79,-26
31,6,-6,1036,34,79,-1
32,8,-16,1034,36,30,5
33,5,-9,1039,5,-50,5
34,9,-16,1010,-42,-108,3
35,7,-11,1005,-40,-124,-1
36,3,-22,1005,-21,-87,-1
37,-2,-18,993,-27,-46,-6
38,6,-21,988,-33,7,-22
39,14,-18,1006,-29,46,-34
40,19,-14,1004,-23,46,-32
41,22,-15,1014,-13,36,-14
42,13,-6,1012,30,17,9
43,11,-16,1008,51,7,33
44,21,-26,1014,44,-16,31
45,1,-31,1004,26,-36,3
46,1,-17,1009,-15,-26,-14
47,-1,-23,1002,-29,19,-32
48,9,-20,1017,-27,64,-40
49,11,-14,1014,-7,85,-44
50,24,-4,1014,7,89,-32
51,6,-8,1038,3,58,-4
52,5,1,1049,16,9,-6
53,0,-6,1031,5,-9,-4
54,-3,-12,1022,-29,-18,3
55,1,-27,1032,-27,-24,-6
56,-6,-13,997,-23,-22,-18
57,8,-22,1011,-36,3,-40
58,10,-7,1011,-58,25,-51
59,16,-5,1023,-70,38,-55
60,10,-4,1015,-40,40,-45
61,11,-3,1018,-3,46,-16
62,7,-3,1039,26,21,17
63,-8,-8,1036,55,3,42
64,-15,-15,1020,73,7,58
65,-24,-14,1036,57,19,54
66,-12,-16,1041,18,40,25
67,-13,-17,1030,-34,42,-8
68,-13,-22,1044,-54,28,-24
69,-9,-24,1052,-29,-3,-36
70,-10,-16,1048,3,-46,-22
71,-11,-18,1059,18,-95,-26
72,-8,-14,1019,5,-116,-14
73,-1,-7,1007,-15,-114,-14
74,15,-17,992,-19,-83,-6
75,11,4,995,7,-58,7
76,9,-2,1002,40,-20,7
77,17,-13,1015,51,13,15
78,6,-3,1015,32,32,7
79,-3,-6,1030,5,52,3
80,6,-9,1025,-9,67,15
81,-3,-15,1029,1,42,31
82,-2,-17,1049,30,-9,39
83,-7,-20,1035,36,-87,48
84,5,-27,1027,12,-132,27
85,0,-28,1001,-36,-140,-6
86,7,-19,996,-70,-91,-32
87,0,-26,979,-56,-18,-51
88,8,-11,989,-21,52,-36
89,1,-7,1011,42,91,-24
90,11,-6,1011,65,99,-10
91,9,-7,1024,49,64,7
92,7,-11,1046,36,13,11
93,4,-5,1033,-1,-61,13
94,3,-13,1003,-42,-116,3
95,13,-18,1007,-60,-130,-4
96,14,-23,1006,-52,-99,-12
97,13,-17,984,-50,-40,-4
98,8,-26,981,-11,30,17
99,15,-23,1006,53,81,21
100,2,-24,1008,77,109,9
101,0,-18,1041,49,110,-6
102,10,-22,1071,-13,79,-8
103,2,-7,1073,-29,-7,-14
104,-8,-13,1047,-3,-73,-8
105,-5,-15,1022,-1,-87,11
106,10,-33,1018,-21,-65,3
107,-8,-23,1004,-54,-44,-26
108,7,-19,1007,-66,11,-53
109,15,-23,1027,-56,64,-61
110,8,-9,1007,-29,85,-57
111,3,-6,1040,3,89,-18
112,-3,-4,1042,51,48,29
113,1,-21,1044,104,-1,60
114,-4,-21,1038,114,-67,60
115,-9,-26,1029,73,-100,42
116,-2,-30,1011,8,-87,-1
117,5,-20,1007,-56,-54,-36
118,15,-20,1005,-85,-7,-51
119,6,-7,1009,-56,7,-51
120,13,-17,1007,-9,13,-38
121,5,-14,1011,36,5,-18
122,6,-13,1011,57,11,-4
123,10,-12,1015,38,5,17
124,17,2,1010,32,-9,11
125,19,-8,1008,20,-16,13
126,13,-3,999,14,-18,3
127,6,-14,1006,-5,3,-8
128,7,-12,1019,-13,38,-20
129,5,-14,1002,-21,60,-22
130,2,-6,1020,-5,58,-26
131,-1,-7,1030,10,34,-20
132,9,0,1035,1,19,3
133,4,-8,1029,5,-11,27
134,15,-19,1017,30,-38,35
135,2,-18,999,40,-44,42
136,6,-24,980,-13,-1,35
137,11,-16,1002,-87,89,21
138,19,-16,998,-148,146,21
139,20,-7,1006,-68,155,25
140,13,1,1024,38,110,13
141,-1,6,1037,79,44,64
142,10,-14,1042,69,1,66
143,-8,-17,1019,28,-54,39
144,-13,-31,1032,-44,-65,15
145,-19,-19,1013,-81,-42,-18
146,-9,-32,1010,-76,15,-26
147,-8,-23,1009,-38,54,-18
148,-3,-11,1012,8,85,-1
149,4,-11,1036,38,93,13
150,6,-4,1060,46,79,25
151,1,-15,1041,22,19,35
152,2,-22,1051,1,-52,23
153,-11,-23,1039,-7,-87,3
154,-16,-27,1041,-34,-87,-28
155,-9,-33,1033,-99,-73,-61
156,-11,-26,1022,-179,-40,-106
157,-4,-25,1022,-222,3,-143
158,-7,-16,1016,-224,34,-141
159,-1,-9,1024,-177,32,-85
160,3,-14,1024,-58,-7,-22
161,-7,-21,1022,18,-50,29
162,0,-42,1019,38,-61,54
163,-2,-26,1032,36,-85,37
164,-9,-39,1030,18,-97,-1
165,-14,-33,1039,-11,-87,-26
166,-9,-24,1026,-17,-99,-44
167,-3,-28,1026,-15,-97,-38
168,9,-24,1029,16,-102,-40
169,9,-7,1037,49,-124,-30
170,5,-11,1013,40,-140,-24
171,1,-19,1019,18,-134,-12
172,13,-20,1016,1,-116,-12
173,7,-25,1001,-23,-106,-22
174,19,-21,1003,-21,-91,-45
175,14,-16,1006,-33,-61,-55
176,11,-14,1005,-34,-44,-57
177,6,-24,1018,-25,-52,-57
178,12,-14,1014,8,-83,-12
179,3,-13,1038,46,-114,-16
180,7,-18,1001,10,-132,-1
181,5,-41,1002,-21,-126,-10
182,21,-28,1003,-29,-100,-42
183,22,-34,1011,-58,-73,-65
184,23,-21,1003,-70,-46,-67
185,18,-11,1029,-27,-26,-47
186,20,-15,1018,28,-30,-8
187,18,-22,1042,63,-54,11
188,14,-24,1024,51,-93,5
189,22,-35,1028,-1,-122,-18
190,16,-21,1019,-66,-145,-45
191,6,-33,1025,-97,-155,-65
192,7,-37,1005,-68,-140,-75
193,19,-29,1007,-19,-112,-67
194,11,-32,1007,10,-73,-63
195,24,-44,1018,8,-63,-79
196,15,-41,1023,-33,-79,-106
197,24,-32,1025,-103,-95,-141
198,30,-33,1012,-199,-112,-186
199,32,-19,1022,-310,-110,-202
200,24,-4,1028,-283,-151,-170
201,30,-3,1024,-152,-210,-110
202,30,-17,1002,-36,-239,-30
203,29,-34,1006,24,-231,5
204,21,-36,992,24,-153,-38
205,14,-46,1002,-113,-36,-126
206,30,-50,1027,-374,69,-276
207,20,-43,1039,-693,110,-444
208,34,-32,1046,-970,83,-594
209,41,-10,1035,-1132,9,-641
210,57,13,1002,-1095,-63,-598
211,63,3,986,-958,-120,-473
212,70,2,958,-798,-167,-313
213,69,-6,953,-474,-237,-131
214,66,-29,922,-85,-245,27
215,67,-56,929,92,-179,117
216,51,-75,920,36,-71,89
217,55,-80,932,-81,58,11
218,64,-91,945,-232,142,-77
219,56,-61,949,-345,161,-163
220,46,-46,951,-370,132,-182
221,60,-53,920,-308,91,-157
222,60,-42,912,-193,5,-94
223,58,-49,871,-5,-120,5
224,56,-75,827,135,-241,80
225,74,-103,774,92,-339,58
226,73,-98,678,-111,-401,-53
227,78,-154,627,-693,-306,-88
228,106,-172,554,-1081,-149,-366
229,100,-170,474,-1390,-38,-696
230,69,-115,419,-1634,112,-883
231,83,-109,370,-1784,304,-948
232,113,-59,366,-1609,515,-878
233,117,-46,342,-1173,663,-667
234,93,-45,329,-597,817,-372
235,108,-68,317,18,987,-69
236,96,-67,323,450,1153,146
237,95,-92,294,635,1327,271
238,38,-124,283,553,1550,275
239,-20,-111,277,403,1776,158
240,-68,-62,311,352,2103,64
241,-15,-46,370,497,2403,158
242,16,-73,385,698,2622,414
243,-33,-59,440,1024,2749,583
244,-83,-42,488,1376,3030,638
245,-182,-49,562,1630,3247,644
246,-261,-41,612,1678,3292,568
247,-341,-5,697,1583,3444,326
248,-308,11,773,1108,3794,167
249,-219,-71,821,227,4036,175
250,-207,-55,901,-353,3989,214
251,-274,-18,1011,12,3911,218
252,-358,41,1193,989,3917,228
253,-454,136,1403,1766,3984,253
254,-541,124,1625,1954,4175,175
255,-680,153,1790,1608,4210,-190
256,-730,170,1954,403,4138,-460
257,-719,188,2048,-1128,3864,-503
258,-752,142,2048,-2242,3169,-424
259,-823,127,2048,-2585,2226,-430
260,-891,105,1991,-2579,1390,-342
261,-888,73,1876,-2409,839,-165
262,-837,-9,1753,-2042,460,-18
263,-768,-76,1675,-1691,214,21
264,-742,-94,1580,-1456,28,-16
265,-712,-84,1536,-1249,-71,-34
266,-701,-27,1527,-929,-159,-26
267,-702,20,1507,-628,-272,89
268,-682,49,1499,-437,-409,265
269,-657,60,1482,-273,-614,443
270,-633,82,1442,-232,-862,515
271,-584,87,1355,-337,-1149,562
272,-561,101,1241,-425,-1448,560
273,-518,150,1133,-445,-1620,529
274,-476,185,1052,-425,-1694,503
275,-411,210,937,-337,-1749,537
276,-359,276,866,-175,-1683,640
277,-331,309,823,-42,-1542,781
278,-288,363,774,20,-1329,994
279,-249,383,779,-17,-1136,1255
280,-237,414,796,-111,-1022,1478
281,-219,411,784,-158,-966,1714
282,-200,367,776,-294,-888,1939
283,-187,324,775,-492,-804,2056
284,-186,318,799,-630,-774,2152
285,-204,283,825,-656,-774,2369
286,-254,243,818,-499,-823,2621
287,-317,204,796,-327,-768,2828
288,-347,132,800,-314,-579,3005
289,-370,72,803,-378,-397,3115
290,-373,-40,802,-515,-290,3177
291,-372,-117,782,-812,-241,3230
292,-354,-202,765,-1140,-200,3337
293,-360,-254,792,-1165,-163,3353
294,-410,-288,816,-773,-102,3316
295,-478,-347,827,-314,-30,3388
296,-504,-478,845,-113,198,3449
297,-523,-594,894,-308,528,3341
298,-514,-726,919,-759,833,3001
299,-539,-797,955,-1140,935,2507
300,-573,-787,999,-1408,890,2009
301,-547,-752,1027,-1521,839,1626
302,-542,-731,1035,-1306,691,1406
303,-525,-657,1072,-745,532,1310
304,-511,-629,1123,-17,368,1359
305,-491,-601,1147,370,144,1412
306,-469,-616,1109,354,-71,1283
307,-446,-560,1042,141,-196,1001
308,-417,-524,998,-81,-243,751
309,-412,-505,961,-130,-237,533
310,-414,-443,905,22,-183,371
311,-392,-408,928,171,-48,236
312,-383,-340,921,235,177,91
313,-375,-253,988,231,349,66
314,-355,-234,1030,223,327,146
315,-349,-230,1036,225,105,206
316,-348,-262,995,120,-132,185
317,-374,-305,938,-54,-296,107
318,-344,-295,881,-177,-243,-1
319,-356,-274,871,-179,-118,-147
320,-361,-223,886,-132,67,-260
321,-350,-204,892,-140,286,-313
322,-353,-163,951,-161,442,-331
323,-338,-141,1004,-214,456,-231
324,-329,-151,1015,-132,235,-169
325,-319,-168,1006,-118,-59,-129
326,-325,-181,981,-76,-268,-174
327,-357,-162,938,-117,-352,-221
328,-352,-159,902,-42,-280,-249
329,-355,-147,914,132,-130,-260
330,-350,-152,925,216,54,-288
331,-326,-122,936,192,212,-311
332,-339,-72,1008,202,226,-319
333,-329,-43,1044,161,134,-213
334,-333,-61,1047,174,-99,-124
335,-358,-105,998,165,-347,-90
336,-367,-125,972,83,-462,-122
337,-363,-152,936,-76,-446,-229
338,-351,-151,915,-222,-278,-387
339,-384,-99,927,-273,-58,-518
340,-363,-69,956,-148,110,-477
341,-342,-60,990,71,97,-360
342,-336,-66,1013,241,-42,-253
343,-326,-75,1007,280,-200,-194
344,-335,-70,994,276,-362,-182
345,-333,-94,983,182,-444,-161
346,-337,-92,1001,63,-462,-180
347,-335,-92,950,22,-464,-188
348,-336,-102,921,132,-407,-188
349,-334,-117,929,298,-270,-182
350,-325,-100,951,376,-140,-202
351,-320,-68,999,354,-59,-188
352,-321,-70,1011,346,-97,-143
353,-335,-30,1027,380,-159,-128
354,-322,-45,1033,290,-214,-100
355,-334,-42,1016,71,-298,-114
356,-315,-55,975,-169,-360,-129
357,-300,-67,940,-368,-390,-161
358,-305,-82,903,-421,-358,-188
359,-285,-102,875,-306,-237,-219
360,-306,-84,884,-101,-81,-254
361,-280,-82,914,71,42,-210
362,-301,-70,927,133,69,-186
363,-302,-69,971,153,91,-137
364,-316,-48,984,96,73,-114
365,-285,-64,1008,-70,-3,-90
366,-292,-90,978,-257,-100,-69
367,-301,-122,954,-267,-196,-94
368,-311,-139,947,-238,-227,-122
369,-322,-156,926,-173,-204,-159
370,-315,-144,904,-105,-71,-223
371,-304,-147,921,-23,3,-243
372,-312,-97,934,32,56,-239
373,-285,-89,975,65,56,-169
374,-283,-92,1001,49,-9,-118
375,-270,-92,996,-36,-120,-67
376,-275,-104,992,-132,-224,-36
377,-291,-111,981,-224,-294,9
378,-313,-139,949,-202,-300,46
379,-314,-164,926,-15,-184,31
380,-336,-191,941,216,-38,-26
381,-310,-201,980,339,64,-137
382,-332,-172,982,274,112,-286
383,-343,-119,1025,120,155,-395
384,-316,-97,1087,-68,120,-342
385,-309,-112,1093,-132,-136,-268
386,-333,-128,1043,-130,-384,-266
387,-313,-138,999,-179,-485,-231
388,-320,-146,976,-138,-485,-241
389,-309,-160,949,3,-374,-284
390,-319,-152,945,143,-220,-286
391,-312,-146,967,298,-67,-280
392,-307,-117,986,374,9,-206
393,-310,-109,1033,374,42,-59
394,-304,-71,1042,434,48,50
395,-317,-81,1074,436,-42,119
396,-313,-73,1103,380,-171,189
397,-316,-91,1079,233,-298,206
398,-323,-139,1033,-17,-423,175
399,-317,-177,1015,-152,-458,68
400,-304,-188,965,-130,-436,-135
401,-307,-189,939,-52,-319,-325
402,-313,-147,961,30,-177,-489
403,-311,-110,953,130,-56,-528
404,-301,-62,1008,321,13,-446
405,-284,-46,1033,424,32,-272
406,-282,-57,1053,405,-34,-112
407,-290,-80,1047,315,-163,-32
408,-273,-132,1056,161,-308,-61
409,-267,-140,1004,28,-417,-194
410,-298,-133,973,-58,-468,-323
411,-283,-137,947,-34,-390,-419
412,-289,-106,970,85,-294,-463
413,-292,-90,992,255,-266,-442
414,-291,-59,1011,405,-239,-387
415,-274,-63,1020,376,-229,-336
416,-256,-72,1028,212,-286,-303
417,-268,-86,1013,53,-358,-286
418,-256,-110,989,-1,-419,-286
419,-275,-124,988,14,-462,-327
420,-269,-138,964,7,-475,-401
421,-274,-115,950,5,-433,-473
422,-272,-92,965,126,-380,-475
423,-256,-90,978,247,-362,-458
424,-249,-78,970,243,-333,-411
425,-230,-91,986,208,-343,-346
426,-249,-72,974,182,-405,-274
427,-224,-92,971,190,-393,-167
428,-239,-111,972,272,-356,-149
429,-227,-114,989,284,-362,-198
430,-241,-101,1004,247,-374,-237
431,-241,-96,999,247,-382,-288
432,-234,-72,1009,272,-362,-321
433,-224,-70,1031,182,-362,-319
434,-204,-85,1012,59,-374,-346
435,-196,-89,1013,-33,-378,-397
436,-222,-83,991,-115,-405,-409
437,-204,-83,967,-150,-388,-405
438,-199,-86,964,-87,-360,-391
439,-212,-87,975,44,-325,-397
440,-199,-92,957,151,-276,-387
441,-219,-89,972,190,-257,-376
442,-216,-81,985,221,-222,-364
443,-194,-76,991,171,-212,-323
444,-198,-84,984,63,-272,-299
445,-198,-99,985,16,-345,-329
446,-203,-99,977,55,-391,-358
447,-210,-119,960,73,-405,-378
448,-189,-124,947,69,-372,-444
449,-194,-120,939,114,-337,-508
450,-190,-90,954,225,-294,-544
451,-187,-41,976,426,-266,-415
452,-195,-58,1002,469,-272,-303
453,-165,-48,1038,401,-300,-309
454,-166,-47,1043,323,-415,-319
455,-174,-71,1035,65,-524,-329
456,-166,-76,1046,-199,-632,-391
457,-187,-86,1006,-374,-735,-399
458,-164,-99,943,-343,-704,-436
459,-147,-99,931,-156,-569,-458
460,-155,-92,935,147,-378,-422
461,-160,-95,949,432,-214,-389
462,-176,-70,985,501,-40,-426
463,-176,-45,1032,346,136,-463
464,-158,-23,1091,5,196,-413
465,-141,-42,1116,-191,48,-360
466,-160,-57,1069,-216,-229,-297
467,-169,-79,1053,-140,-466,-221
468,-181,-112,989,1,-577,-157
469,-180,-138,971,173,-573,-169
470,-187,-137,944,350,-483,-239
471,-174,-119,978,479,-347,-319
472,-160,-103,1030,423,-266,-356
473,-166,-55,1073,380,-290,-399
474,-140,-40,1106,251,-399,-385
475,-129,-58,1112,46,-647,-352
476,-151,-45,1085,-181,-860,-319
477,-132,-69,1046,-304,-979,-237
478,-137,-90,995,-236,-1040,-188
479,-121,-106,945,-29,-985,-210
480,-128,-117,911,149,-786,-251
481,-137,-129,916,286,-540,-301
482,-119,-111,955,344,-298,-358
483,-112,-72,1003,301,-157,-372
484,-129,-37,1048,337,-118,-364
485,-123,-41,1090,290,-188,-295
486,-120,-47,1101,147,-335,-245
487,-107,-75,1083,38,-497,-264
488,-119,-94,1060,-87,-651,-331
489,-102,-99,1021,-230,-714,-376
490,-111,-98,964,-201,-638,-440
491,-101,-87,961,-79,-474,-467
492,-103,-85,979,114,-331,-450
493,-100,-72,1005,257,-233,-434
494,-111,-53,1035,366,-171,-448
495,-82,-47,1065,247,-122,-424
496,-94,-36,1086,75,-188,-454
497,-95,-44,1074,-134,-309,-481
498,-80,-51,1045,-277,-448,-481
499,-74,-62,1019,-236,-577,-491
500,-64,-47,1000,-118,-673,-469
501,-60,-61,984,135,-727,-399
502,-75,-53,988,376,-745,-319
503,-63,-55,986,505,-722,-295
504,-61,-41,993,432,-640,-309
505,-40,-4,996,264,-563,-295
506,0,-8,1008,116,-563,-264
507,-7,-23,1013,94,-649,-229
508,-3,-37,974,83,-784,-206
509,-10,-57,939,151,-819,-239
510,-24,-52,926,217,-737,-274
511,-14,-58,928,305,-559,-288
512,-26,-34,954,341,-391,-313
513,-30,-10,962,237,-243,-342
514,-25,-3,1019,157,-186,-348
515,-10,5,1056,67,-294,-288
516,10,-15,1036,83,-479,-217
517,-6,-38,987,106,-663,-192
518,1,-52,971,46,-743,-206
519,21,-72,947,-15,-725,-243
520,24,-54,917,44,-640,-348
521,10,-32,908,98,-495,-403
522,29,-5,942,128,-302,-401
523,35,9,978,106,-147,-372
524,48,9,1008,53,-81,-333
525,43,13,1031,-34,-134,-321
526,49,-13,1014,-158,-249,-286
527,61,-38,989,-206,-364,-266
528,34,-48,967,-204,-401,-280
529,25,-38,950,-134,-339,-276
530,43,-48,948,69,-216,-223
531,32,-51,978,276,-153,-172
532,16,-61,995,341,-126,-172
533,1,-38,1016,305,-54,-196
534,26,-31,1032,143,-9,-210
535,36,-50,1040,-50,-50,-245
536,47,-40,1028,-234,-157,-290
537,42,-41,1022,-363,-216,-303
538,45,-35,991,-251,-227,-266
539,64,-48,995,-42,-241,-196
540,41,-58,979,178,-263,-170
541,35,-60,991,194,-179,-174
542,41,-57,1022,91,-58,-213
543,19,-41,1032,-11,26,-211
544,35,-45,1043,-83,52,-202
545,35,-34,1054,-163,25,-231
546,35,-46,1041,-290,-73,-233
547,26,-52,1015,-306,-136,-243
548,45,-44,1007,-257,-173,-227
549,46,-48,1016,-83,-183,-172
550,53,-66,1010,67,-210,-141
551,31,-62,1008,120,-175,-143
552,32,-47,1040,94,-100,-155
553,38,-48,1047,-13,-59,-165
554,41,-57,1051,-89,-91,-202
555,21,-58,1054,-159,-138,-247
556,16,-48,1060,-273,-157,-254
557,13,-49,1053,-238,-183,-239
558,15,-40,1045,-126,-243,-190
559,28,-53,1036,59,-315,-110
560,31,-68,1014,173,-388,-81
561,25,-66,994,200,-413,-85
562,13,-50,1005,180,-309,-118
563,33,-54,1033,63,-188,-157
564,47,-59,1051,-74,-161,-200
565,31,-42,1059,-159,-220,-247
566,52,-35,1018,-224,-304,-249
567,46,-50,1014,-195,-376,-264
568,49,-25,987,-150,-380,-227
569,68,-46,973,-70,-405,-169
570,88,-68,974,91,-423,-133
571,59,-40,965,161,-382,-149
572,66,-31,970,100,-284,-110
573,68,-48,1011,3,-169,-118
574,76,-33,1011,-142,-165,-165
575,69,-38,1016,-283,-265,-172
576,76,-22,1010,-218,-364,-153
577,70,-38,990,-142,-458,-71
578,85,-57,980,20,-518,-38
579,76,-67,953,118,-507,-71
580,91,-63,952,143,-440,-65
581,104,-71,933,157,-382,-73
582,96,-43,953,147,-294,-96
583,97,-25,959,143,-210,-73
584,109,-32,971,137,-141,-34
585,100,-29,966,128,-108,-18
586,107,-41,989,67,-134,-28
587,95,-38,979,49,-138,-26
588,89,-48,991,48,-120,-34
589,87,-60,983,44,-99,-81
590,84,-37,1009,-52,-75,-120
591,98,-44,1000,-103,-52,-129
592,96,-35,1038,-101,-73,-110
593,95,-46,1008,-15,-155,-67
594,83,-57,1001,106,-245,-49
595,95,-59,972,130,-253,-53
596,112,-62,971,83,-171,-100
597,108,-44,960,22,-128,-143
598,125,-12,983,-34,-52,-131
599,109,-9,993,46,-36,-94
600,123,-24,1031,130,-89,-53
601,107,-4,1027,126,-126,-42
602,110,-7,1038,83,-161,-12
603,118,-22,1024,73,-212,5
604,103,-26,1000,55,-286,1
605,109,-36,992,18,-298,-10
606,122,-35,977,-29,-224,-32
607,105,-12,985,-1,-128,-44
608,122,-20,1018,1,-1,1
609,130,-24,1053,-74,69,-10
610,104,-13,1062,-169,25,3
611,124,-33,1038,-185,-106,23
612,95,-45,1019,-85,-224,72
613,113,-65,999,-64,-274,35
614,108,-61,993,-81,-194,-12
615,102,-64,1004,-89,-110,-47
616,102,-41,1005,-79,-20,-42
617,92,-43,1039,-74,28,-20
618,98,-69,1050,-91,11,-14
619,107,-66,1055,-216,-32,-79
620,100,-62,1047,-370,-93,-122
621,113,-33,1036,-355,-151,-112
622,118,-53,1021,-154,-235,-20
623,104,-79,996,5,-319,31
624,108,-91,970,38,-276,-1
625,102,-90,976,-13,-183,-38
626,98,-67,985,-66,-42,-47
627,99,-99,1028,-136,50,-28
628,102,-118,1039,-253,67,-116
629,96,-84,1018,-492,17,-256
630,104,-71,1014,-640,-24,-317
631,113,-68,1008,-534,-58,-276
632,123,-70,991,-269,-157,-176
633,129,-70,960,-31,-220,-79
634,121,-87,983,157,-208,-14
635,123,-96,963,190,-165,-1
636,143,-100,972,92,-136,-44
637,140,-83,982,-27,-104,-116
638,154,-76,979,-136,-85,-133
639,145,-76,974,-175,-50,-172
640,136,-81,966,-232,-46,-194
641,154,-74,960,-288,-22,-204
642,124,-60,963,-201,-11,-186
643,135,-53,982,-89,-3,-85
644,149,-84,988,75,26,-40
645,133,-60,1003,171,5,-1
646,132,-54,1006,192,-5,58
647,133,-76,1020,208,-69,81
648,138,-116,986,96,-110,46
649,130,-105,978,-60,-130,-42
650,132,-90,938,-177,-83,-108
651,128,-86,958,-197,13,-133
652,134,-62,975,-52,83,-104
653,127,-48,987,157,97,-32
654,136,-51,1024,296,79,50
655,136,-63,1033,331,36,89
656,130,-76,1035,260,-38,85
657,143,-94,1029,77,-81,42
658,128,-96,982,-46,-126,-22
659,115,-87,970,-85,-122,-81
660,126,-78,973,-72,-48,-100
661,126,-55,982,24,34,-77
662,159,-60,1007,118,69,-28
663,136,-52,1009,192,56,-8
664,137,-56,1032,178,15,11
665,133,-60,1036,77,7,-1
666,143,-63,1020,-48,-34,-32
667,120,-63,988,-134,-83,-47
668,129,-62,979,-134,-79,-63
669,128,-64,955,-93,-32,-49
670,134,-71,966,-38,50,-44
671,146,-72,983,10,136,-63
672,141,-58,1017,110,146,-28
673,135,-51,1034,210,105,15
674,143,-47,1050,262,62,54
675,140,-58,1061,180,-13,66
676,134,-81,1028,8,-97,35
677,119,-90,1000,-122,-143,-14
678,129,-87,979,-173,-97,-73
679,129,-84,960,-204,-9,-110
680,130,-75,965,-185,83,-116
681,125,-56,1005,-107,128,-92
682,134,-54,1005,55,132,-22
683,132,-65,1025,235,79,56
684,121,-84,1024,245,9,80
685,125,-90,1022,71,-18,21
686,125,-84,1002,-91,-61,-22
687,123,-81,988,-136,-102,-61
688,127,-68,980,-113,-89,-67
689,138,-61,977,-42,-30,-47
690,121,-66,989,3,52,-26
691,127,-70,1013,36,110,-71
692,131,-57,1015,12,107,-71
693,136,-42,1017,-11,73,-28
694,130,-46,1037,38,19,33
695,125,-69,1027,59,-54,54
696,134,-83,1010,46,-97,42
697,119,-92,985,16,-58,21
698,126,-89,990,8,11,-12
699,121,-70,990,7,67,-53
700,124,-72,1003,16,110,-71
701,113,-58,1027,10,124,-67
702,127,-63,1032,-34,112,-59
703,124,-53,1037,-36,69,-40
704,127,-54,1041,55,-30,29
705,133,-65,1029,143,-153,81
706,140,-83,984,192,-225,87
707,120,-82,955,159,-216,64
708,136,-98,958,94,-114,23
709,143,-87,953,30,15,-71
710,134,-67,961,-93,99,-131
711,142,-60,985,-130,167,-149
712,133,-37,991,-66,165,-108
713,142,-55,1006,63,99,-45
714,143,-65,1001,151,-1,5
715,133,-66,1003,171,-67,1
716,130,-77,984,89,-61,-44
717,128,-87,972,-52,-28,-118
718,143,-94,949,-134,-1,-196
719,140,-87,935,-132,-20,-258
720,148,-57,922,-52,-24,-231
721,158,-46,923,126,-13,-155
722,166,-22,933,303,-34,-71
723,163,-23,929,436,-108,5
724,172,-34,903,454,-140,11
725,187,-37,891,329,-122,-44
726,178,-40,844,98,-87,-118
727,186,-45,810,-122,-9,-174
728,187,-12,783,-177,42,-198
729,179,-9,754,-58,50,-170
730,169,-17,702,48,28,-131
731,163,-7,630,-44,26,-71
732,150,3,552,-296,25,35
733,178,-72,494,-384,-40,124
734,167,-88,393,-269,-171,-24
735,125,-77,287,-259,-212,-184
736,117,-44,179,-425,32,-325
737,162,-9,117,-529,446,-454
738,171,10,77,-806,876,-438
739,203,39,23,-913,1294,-360
740,239,21,-55,-788,1657,-114
741,256,12,-121,-365,1952,81
742,200,-6,-149,61,2206,318
743,167,5,-167,567,2788,542
744,87,57,-78,1073,3657,652
745,2,159,37,1399,4773,683
746,-51,94,184,1446,5732,871
747,-113,-18,357,1040,6368,1097
748,-197,-116,464,567,6704,1124
749,-272,-198,658,278,6704,857
750,-389,-103,902,399,6802,447
751,-481,10,1136,684,6548,236
752,-563,10,1349,977,6005,296
753,-644,47,1527,1155,5603,240
754,-727,40,1627,641,5220,103
755,-778,-23,1758,-156,4859,146
756,-782,-55,1839,-656,4405,128
757,-869,-50,1846,-755,3776,39
758,-955,-64,1824,-759,3118,-24
759,-959,-117,1820,-796,2739,-118
760,-929,-147,1799,-861,2462,-247
761,-886,-141,1755,-1027,2208,-422
762,-832,-112,1704,-1388,1984,-516
763,-796,-93,1660,-1605,1696,-467
764,-778,-96,1598,-1456,1319,-346
765,-749,-95,1566,-1068,923,-237
766,-789,-56,1515,-743,591,-167
767,-830,-58,1486,-779,374,-124
768,-815,-64,1434,-1175,364,-90
769,-716,-109,1370,-1568,403,-137
770,-623,-132,1312,-1777,275,-258
771,-546,-112,1234,-1699,-52,-305
772,-519,-80,1208,-1218,-370,-278
773,-524,-8,1213,-478,-505,-280
774,-539,100,1245,34,-491,-174
775,-539,134,1271,157,-436,7
776,-536,161,1290,55,-384,156
777,-525,190,1259,-294,-411,304
778,-482,143,1225,-642,-606,433
779,-480,123,1149,-843,-919,437
780,-460,118,1041,-1029,-1237,412
781,-434,124,966,-1087,-1460,400
782,-409,168,893,-892,-1544,404
783,-348,212,828,-478,-1429,443
784,-295,260,834,-34,-1188,648
785,-266,318,869,258,-911,865
786,-261,366,864,294,-684,1154
787,-250,354,935,217,-522,1447
788,-231,361,966,83,-448,1689
789,-271,368,1000,10,-497,1919
790,-288,313,989,7,-571,2218
791,-330,263,1011,239,-579,2427
792,-384,257,1044,368,-544,2542
793,-421,195,1041,173,-456,2617
794,-449,174,1122,-175,-352,2609
795,-454,146,1145,-585,-366,2523
796,-473,85,1116,-999,-626,2587
797,-506,21,1086,-1148,-911,2665
798,-527,-37,1038,-1077,-1104,2722
799,-553,-122,1003,-812,-1265,2867
800,-571,-231,933,-406,-1339,3009
801,-565,-306,883,-5,-1257,2992
802,-581,-340,861,171,-1022,2904
803,-564,-410,838,-44,-753,2771
804,-556,-447,839,-335,-571,2576
805,-548,-460,866,-534,-413,2355
806,-539,-492,864,-601,-438,2230
807,-548,-531,855,-503,-532,2101
808,-543,-547,827,-404,-542,1941
809,-518,-548,835,-240,-511,1732
810,-472,-544,793,-138,-393,1515
811,-457,-535,803,-144,-360,1310
812,-440,-492,774,-181,-308,1130
813,-416,-463,776,-201,-225,996
814,-417,-417,812,-179,-165,919
815,-414,-403,847,-7,-112,900
816,-391,-426,863,122,-102,888
817,-385,-427,866,178,-73,800
818,-380,-387,917,243,-16,644
819,-369,-343,926,319,-42,554
820,-344,-301,940,469,-100,464
821,-353,-229,932,514,-124,382
822,-349,-188,918,323,-28,296
823,-358,-163,932,-31,118,201
824,-358,-164,944,-447,226,130
825,-336,-153,932,-726,249,76
826,-344,-167,929,-716,177,52
827,-352,-163,917,-501,81,87
828,-373,-158,922,-161,85,113
829,-380,-146,950,14,150,91
830,-374,-133,982,-3,206,85
831,-371,-123,997,-99,265,1
832,-356,-102,998,-326,288,-16
833,-342,-132,1007,-525,235,-16
834,-348,-123,997,-540,124,-44
835,-339,-124,1004,-376,-40,-12
836,-368,-131,1001,-136,-173,35
837,-362,-144,965,65,-261,33
838,-365,-153,920,141,-235,5
839,-371,-139,927,169,-85,-98
840,-373,-121,950,71,62,-186
841,-372,-75,979,-58,167,-239
842,-332,-60,1003,-261,200,-192
843,-319,-76,997,-288,101,-153
844,-331,-67,1003,-263,-77,-128
845,-331,-84,992,-191,-237,-85
846,-336,-81,956,-89,-333,-57
847,-337,-95,902,-1,-329,-71
848,-341,-98,885,69,-190,-118
849,-341,-93,907,61,-9,-157
850,-316,-66,909,40,116,-180
851,-322,-58,941,-7,140,-172
852,-316,-38,945,-31,153,-157
853,-311,-42,980,-77,107,-122
854,-308,-44,961,-167,-20,-120
855,-326,-8,925,-243,-114,-147
856,-318,-28,886,-242,-145,-88
857,-319,-54,866,-204,-93,-32
858,-331,-83,868,-195,19,5
859,-328,-94,863,-130,198,17
860,-346,-113,875,26,300,-6
861,-338,-98,939,116,355,-51
862,-347,-73,966,102,380,-65
863,-347,-64,991,-3,329,-45
864,-342,-55,1010,-72,253,-104
865,-338,-55,1006,-175,159,-81
866,-334,-60,989,-185,71,-32
867,-351,-70,974,-142,13,23
868,-355,-80,953,-27,9,66
869,-353,-94,950,98,30,124
870,-353,-105,929,225,73,115
871,-365,-100,952,257,148,54
872,-353,-100,988,118,216,-16
873,-364,-60,999,12,171,-57
874,-348,-31,1008,-3,95,-6
875,-331,-55,978,94,17,64
876,-358,-75,991,110,-56,117
877,-359,-83,968,92,-48,95
878,-353,-85,957,32,-28,89
879,-364,-98,946,38,-1,70
880,-374,-111,948,55,60,13
881,-365,-113,956,22,122,-49
882,-352,-85,959,-74,163,-77
883,-360,-60,960,-173,159,-73
884,-343,-62,979,-214,110,-36
885,-348,-61,972,-142,19,21
886,-345,-70,955,-34,-65,89
887,-338,-97,946,67,-89,128
888,-351,-112,943,106,-95,128
889,-369,-108,935,116,-52,81
890,-363,-110,954,128,30,74
891,-343,-119,948,171,66,60
892,-354,-102,964,173,60,11
893,-354,-95,963,79,93,-30
894,-351,-77,962,-66,144,-63
895,-353,-70,993,-206,161,-59
896,-336,-81,1009,-269,107,-1
897,-360,-112,986,-93,5,42
898,-370,-131,977,71,-32,78
899,-386,-146,987,100,5,66
900,-387,-147,997,63,40,1
901,-382,-127,1003,49,50,-55
902,-386,-114,1017,75,9,-85
903,-381,-114,1010,91,-54,-118
904,-382,-115,996,42,-102,-114
905,-371,-125,997,-15,-124,-118
906,-364,-127,983,-38,-122,-137
907,-364,-125,994,-42,-175,-143
908,-381,-138,978,-52,-227,-170
909,-386,-152,972,-38,-243,-200
910,-391,-153,981,-19,-181,-251
911,-361,-137,987,14,-93,-295
912,-380,-116,1023,67,-75,-290
913,-377,-108,1021,94,-73,-241
914,-353,-110,1028,128,-114,-206
915,-360,-94,1038,98,-181,-170
916,-354,-108,1021,57,-218,-133
917,-366,-112,1023,30,-282,-129
918,-363,-141,1011,-3,-358,-137
919,-368,-131,991,-1,-401,-180
920,-364,-152,982,42,-380,-233
921,-369,-130,985,63,-298,-313
922,-353,-130,992,104,-266,-356
923,-348,-112,1009,176,-292,-348
924,-352,-89,1009,223,-333,-331
925,-335,-78,986,233,-350,-311
926,-334,-75,1009,114,-370,-297
927,-319,-82,993,-19,-407,-294
928,-334,-92,973,-101,-444,-294
929,-337,-109,950,-118,-433,-301
930,-343,-134,948,-62,-378,-317
931,-332,-129,954,1,-315,-335
932,-329,-123,961,79,-280,-350
933,-343,-103,974,137,-292,-360
934,-327,-102,991,171,-315,-331
935,-320,-79,1000,247,-376,-284
936,-318,-90,982,262,-442,-247
937,-315,-89,1009,165,-460,-262
938,-314,-89,1006,-64,-409,-327
939,-310,-107,965,-316,-358,-378
940,-318,-123,959,-441,-349,-428
941,-312,-153,935,-437,-323,-475
942,-296,-156,932,-335,-292,-514
943,-309,-135,953,-142,-288,-501
944,-318,-96,963,61,-268,-446
945,-300,-112,1003,237,-300,-340
946,-289,-114,993,344,-370,-262
947,-301,-106,988,350,-405,-249
948,-281,-100,992,214,-390,-233
949,-272,-119,985,48,-395,-253
950,-290,-119,977,-54,-397,-350
951,-267,-123,954,-124,-378,-407
952,-270,-102,972,-79,-354,-430
953,-259,-105,959,114,-384,-409
954,-266,-112,953,341,-450,-378
955,-276,-84,969,444,-446,-381
956,-266,-72,979,366,-409,-376
957,-262,-62,992,247,-382,-354
958,-259,-64,989,190,-425,-356
959,-261,-73,973,110,-462,-358
960,-260,-82,943,-3,-450,-389
961,-239,-90,932,-64,-407,-419
962,-222,-85,933,-17,-366,-432
963,-238,-80,942,104,-335,-428
964,-212,-84,945,196,-308,-393
965,-213,-61,952,298,-292,-383
966,-235,-28,937,368,-261,-364
967,-239,-22,996,383,-220,-278
968,-214,-43,1008,311,-251,-200
969,-216,-56,982,241,-358,-190
970,-231,-77,970,204,-448,-157
971,-240,-80,945,284,-429,-126
972,-242,-88,950,366,-333,-100
973,-248,-99,967,376,-278,-102
974,-236,-105,979,362,-233,-170
975,-232,-84,993,258,-212,-227
976,-237,-68,1006,174,-196,-260
977,-229,-72,1016,128,-198,-268
978,-228,-76,1006,92,-249,-264
979,-225,-86,999,89,-311,-262
980,-233,-85,987,126,-343,-266
981,-223,-78,986,212,-384,-237
982,-218,-84,991,362,-399,-217
983,-232,-84,987,423,-388,-231
984,-221,-67,981,366,-350,-272
985,-211,-55,996,247,-304,-286
986,-203,-54,1003,137,-294,-294
987,-202,-50,1020,92,-349,-315
988,-199,-54,1002,53,-405,-299
989,-196,-82,1022,-23,-440,-313
990,-213,-87,975,-79,-433,-352
991,-217,-82,976,-109,-388,-417
992,-215,-67,970,-89,-313,-442
993,-199,-67,976,-36,-266,-438
994,-188,-42,996,59,-224,-415
995,-188,-31,1032,100,-200,-385
996,-193,-35,1037,46,-200,-327
997,-185,-55,1022,-70,-243,-305
998,-178,-81,1019,-163,-333,-309
999,-173,-79,1002,-228,-401,-313
1000,-177,-90,983,-201,-438,-321
1001,-187,-86,972,-144,-444,-333
1002,-180,-67,952,12,-403,-338
1003,-166,-74,966,159,-337,-305
1004,-168,-67,980,241,-272,-278
1005,-191,-42,1001,196,-163,-294
1006,-161,-45,1024,-17,-69,-276
1007,-164,-61,1052,-238,-100,-274
1008,-151,-74,1047,-419,-224,-295
1009,-152,-84,999,-451,-313,-305
1010,-181,-83,962,-413,-370,-239
1011,-185,-95,960,-212,-311,-233
1012,-182,-102,955,16,-247,-198
1013,-177,-107,979,159,-190,-167
1014,-186,-102,1006,223,-145,-204
1015,-174,-106,1021,104,-130,-223
1016,-166,-112,1041,20,-184,-297
1017,-186,-92,1023,-97,-257,-352
1018,-165,-103,1033,-218,-284,-360
1019,-157,-122,1020,-201,-358,-360
1020,-153,-120,984,-124,-429,-366
1021,-165,-136,965,24,-452,-350
1022,-168,-124,955,174,-405,-350
1023,-150,-115,982,280,-327,-335
1024,-139,-100,1010,358,-306,-331
1025,-141,-80,1020,350,-309,-335
1026,-129,-61,1047,247,-325,-331
1027,-118,-80,1042,116,-376,-329
1028,-129,-83,1022,14,-483,-333
1029,-135,-91,988,-109,-507,-381
1030,-130,-109,979,-177,-450,-417
1031,-119,-100,948,-197,-343,-452
1032,-125,-89,967,-126,-224,-473
1033,-109,-78,977,7,-130,-434
1034,-124,-54,1006,89,-108,-366
1035,-120,-48,1041,126,-141,-286
1036,-97,-35,1053,120,-224,-237
1037,-95,-28,1066,89,-370,-182
1038,-81,-40,1043,65,-516,-155
1039,-91,-59,989,-56,-608,-143
1040,-75,-65,966,-242,-595,-153
1041,-79,-65,924,-279,-507,-178
1042,-78,-69,912,-201,-370,-124
1043,-84,-85,929,36,-239,-106
1044,-100,-81,978,190,-124,-112
1045,-108,-74,1012,221,-1,-73
1046,-102,-75,1053,85,36,-90
1047,-94,-75,1082,-5,-16,-98
1048,-101,-88,1082,-83,-161,-124
1049,-104,-100,1047,-191,-325,-159
1050,-109,-115,1014,-253,-417,-208
1051,-93,-109,986,-327,-436,-221
1052,-91,-111,988,-257,-370,-229
1053,-110,-93,979,-3,-333,-211
1054,-118,-105,980,178,-259,-131
1055,-111,-103,1021,255,-163,-155
1056,-106,-107,1049,169,-138,-169
1057,-101,-112,1071,1,-183,-204
1058,-102,-111,1066,-107,-294,-243
1059,-95,-106,1039,-140,-395,-253
1060,-94,-118,1035,-83,-450,-239
1061,-96,-125,1008,8,-477,-245
1062,-95,-103,998,71,-444,-256
1063,-80,-110,1018,208,-393,-239
1064,-73,-120,1029,280,-382,-237
1065,-86,-96,1045,204,-354,-266
1066,-89,-91,1060,61,-333,-292
1067,-68,-85,1052,3,-345,-303
1068,-77,-110,1036,-27,-401,-315
1069,-79,-112,1051,-77,-421,-333
1070,-71,-127,1026,-58,-423,-350
1071,-87,-120,1026,8,-460,-336
1072,-68,-119,1032,71,-444,-344
1073,-64,-113,1031,135,-431,-346
1074,-66,-118,1027,180,-431,-335
1075,-60,-122,1044,229,-456,-315
1076,-58,-114,1057,247,-485,-338
1077,-57,-110,1048,214,-489,-385
1078,-48,-96,1045,89,-491,-440
1079,-37,-88,1061,-85,-546,-471
1080,-37,-101,1040,-31,-643,-479
1081,-38,-90,1020,83,-727,-471
1082,-23,-95,978,122,-704,-444
1083,-20,-103,974,147,-640,-442
1084,-16,-80,1006,147,-579,-463
1085,-16,-63,1002,114,-548,-436
1086,-2,-75,997,122,-532,-411
1087,5,-69,1006,65,-538,-415
1088,9,-67,977,-17,-532,-395
1089,3,-87,984,16,-550,-426
1090,-11,-77,988,-23,-550,-450
1091,7,-100,979,-109,-516,-491
1092,1,-92,988,-134,-499,-508
1093,0,-85,977,-76,-489,-489
1094,21,-92,981,36,-468,-444
1095,15,-71,1016,149,-438,-440
1096,23,-63,1022,202,-466,-403
1097,33,-63,1025,217,-538,-385
1098,30,-63,1015,139,-581,-393
1099,45,-64,1016,8,-620,-417
1100,40,-79,982,-134,-661,-460
1101,47,-80,954,-236,-632,-499
1102,62,-90,941,-218,-528,-542
1103,64,-75,937,-142,-413,-536
1104,67,-67,961,24,-313,-497
1105,75,-61,985,174,-278,-430
1106,63,-46,1006,247,-317,-364
1107,64,-43,1039,280,-384,-321
1108,76,-52,1038,190,-464,-327
1109,86,-47,1010,16,-522,-362
1110,101,-59,976,-146,-479,-428
1111,122,-60,958,-306,-362,-450
1112,93,-63,937,-312,-268,-446
1113,91,-61,950,-271,-171,-422
1114,90,-70,984,-140,-138,-362
1115,87,-73,1004,69,-183,-309
1116,78,-68,1032,169,-265,-245
1117,75,-80,1039,186,-329,-235
1118,80,-87,1024,61,-370,-272
1119,66,-79,1020,-74,-397,-350
1120,81,-78,980,-169,-360,-376
1121,84,-75,969,-191,-282,-393
1122,91,-80,966,-193,-212,-385
1123,102,-92,984,-193,-149,-352
1124,107,-75,1000,-138,-112,-346
1125,111,-53,1061,-17,-122,-305
1126,96,-39,1076,112,-173,-235
1127,95,-64,1091,122,-227,-202
1128,110,-92,1061,-68,-288,-233
1129,96,-101,1025,-279,-343,-321
1130,88,-89,998,-386,-327,-389
1131,96,-94,993,-372,-263,-376
1132,94,-89,991,-275,-184,-348
1133,89,-72,1015,-163,-145,-329
1134,90,-60,1039,-34,-165,-284
1135,99,-60,1045,110,-276,-235
1136,103,-65,1035,147,-360,-215
1137,99,-74,1011,73,-429,-237
1138,101,-81,1006,-70,-421,-280
1139,94,-76,961,-226,-388,-309
1140,117,-84,954,-273,-341,-323
1141,128,-79,952,-230,-302,-323
1142,129,-75,951,-117,-300,-294
1143,126,-68,965,26,-259,-264
1144,115,-64,974,104,-204,-231
1145,143,-76,994,67,-179,-221
1146,122,-64,1001,-25,-155,-264
1147,138,-71,1004,-171,-186,-274
1148,132,-59,1012,-249,-216,-286
1149,124,-74,987,-243,-278,-264
1150,118,-66,980,-140,-311,-231
1151,132,-64,988,-36,-306,-202
1152,142,-80,983,79,-321,-174
1153,129,-84,963,141,-354,-170
1154,156,-75,941,100,-294,-206
1155,147,-73,960,10,-218,-239
1156,151,-61,966,-115,-143,-276
1157,159,-46,986,-220,-112,-286
1158,157,-54,985,-195,-153,-272
1159,157,-41,991,-126,-200,-235
1160,161,-44,960,75,-251,-147
1161,155,-54,960,268,-317,-22
1162,135,-57,944,380,-313,5
1163,154,-61,973,325,-227,29
1164,166,-77,977,251,-173,3
1165,162,-84,974,108,-169,-59
1166,159,-77,980,-36,-151,-124
1167,176,-58,977,-148,-126,-167
1168,194,-51,982,-117,-118,-145
1169,168,-26,985,92,-214,-45
1170,161,-54,967,376,-266,58
1171,165,-69,975,495,-253,97
1172,166,-73,982,393,-184,103
1173,169,-80,979,221,-114,58
1174,162,-72,975,83,-65,3
1175,168,-74,980,-1,-71,-51
1176,172,-69,981,-74,-40,-90
1177,160,-55,965,-161,-38,-118
1178,167,-54,972,-159,-15,-108
1179,182,-28,991,-17,-11,-40
1180,185,-52,996,173,-93,78
1181,174,-67,988,290,-184,121
1182,174,-73,950,282,-190,97
1183,168,-81,948,186,-108,44
1184,172,-85,972,42,3,-38
1185,164,-80,967,-109,60,-88
1186,174,-54,983,-169,83,-122
1187,174,-43,998,-97,91,-81
1188,185,-51,999,79,-15,21
1189,178,-61,984,200,-85,89
1190,178,-60,979,251,-89,103
1191,172,-73,991,194,-58,124
1192,172,-83,966,108,7,70
1193,163,-78,983,-29,42,1
1194,164,-76,959,-161,85,-67
1195,183,-71,977,-206,138,-102
1196,187,-67,982,-220,142,-102
1197,179,-55,983,-148,107,-75
1198,203,-34,998,42,93,-8
1199,194,-36,998,264,-1,146
1200,168,-73,991,389,-85,236
1201,166,-94,958,341,-40,201
1202,151,-90,956,149,40,113
1203,172,-100,968,-117,134,21
1204,174,-83,977,-267,218,-77
1205,157,-70,945,-298,232,-94
1206,171,-80,934,-259,224,-86
1207,179,-65,949,-126,204,-53
1208,156,-64,941,132,126,31
1209,158,-70,926,292,48,117
1210,171,-94,907,342,52,119
1211,161,-92,893,192,79,56
1212,172,-95,887,8,107,-36
1213,174,-96,829,-158,101,-133
1214,152,-92,788,-230,79,-202
1215,150,-81,757,-181,83,-241
1216,142,-86,718,-146,99,-227
1217,144,-93,667,-62,89,-239
1218,129,-76,615,57,40,-254
1219,124,-80,566,149,-36,-245
1220,142,-92,498,165,-134,-254
1221,105,-70,429,104,-153,-292
1222,77,-53,370,-38,-28,-372
1223,70,-49,321,-136,136,-376
1224,52,-43,287,-163,265,-411
1225,40,12,255,-177,374,-307
1226,61,-2,263,36,571,7
1227,78,-31,268,329,730,177
1228,78,-3,274,411,849,271
1229,72,41,257,239,1097,382
1230,94,-52,232,-48,1335,451
1231,84,-57,228,-48,1614,468
1232,189,-108,245,-161,1974,496
1233,183,-217,281,274,2191,400
1234,186,-206,327,891,2470,193
1235,117,-88,440,1251,2890,-10
1236,72,52,570,1382,3562,-178
1237,41,171,728,1032,4276,-157
1238,27,233,865,528,4780,85
1239,-1,167,1004,44,5007,279
1240,-46,77,1096,-275,5030,357
1241,-84,-45,1168,-572,4917,339
1242,-144,-99,1175,-849,4761,296
1243,-295,-131,1236,-796,4655,322
1244,-461,-54,1354,-189,4878,296
1245,-569,-27,1489,428,5271,326
1246,-621,-32,1642,798,5562,382
1247,-759,-29,1788,870,5550,400
1248,-763,-84,1957,456,5212,421
1249,-700,-139,2048,-66,4501,242
1250,-700,-105,2047,-540,3362,68
1251,-732,-70,1956,-622,2216,29
1252,-727,-79,1818,-478,1403,1
1253,-740,-96,1685,-394,935,31
1254,-746,-120,1581,-425,782,33
1255,-730,-157,1546,-529,900,-126
1256,-737,-141,1502,-702,1075,-299
1257,-714,-130,1531,-859,1177,-397
1258,-674,-83,1545,-818,1099,-442
1259,-653,-50,1535,-689,745,-434
1260,-607,-22,1491,-536,265,-401
1261,-569,37,1425,-351,-165,-393
1262,-540,103,1371,-124,-540,-290
1263,-466,109,1275,-5,-763,-143
1264,-419,109,1217,14,-813,-118
1265,-379,137,1150,-150,-786,-161
1266,-351,188,1105,-298,-690,-165
1267,-299,214,1070,-359,-636,-124
1268,-280,222,1032,-199,-614,-122
1269,-292,315,1009,38,-606,-139
1270,-284,382,1003,169,-561,60
1271,-282,406,1012,180,-509,371
1272,-264,400,1012,169,-507,568
1273,-250,388,979,-3,-513,714
1274,-204,370,919,-230,-550,845
1275,-171,348,886,-337,-632,945
1276,-134,343,897,-247,-626,927
1277,-154,374,884,24,-589,841
1278,-226,445,891,415,-542,808
1279,-241,537,948,676,-452,1001
1280,-329,604,991,573,-388,1455
1281,-385,553,1040,169,-292,2134
1282,-377,413,1102,-431,-177,2634
1283,-321,246,1067,-847,-317,2718
1284,-359,180,1002,-1177,-796,2626
1285,-441,155,928,-1259,-1132,2662
1286,-525,95,863,-952,-1087,2798
1287,-545,-10,829,-706,-774,2960
1288,-554,-132,831,-458,-378,3083
1289,-538,-218,835,-380,-50,3152
1290,-533,-305,871,-296,89,3169
1291,-488,-390,875,-115,144,3132
1292,-513,-455,895,-44,48,2976
1293,-561,-513,898,-159,-24,2767
1294,-564,-573,878,-337,52,2578
1295,-579,-654,870,-431,153,2331
1296,-587,-673,856,-529,292,1884
1297,-568,-622,902,-642,485,1507
1298,-493,-566,953,-595,651,1300
1299,-457,-542,989,-314,468,1205
1300,-438,-461,985,-3,210,1115
1301,-404,-421,992,229,-3,1072
1302,-391,-382,978,284,-159,992
1303,-391,-371,957,36,-212,849
1304,-363,-358,906,-415,-140,628
1305,-352,-352,901,-839,-7,443
1306,-361,-332,869,-1019,73,374
1307,-351,-323,867,-863,157,378
1308,-365,-305,888,-515,214,417
1309,-350,-296,912,-236,196,460
1310,-385,-264,952,-95,224,421
1311,-372,-216,998,-140,282,357
1312,-347,-221,1007,-341,267,271
1313,-349,-203,989,-583,138,150
1314,-351,-189,967,-718,13,97
1315,-367,-210,959,-677,-71,50
1316,-367,-170,945,-576,-95,13
1317,-372,-148,944,-384,-99,7
1318,-372,-137,951,-214,-93,66
1319,-354,-140,953,-89,-73,74
1320,-363,-142,947,-109,-95,-4
1321,-369,-95,967,-253,-46,-88
1322,-340,-79,982,-452,-22,-90
1323,-325,-59,967,-501,-65,-96
1324,-320,-73,989,-536,-163,-44
1325,-316,-90,988,-437,-302,-32
1326,-326,-103,929,-333,-433,-38
1327,-329,-106,912,-247,-423,-110
1328,-325,-66,893,-167,-274,-194
1329,-316,-55,911,-95,-85,-174
1330,-299,-47,940,12,15,-100
1331,-294,-47,961,71,26,-59
1332,-294,-25,983,-23,-24,-53
1333,-278,-25,985,-167,-97,3
1334,-289,-21,966,-208,-159,70
1335,-289,-56,937,-224,-214,130
1336,-291,-69,925,-163,-220,121
1337,-274,-87,888,-115,-165,76
1338,-298,-90,879,-56,-59,3
1339,-316,-70,916,-58,91,-32
1340,-292,-35,936,-40,210,-36
1341,-291,-24,953,-19,204,54
1342,-310,-37,955,-15,142,152
1343,-295,-69,956,-7,83,210
1344,-312,-71,938,-68,50,206
1345,-318,-83,929,-173,67,195
1346,-341,-102,920,-263,153,154
1347,-326,-146,917,-296,247,91
1348,-333,-162,911,-296,314,21
1349,-344,-132,922,-240,343,-59
1350,-348,-100,951,-101,351,-51
1351,-348,-77,996,153,294,72
1352,-337,-95,1018,335,191,167
1353,-353,-92,1012,296,122,150
1354,-346,-104,1008,22,99,134
1355,-333,-123,990,-144,67,78
1356,-347,-134,986,-185,25,-1
1357,-362,-132,938,-136,25,-47
1358,-366,-132,964,-72,99,-63
1359,-366,-118,963,-36,167,-75
1360,-352,-88,984,30,196,-67
1361,-351,-105,991,55,153,-1
1362,-342,-104,994,48,89,13
1363,-341,-104,983,44,25,13
1364,-346,-121,962,-1,-36,29
1365,-341,-125,974,20,-61,15
1366,-343,-128,968,75,-69,-26
1367,-358,-116,957,139,-63,-42
1368,-361,-108,979,214,-18,-47
1369,-352,-92,983,174,28,-65
1370,-351,-91,984,42,54,-73
1371,-355,-89,990,-54,40,-81
1372,-347,-91,981,-142,13,-67
1373,-342,-94,976,-146,-24,-47
1374,-357,-122,951,-134,-61,-8
1375,-353,-135,963,-77,-69,-32
1376,-355,-134,965,-9,-59,-85
1377,-352,-114,970,36,-59,-131
1378,-342,-113,967,44,-38,-147
1379,-334,-91,984,61,-1,-145
1380,-339,-84,995,85,-9,-106
1381,-335,-93,990,108,-52,-36
1382,-351,-86,982,141,-69,3
1383,-349,-102,987,48,-44,21
1384,-359,-124,989,-83,-5,-20
1385,-368,-141,975,-167,-16,-77
1386,-364,-145,965,-103,-34,-129
1387,-368,-146,980,5,-58,-198
1388,-361,-123,980,63,-58,-247
1389,-358,-92,1000,73,-61,-245
1390,-346,-86,1016,112,-83,-204
1391,-336,-90,1023,157,-165,-176
1392,-340,-71,1022,104,-243,-161
1393,-336,-91,1005,-42,-272,-149
1394,-349,-111,998,-171,-266,-172
1395,-349,-124,978,-236,-263,-192
1396,-352,-131,960,-183,-245,-215
1397,-350,-152,956,-52,-233,-264
1398,-344,-133,946,12,-204,-319
1399,-342,-110,980,49,-130,-329
1400,-326,-83,1013,77,-114,-288
1401,-327,-66,1022,126,-179,-247
1402,-316,-68,1027,100,-265,-188
1403,-321,-75,1018,20,-311,-151
1404,-317,-94,1014,-105,-364,-126
1405,-333,-114,984,-193,-427,-110
1406,-329,-126,960,-206,-452,-157
1407,-319,-129,933,-115,-399,-215
1408,-318,-122,925,8,-343,-276
1409,-313,-109,947,77,-276,-311
1410,-299,-92,955,133,-235,-305
1411,-317,-66,975,171,-233,-276
1412,-299,-52,983,114,-216,-266
1413,-288,-73,1002,-76,-249,-229
1414,-293,-79,993,-212,-333,-225
1415,-295,-92,962,-242,-401,-210
1416,-293,-112,925,-169,-438,-180
1417,-295,-121,928,-50,-431,-172
1418,-305,-110,919,67,-347,-223
1419,-295,-112,918,83,-227,-260
1420,-283,-105,955,61,-161,-276
1421,-274,-104,957,24,-175,-307
1422,-293,-81,980,-52,-192,-329
1423,-274,-74,987,-118,-190,-260
1424,-267,-72,1004,-130,-225,-225
1425,-271,-65,990,-54,-317,-167
1426,-287,-101,967,7,-423,-86
1427,-293,-140,943,24,-419,-61
1428,-281,-159,933,55,-317,-131
1429,-291,-154,932,59,-227,-231
1430,-285,-126,966,46,-179,-270
1431,-264,-110,991,106,-173,-286
1432,-265,-86,990,135,-198,-295
1433,-278,-61,1005,85,-206,-256
1434,-255,-72,1005,16,-204,-178
1435,-254,-98,1000,-50,-284,-118
1436,-263,-119,993,-36,-376,-104
1437,-256,-131,946,-9,-368,-110
1438,-266,-144,933,26,-304,-112
1439,-276,-137,944,106,-229,-178
1440,-264,-120,963,155,-179,-210
1441,-257,-103,977,190,-167,-223
1442,-256,-92,967,178,-173,-219
1443,-248,-84,956,110,-159,-211
1444,-239,-83,983,14,-140,-184
1445,-242,-80,975,-23,-165,-163
1446,-262,-101,985,-44,-216,-129
1447,-247,-105,973,-17,-257,-88
1448,-252,-135,980,34,-270,-86
1449,-250,-152,958,49,-266,-151
1450,-248,-139,942,57,-229,-217
1451,-253,-121,957,61,-175,-254
1452,-252,-91,984,65,-114,-284
1453,-241,-78,1004,24,-73,-253
1454,-239,-68,1001,5,-95,-176
1455,-245,-98,997,-13,-177,-120
1456,-229,-118,991,-40,-243,-104
1457,-233,-129,965,-79,-261,-124
1458,-227,-125,942,-126,-235,-153
1459,-246,-149,953,-97,-175,-184
1460,-237,-130,959,-19,-147,-237
1461,-251,-110,964,7,-114,-251
1462,-236,-102,971,24,-50,-239
1463,-231,-103,1009,3,-3,-213
1464,-237,-93,1013,-11,-16,-198
1465,-231,-96,1028,20,-99,-165
1466,-236,-116,986,55,-220,-118
1467,-236,-139,983,59,-308,-118
1468,-231,-136,954,32,-321,-149
1469,-236,-151,949,-7,-255,-180
1470,-236,-137,945,40,-159,-200
1471,-226,-109,952,116,-77,-198
1472,-228,-89,986,186,-28,-165
1473,-210,-100,1018,198,-16,-128
1474,-229,-91,1032,174,-54,-104
1475,-221,-110,1007,89,-93,-86
1476,-226,-127,1017,42,-138,-100
1477,-235,-135,998,-1,-233,-139
1478,-236,-133,973,1,-284,-176
1479,-239,-133,967,55,-251,-208
1480,-223,-123,978,65,-173,-213
1481,-229,-118,982,114,-116,-231
1482,-229,-89,1013,147,-93,-206
1483,-216,-110,1015,176,-114,-149
1484,-220,-104,1020,186,-184,-128
1485,-228,-122,1010,98,-237,-139
1486,-219,-127,1024,-29,-216,-180
1487,-227,-115,999,-118,-220,-196
1488,-219,-130,982,-111,-233,-211
1489,-220,-132,979,-33,-225,-227
1490,-223,-137,976,106,-186,-254
1491,-222,-106,999,118,-167,-262
1492,-204,-83,1012,116,-151,-241
1493,-207,-84,1024,155,-198,-194
1494,-189,-93,1022,190,-286,-135
1495,-199,-98,1013,202,-380,-98
1496,-207,-120,983,141,-388,-110
1497,-191,-124,985,34,-327,-155
1498,-195,-120,962,-34,-259,-208
1499,-201,-104,972,-13,-181,-245
1500,-216,-103,988,-1,-106,-254
1501,-200,-94,1004,20,-40,-227
1502,-187,-98,1017,83,-58,-204
1503,-192,-111,1032,130,-159,-180
1504,-195,-102,1037,157,-268,-174
1505,-191,-100,1016,169,-347,-143
1506,-190,-105,1016,157,-411,-129
1507,-193,-110,979,120,-397,-149
1508,-193,-117,983,49,-345,-194
1509,-182,-119,968,1,-276,-243
1510,-183,-109,967,-29,-204,-292
1511,-194,-101,977,-44,-155,-311
1512,-170,-91,1004,-40,-102,-297
1513,-180,-75,1032,-11,-106,-251
1514,-170,-80,1029,73,-183,-178
1515,-159,-108,1020,153,-294,-129
1516,-165,-118,1011,169,-364,-124
1517,-174,-120,1000,104,-354,-151
1518,-180,-100,1000,24,-290,-198
1519,-173,-108,1003,-58,-212,-217
1520,-180,-103,985,-95,-149,-219
1521,-168,-122,1006,-91,-126,-235
1522,-175,-123,991,-76,-138,-243
1523,-180,-124,1011,-40,-149,-233
1524,-166,-122,1022,42,-202,-204
1525,-183,-120,1027,157,-270,-192
1526,-176,-110,1019,196,-319,-184
1527,-178,-113,1014,151,-323,-198
1528,-149,-125,1008,65,-284,-241
1529,-157,-97,1002,12,-253,-266
1530,-154,-102,1007,48,-224,-229
1531,-138,-115,1026,114,-216,-202
1532,-140,-129,1016,149,-212,-208
1533,-157,-98,1014,104,-198,-235
1534,-150,-86,1036,59,-175,-241
1535,-138,-83,1053,14,-202,-215
1536,-148,-91,1041,12,-251,-206
1537,-156,-109,1028,-40,-302,-194
1538,-157,-128,1022,-107,-306,-227
1539,-161,-130,1010,-167,-270,-266
1540,-164,-128,1011,-154,-243,-297
1541,-155,-114,1022,-93,-233,-286
1542,-160,-111,1032,48,-266,-251
1543,-154,-122,1039,169,-321,-221
1544,-160,-118,1035,174,-323,-219
1545,-151,-123,1045,114,-337,-249
1546,-140,-131,1025,-9,-376,-284
1547,-134,-125,1017,-60,-411,-331
1548,-132,-129,987,-58,-429,-348
1549,-134,-120,1004,-50,-405,-358
1550,-121,-110,1003,14,-374,-333
1551,-108,-92,1021,106,-372,-297
1552,-127,-78,1020,171,-407,-270
1553,-121,-81,1020,112,-405,-247
1554,-108,-100,1018,-1,-399,-243
1555,-102,-109,1004,-44,-417,-260
1556,-88,-115,1000,-50,-425,-288
1557,-95,-112,970,-42,-407,-305
1558,-95,-94,1012,-46,-337,-305
1559,-101,-93,1018,7,-300,-284
1560,-101,-66,1036,32,-311,-258
1561,-82,-81,1017,53,-323,-202
1562,-82,-93,1032,61,-364,-165
1563,-93,-122,1038,83,-421,-159
1564,-98,-110,1031,59,-468,-190
1565,-99,-111,1017,40,-456,-206
1566,-95,-101,1013,75,-429,-213
1567,-91,-94,1021,126,-429,-200
1568,-84,-103,1030,198,-454,-180
1569,-93,-93,1028,282,-499,-165
1570,-90,-82,1028,272,-501,-145
1571,-74,-87,1048,237,-475,-135
1572,-74,-84,1043,161,-501,-143
1573,-64,-85,1024,83,-524,-163
1574,-58,-97,1025,65,-528,-178
1575,-47,-100,1005,106,-524,-190
1576,-55,-103,1013,126,-501,-208
1577,-63,-93,1017,122,-456,-233
1578,-72,-100,997,67,-413,-260
1579,-71,-66,1015,40,-347,-264
1580,-59,-56,1059,61,-309,-217
1581,-50,-81,1049,59,-368,-161
1582,-46,-87,1043,8,-458,-167
1583,-41,-97,1017,-66,-528,-188
1584,-36,-102,989,-76,-575,-192
1585,-35,-114,993,-31,-585,-208
1586,-29,-106,985,28,-569,-213
1587,-26,-97,991,89,-554,-215
1588,-36,-68,993,114,-489,-221
1589,-18,-65,1007,55,-388,-192
1590,-9,-71,1028,3,-349,-155
1591,0,-76,1020,-77,-391,-104
1592,-1,-100,987,-175,-417,-59
1593,1,-139,979,-179,-442,-73
1594,-7,-146,954,-189,-452,-108
1595,-24,-138,941,-163,-407,-133
1596,-53,-130,946,-128,-282,-151
1597,-29,-139,989,-68,-184,-167
1598,-15,-135,991,-58,-167,-202
1599,-25,-124,1015,-115,-186,-235
1600,-20,-121,1015,-169,-200,-268
1601,-1,-120,1024,-206,-233,-297
1602,16,-114,1014,-212,-345,-305
1603,25,-129,1012,-165,-442,-323
1604,14,-117,981,-140,-483,-327
1605,15,-133,964,-95,-448,-323
1606,19,-141,947,-76,-345,-356
1607,27,-120,968,-101,-237,-387
1608,17,-95,994,-105,-161,-397
1609,18,-87,996,-99,-122,-348
1610,26,-95,1011,-62,-118,-301
1611,39,-107,1018,-34,-163,-256
1612,40,-106,1014,28,-239,-221
1613,21,-113,1002,92,-337,-215
1614,28,-112,1003,118,-399,-223
1615,39,-109,972,61,-372,-264
1616,43,-110,993,-34,-300,-282
1617,51,-108,993,-93,-224,-307
1618,42,-67,994,-118,-143,-305
1619,53,-66,1021,-87,-120,-241
1620,53,-92,1008,-21,-155,-200
1621,65,-92,1029,-54,-208,-204
1622,61,-103,1000,-97,-261,-208
1623,48,-102,991,-85,-257,-213
1624,46,-95,1005,-77,-220,-227
1625,41,-90,1015,-95,-173,-211
1626,51,-105,1027,-93,-183,-223
1627,49,-86,1020,-89,-190,-213
1628,55,-96,1011,-109,-202,-178
1629,56,-118,1023,-89,-206,-163
1630,38,-113,1023,-42,-200,-167
1631,41,-98,1031,22,-220,-133
1632,42,-100,1021,133,-282,-75
1633,43,-122,1044,251,-364,-53
1634,36,-138,1012,208,-419,-85
1635,35,-143,1017,100,-391,-161
1636,51,-128,981,18,-354,-202
1637,49,-122,1004,-3,-335,-243
1638,53,-113,995,-7,-317,-256
1639,53,-101,1004,1,-325,-253
1640,64,-101,1011,53,-327,-241
1641,61,-87,1015,77,-331,-208
1642,61,-118,1024,71,-372,-178
1643,55,-125,1000,48,-395,-217
1644,54,-116,1003,-46,-376,-262
1645,60,-127,1008,-122,-341,-303
1646,76,-124,1002,-128,-313,-350
1647,68,-114,993,-189,-306,-385
1648,77,-95,1005,-236,-255,-403
1649,96,-83,1031,-185,-251,-379
1650,93,-76,1036,-38,-339,-307
1651,85,-72,1016,42,-433,-229
1652,86,-92,1005,63,-477,-170
1653,101,-104,997,98,-503,-176
1654,100,-101,953,96,-485,-190
1655,108,-110,974,96,-450,-200
1656,110,-97,962,61,-378,-233
1657,95,-87,977,10,-296,-278
1658,102,-57,979,-87,-192,-282
1659,123,-53,1005,-150,-124,-247
1660,128,-73,1008,-161,-186,-198
1661,143,-79,1000,-179,-276,-169
1662,129,-84,982,-142,-325,-151
1663,129,-106,966,-115,-350,-116
1664,133,-123,933,-66,-278,-118
1665,130,-118,945,-48,-183,-147
1666,109,-117,963,-11,-87,-167
1667,108,-109,982,20,-54,-174
1668,112,-112,1002,-46,17,-198
1669,106,-85,1036,-56,91,-247
1670,124,-84,1041,-277,81,-215
1671,121,-112,1046,-409,-15,-225
1672,132,-121,1014,-488,-147,-280
1673,128,-137,986,-515,-245,-299
1674,113,-140,958,-478,-257,-321
1675,121,-128,939,-388,-143,-338
1676,121,-122,946,-279,-16,-352
1677,137,-114,963,-191,48,-299
1678,157,-124,973,-95,46,-253
1679,144,-98,984,-7,-18,-196
1680,150,-87,1015,61,-65,-94
1681,160,-101,999,174,-138,7
1682,146,-125,995,165,-249,37
1683,158,-141,965,30,-282,11
1684,142,-149,955,-17,-231,-22
1685,129,-132,936,34,-130,-38
1686,139,-124,969,102,60,-47
1687,130,-142,1003,85,212,-61
1688,130,-112,1027,145,241,-126
1689,127,-106,1042,161,169,-85
1690,120,-113,1056,182,75,-45
1691,141,-131,1055,112,-42,-51
1692,134,-129,1038,5,-161,-88
1693,126,-149,1006,-68,-227,-133
1694,110,-142,974,-83,-239,-163
1695,110,-148,957,-79,-177,-225
1696,103,-157,949,-72,-73,-284
1697,96,-140,969,-87,62,-338
1698,119,-103,995,-107,150,-286
1699,125,-86,1029,12,107,-153
1700,125,-87,1048,217,-63,-51
1701,139,-109,1039,329,-241,-8
1702,137,-125,1024,223,-393,-28
1703,121,-130,984,110,-440,-67
1704,115,-146,971,-21,-427,-167
1705,129,-133,936,-81,-325,-264
1706,130,-96,937,-111,-196,-307
1707,127,-67,943,-77,-61,-217
1708,145,-83,983,32,13,-120
1709,155,-95,994,139,-18,-102
1710,159,-89,988,118,-108,-98
1711,173,-101,986,83,-167,-94
1712,172,-108,999,46,-229,-112
1713,140,-99,964,30,-249,-135
1714,152,-112,966,10,-181,-165
1715,163,-106,964,-27,-104,-178
1716,153,-109,969,-56,-75,-180
1717,165,-96,973,-68,-15,-163
1718,150,-83,983,-52,54,-129
1719,155,-65,1025,32,58,-73
1720,169,-70,1031,194,-42,-14
1721,162,-89,1011,247,-183,37
1722,159,-112,980,161,-265,13
1723,160,-121,953,22,-249,-42
1724,166,-117,957,-91,-177,-104
1725,171,-96,937,-128,-97,-104
1726,172,-100,954,-83,-15,-55
1727,171,-114,942,18,42,-30
1728,163,-94,960,79,99,-16
1729,149,-94,990,163,116,25
1730,149,-101,1001,258,81,64
1731,155,-106,1017,249,32,64
1732,154,-109,1011,157,-26,44
1733,152,-120,981,49,-65,11
1734,157,-123,978,3,-63,-22
1735,142,-118,969,-1,-13,-24
1736,153,-111,965,42,46,-10
1737,157,-101,996,73,81,-16
1738,161,-105,987,122,66,-16
1739,161,-82,1007,167,60,1
1740,152,-88,1006,225,23,25
1741,147,-85,1014,159,1,35
1742,155,-93,999,38,21,23
1743,166,-115,979,-68,36,-18
1744,160,-97,992,-173,46,-47
1745,149,-99,986,-191,67,-53
1746,148,-89,983,-124,97,-28
1747,146,-103,1013,-42,153,-4
1748,164,-105,1007,61,153,21
1749,162,-102,1023,155,103,44
1750,149,-108,1002,188,28,66
1751,141,-109,1012,153,15,66
1752,147,-117,993,116,-1,68
1753,138,-101,994,116,-34,46
1754,141,-96,999,87,-48,60
1755,146,-106,994,147,-67,85
1756,157,-109,976,233,-81,99
1757,156,-94,976,303,-67,121
1758,162,-93,978,333,-11,140
1759,165,-87,978,282,69,115
1760,165,-96,994,124,165,76
1761,169,-82,1006,-13,232,46
1762,162,-87,1013,-60,218,31
1763,151,-85,1007,-101,192,21
1764,144,-79,1025,-144,185,33
1765,149,-108,1032,-128,175,42
1766,146,-91,1009,-62,116,64
1767,126,-104,1031,30,77,70
1768,143,-100,1027,49,110,85
1769,129,-119,1028,-38,157,52
1770,130,-104,1027,-226,202,-6
1771,137,-108,1028,-324,198,-47
1772,126,-111,1027,-284,128,-51
1773,115,-122,1000,-208,83,-36
1774,121,-131,1011,-185,91,-4
1775,122,-130,1000,-134,107,9
1776,103,-124,1029,-38,79,11
1777,111,-124,1040,59,77,31
1778,118,-125,1039,120,69,50
1779,120,-141,1036,92,36,33
1780,116,-129,1027,-58,11,-28
1781,111,-127,1018,-199,25,-88
1782,128,-134,1015,-281,11,-100
1783,121,-117,1025,-181,-9,-92
1784,119,-115,1008,-23,-34,-36
1785,121,-108,1018,92,-11,5
1786,115,-113,1024,180,-7,29
1787,117,-115,1022,208,-46,64
1788,126,-113,1007,194,-93,42
1789,135,-119,990,89,-112,-4
1790,137,-111,962,-56,-112,-59
1791,132,-95,947,-122,-97,-94
1792,151,-95,935,-91,-81,-69
1793,155,-92,903,30,-85,-61
1794,155,-91,890,89,-108,-55
1795,159,-83,873,96,-128,-44
1796,153,-94,847,108,-130,-61
1797,169,-92,822,77,-145,-67
1798,162,-91,768,63,-143,-126
1799,152,-90,745,-29,-95,-198
1800,138,-82,691,-204,-18,-280
1801,148,-66,662,-400,64,-389
1802,164,-53,616,-501,101,-456
1803,197,-54,581,-538,89,-467
1804,235,-59,515,-531,56,-477
1805,266,-56,440,-486,34,-469
1806,258,-61,393,-406,89,-415
1807,264,-56,347,-245,210,-319
1808,273,-74,290,-34,357,-223
1809,249,-57,290,174,605,-206
1810,229,-46,286,356,1034,-251
1811,200,-31,269,346,1505,-241
1812,145,-49,289,180,1872,-178
1813,104,-65,292,46,2116,-96
1814,94,-103,290,194,2239,-10
1815,94,-149,290,485,2278,97
1816,77,-139,283,880,2392,107
1817,53,-71,326,1251,2679,54
1818,-11,-3,384,1413,3093,35
1819,-52,17,451,1194,3579,78
1820,-129,27,528,823,4030,33
1821,-128,-14,571,313,4321,-20
1822,-117,-117,626,-81,4511,-67
1823,-116,-143,668,-249,4480,-157
1824,-176,-92,703,-222,4456,-221
1825,-315,-30,745,59,4554,-51
1826,-388,-2,865,618,4796,189
1827,-516,59,988,1266,5173,365
1828,-611,120,1139,1622,5515,572
1829,-595,-4,1366,1370,5776,816
1830,-559,-105,1524,815,5589,765
1831,-623,-127,1612,241,4890,525
1832,-689,-80,1581,-220,4097,310
1833,-771,-42,1581,-329,3530,193
1834,-785,-36,1552,-271,3224,128
1835,-827,-6,1559,-144,3128,78
1836,-874,26,1556,-238,3110,31
1837,-839,8,1590,-663,3081,146
1838,-773,-46,1586,-857,2921,242
1839,-737,-47,1594,-593,2472,185
1840,-741,1,1595,-378,1942,177
1841,-729,40,1596,-144,1525,193
1842,-736,97,1609,1,1194,179
1843,-736,129,1607,63,911,193
1844,-740,156,1575,-54,657,240
1845,-748,130,1561,-404,499,314
1846,-730,78,1483,-884,425,257
1847,-687,52,1418,-1367,339,162
1848,-679,56,1358,-1560,167,111
1849,-681,73,1349,-1345,-16,107
1850,-656,89,1319,-982,-149,140
1851,-637,99,1309,-716,-325,206
1852,-637,79,1313,-599,-499,279
1853,-611,100,1259,-628,-645,257
1854,-591,129,1213,-812,-794,300
1855,-573,122,1149,-929,-956,439
1856,-557,98,1110,-802,-1100,529
1857,-529,66,1032,-784,-1167,609
1858,-515,43,983,-798,-1161,607
1859,-511,63,938,-784,-1097,601
1860,-483,89,953,-673,-1040,605
1861,-481,154,949,-525,-1050,664
1862,-463,188,943,-394,-1106,771
1863,-432,229,937,-304,-1181,886
1864,-418,263,915,-308,-1309,997
1865,-374,279,894,-394,-1452,1103
1866,-311,287,827,-509,-1559,1169
1867,-271,279,749,-681,-1628,1308
1868,-285,305,735,-759,-1620,1503
1869,-267,304,702,-701,-1440,1689
1870,-290,281,677,-634,-1278,1939
1871,-306,208,697,-601,-1116,2212
1872,-326,152,718,-562,-901,2388
1873,-343,53,740,-607,-763,2542
1874,-372,-41,762,-675,-708,2691
1875,-403,-128,753,-747,-653,2767
1876,-441,-206,748,-868,-558,2785
1877,-488,-307,755,-990,-411,2757
1878,-506,-389,739,-1060,-155,2658
1879,-520,-441,765,-937,118,2513
1880,-536,-482,793,-675,364,2374
1881,-556,-545,817,-570,493,2193
1882,-559,-595,865,-544,618,1898
1883,-573,-566,891,-671,622,1667
1884,-551,-542,960,-755,532,1548
1885,-567,-532,991,-583,382,1539
1886,-555,-565,1001,-411,165,1490
1887,-537,-556,985,-351,40,1353
1888,-519,-548,979,-374,-15,1193
1889,-493,-541,961,-370,-32,1046
1890,-487,-535,935,-316,-99,859
1891,-474,-479,940,-249,-122,689
1892,-474,-436,955,-179,-89,558
1893,-465,-389,970,-134,-126,497
1894,-446,-347,997,-36,-206,482
1895,-431,-330,991,112,-309,443
1896,-420,-308,957,171,-423,421
1897,-422,-285,950,216,-452,386
1898,-419,-234,957,165,-378,361
1899,-402,-239,961,83,-309,339
1900,-400,-252,945,49,-308,283
1901,-405,-262,906,-23,-323,175
1902,-408,-240,879,-105,-257,37
1903,-415,-209,885,-206,-143,-42
1904,-392,-178,892,-183,-56,-57
1905,-394,-154,901,-13,-54,-53
1906,-403,-134,917,190,-104,-36
1907,-391,-111,929,276,-116,-28
1908,-380,-108,960,221,-106,-22
1909,-361,-104,928,190,-138,-30
1910,-350,-94,928,151,-194,-67
1911,-346,-77,929,49,-212,-75
1912,-330,-83,903,-9,-192,-75
1913,-331,-84,904,-48,-153,-77
1914,-343,-72,897,-54,-89,-102
1915,-336,-63,903,-23,7,-108
1916,-346,-54,921,-11,73,-94
1917,-351,-60,936,-44,114,-45
1918,-333,-70,957,-64,140,-20
1919,-330,-71,930,-111,107,-10
1920,-358,-71,963,-175,62,25
1921,-361,-101,954,-181,48,66
1922,-365,-119,928,-154,3,50
1923,-372,-112,908,-146,9,31
1924,-368,-126,908,-64,107,9
1925,-378,-118,915,24,171,-1
1926,-389,-105,938,96,177,37
1927,-392,-114,951,188,161,48
1928,-387,-114,968,210,112,50
1929,-392,-110,981,198,26,48
1930,-392,-110,961,223,-44,27
1931,-387,-93,971,153,-24,-12
1932,-386,-90,972,22,11,-51
1933,-385,-89,953,-81,11,-67
1934,-381,-99,942,-99,-7,-90
1935,-381,-104,928,-21,-13,-90
1936,-400,-101,948,83,-7,-65
1937,-390,-105,924,161,42,-44
1938,-370,-108,935,231,87,-38
1939,-383,-69,965,219,85,-45
1940,-389,-54,989,180,73,-38
1941,-374,-60,985,149,28,-18
1942,-376,-72,979,126,-34,-20
1943,-392,-84,966,53,-85,-26
1944,-389,-92,957,-23,-93,-59
1945,-391,-105,933,-76,-89,-102
1946,-388,-76,932,-33,-69,-106
1947,-376,-97,944,75,-75,-77
1948,-366,-87,918,196,-83,-51
1949,-363,-82,922,239,-44,-34
1950,-365,-73,944,214,34,-18
1951,-358,-69,963,192,75,-14
1952,-356,-70,991,135,79,-42
1953,-363,-62,1001,63,56,-42
1954,-368,-88,991,-17,5,-47
1955,-378,-105,987,-95,-69,-69
1956,-404,-110,975,-122,-116,-88
1957,-400,-105,951,-124,-102,-47
1958,-399,-131,953,-36,-50,-1
1959,-394,-144,958,53,-18,1
1960,-398,-152,964,100,-22,-44
1961,-394,-141,980,110,-40,-90
1962,-390,-127,988,104,-85,-118
1963,-384,-110,1004,104,-169,-114
1964,-384,-114,987,104,-245,-100
1965,-376,-118,985,92,-302,-108
1966,-375,-127,950,83,-335,-131
1967,-360,-139,907,71,-290,-161
1968,-362,-139,923,71,-200,-186
1969,-367,-115,923,94,-110,-217
1970,-372,-93,921,132,-30,-208
1971,-359,-100,956,212,-18,-194
1972,-358,-82,987,233,-54,-169
1973,-360,-73,979,212,-89,-145
1974,-366,-111,977,149,-122,-135
1975,-360,-119,959,28,-153,-196
1976,-374,-116,954,-99,-157,-251
1977,-374,-113,940,-132,-143,-280
1978,-364,-112,941,-3,-134,-268
1979,-359,-118,923,165,-173,-225
1980,-359,-117,934,290,-184,-192
1981,-365,-113,960,372,-165,-178
1982,-362,-102,969,354,-145,-184
1983,-351,-100,979,258,-122,-221
1984,-364,-85,1002,122,-128,-249
1985,-352,-81,1000,40,-140,-258
1986,-366,-95,995,46,-188,-268
1987,-374,-100,978,89,-239,-258
1988,-374,-125,965,139,-247,-294
1989,-386,-110,971,126,-216,-327
1990,-369,-86,981,165,-175,-344
1991,-369,-68,991,229,-196,-307
1992,-355,-59,1001,290,-266,-266
1993,-347,-65,1000,276,-319,-239
1994,-335,-80,981,171,-337,-243
1995,-331,-84,960,36,-339,-272
1996,-328,-84,952,-3,-331,-313
1997,-330,-95,941,96,-329,-340
1998,-331,-88,944,204,-290,-346
1999,-343,-77,958,260,-220,-352
2000,-348,-55,992,280,-151,-348
2001,-341,-37,995,290,-134,-299
2002,-341,-28,1016,311,-210,-253
2003,-338,-38,1015,282,-298,-229
2004,-330,-50,1015,182,-368,-241
2005,-331,-71,987,34,-415,-284
2006,-341,-77,965,-93,-442,-329
2007,-339,-75,937,-128,-415,-358
2008,-331,-87,907,-62,-341,-370
2009,-329,-82,923,36,-288,-360
2010,-335,-59,933,132,-239,-340
2011,-314,-55,960,247,-220,-311
2012,-309,-37,995,286,-229,-274
2013,-310,-32,987,241,-259,-239
2014,-300,-63,997,155,-313,-245
2015,-311,-71,1005,48,-364,-245
2016,-301,-70,974,10,-384,-243
2017,-308,-68,961,63,-386,-245
2018,-310,-79,955,118,-378,-245
2019,-299,-83,937,147,-345,-272
2020,-307,-88,949,151,-308,-325
2021,-309,-78,966,118,-263,-378
2022,-299,-60,954,67,-212,-417
2023,-297,-37,991,28,-216,-422
2024,-292,-19,1023,7,-243,-385
2025,-299,-27,1023,-7,-306,-338
2026,-294,-36,1004,-46,-374,-323
2027,-286,-53,989,-128,-429,-344
2028,-284,-60,987,-206,-433,-370
2029,-276,-53,970,-230,-411,-385
2030,-255,-65,949,-128,-425,-374
2031,-262,-74,961,12,-448,-397
2032,-281,-35,945,75,-366,-405
2033,-277,-40,961,51,-235,-354
2034,-273,-45,995,49,-165,-282
2035,-268,-50,1013,143,-206,-231
2036,-256,-48,1015,268,-323,-165
2037,-265,-90,991,346,-442,-102
2038,-268,-94,962,301,-505,-104
2039,-269,-119,954,229,-513,-157
2040,-267,-102,942,128,-468,-215
2041,-271,-103,943,14,-356,-254
2042,-267,-96,929,-66,-200,-309
2043,-260,-92,949,-150,-85,-360
2044,-246,-83,966,-193,-40,-370
2045,-244,-71,983,-120,-50,-340
2046,-244,-87,983,48,-116,-276
2047,-238,-95,973,169,-218,-215
2048,-244,-109,973,247,-325,-182
2049,-245,-113,962,255,-364,-213
2050,-250,-99,955,198,-311,-272
2051,-261,-91,961,135,-227,-294
2052,-238,-75,961,94,-143,-305
2053,-232,-62,986,69,-112,-297
2054,-239,-65,991,75,-138,-260
2055,-234,-73,1007,83,-167,-233
2056,-230,-76,1006,126,-218,-211
2057,-224,-72,997,120,-268,-202
2058,-228,-84,1012,61,-270,-231
2059,-226,-93,986,-36,-276,-294
2060,-223,-91,983,-113,-276,-354
2061,-230,-76,971,-122,-241,-387
2062,-232,-61,973,-132,-169,-393
2063,-211,-52,1006,-122,-99,-336
2064,-220,-32,1017,-50,-87,-280
2065,-207,-51,1028,48,-190,-186
2066,-217,-61,1012,94,-282,-139
2067,-248,-59,966,51,-270,-124
2068,-231,-99,998,-97,-151,-106
2069,-227,-108,1005,-109,-69,-190
2070,-234,-99,1009,-173,-106,-258
2071,-245,-108,997,-214,-116,-305
2072,-234,-101,1015,-201,-124,-317
2073,-242,-78,1014,-111,-147,-294
2074,-240,-56,1036,55,-190,-233
2075,-229,-70,1050,212,-266,-151
2076,-223,-71,1047,251,-364,-139
2077,-219,-80,1022,151,-411,-169
2078,-213,-98,994,3,-395,-221
2079,-211,-96,998,-99,-350,-284
2080,-196,-69,980,-126,-290,-315
2081,-198,-61,997,-89,-257,-311
2082,-200,-55,993,-50,-243,-274
2083,-198,-70,1004,22,-245,-204
2084,-213,-66,1001,104,-280,-149
2085,-198,-68,1013,137,-284,-122
2086,-189,-62,1015,153,-286,-110
2087,-189,-72,1009,114,-321,-100
2088,-193,-82,1000,51,-333,-120
2089,-197,-76,983,24,-302,-157
2090,-204,-95,964,-13,-255,-186
2091,-193,-99,966,-33,-196,-215
2092,-189,-80,996,-9,-157,-215
2093,-198,-53,1012,40,-134,-219
2094,-206,-48,1031,85,-130,-190
2095,-183,-50,1043,87,-155,-147
2096,-187,-55,1023,20,-227,-124
2097,-180,-73,1025,-91,-276,-131
2098,-183,-86,991,-158,-298,-145
2099,-164,-101,988,-161,-294,-155
2100,-177,-110,958,-118,-268,-161
2101,-175,-96,968,-89,-200,-178
2102,-171,-89,989,-7,-140,-167
2103,-169,-85,1004,44,-112,-145
2104,-174,-82,1034,126,-132,-108
2105,-176,-63,1037,147,-165,-86
2106,-170,-65,1028,83,-181,-40
2107,-167,-93,1017,-40,-202,-47
2108,-169,-94,1015,-148,-198,-90
2109,-162,-84,1006,-197,-202,-106
2110,-164,-96,991,-120,-192,-100
2111,-175,-90,996,1,-171,-81
2112,-187,-90,985,94,-126,-49
2113,-184,-87,1010,208,-89,-26
2114,-177,-95,1011,235,-85,-16
2115,-165,-93,1046,147,-91,-32
2116,-165,-102,1051,24,-95,-61
2117,-165,-98,1037,-87,-126,-96
2118,-162,-100,1023,-187,-130,-141
2119,-173,-91,1024,-253,-118,-163
2120,-171,-83,1015,-245,-110,-170
2121,-160,-84,1031,-146,-122,-128
2122,-161,-86,1020,69,-184,-71
2123,-177,-91,1001,200,-239,-6
2124,-178,-98,1028,225,-222,29
2125,-179,-98,1015,196,-184,27
2126,-181,-103,1051,137,-157,-4
2127,-178,-102,1033,32,-155,-51
2128,-190,-112,1039,-138,-157,-112
2129,-177,-108,1033,-271,-183,-178
2130,-177,-114,1038,-271,-255,-210
2131,-193,-94,1007,-173,-311,-208
2132,-179,-108,1047,38,-350,-182
2133,-185,-99,1029,200,-403,-141
2134,-179,-109,1020,255,-429,-122
2135,-177,-113,1019,208,-411,-180
2136,-162,-108,1031,59,-368,-237
2137,-155,-114,1028,-126,-319,-290
2138,-149,-117,1013,-281,-286,-368
2139,-146,-112,1004,-408,-280,-444
2140,-147,-81,1025,-380,-319,-487
2141,-133,-76,1019,-226,-391,-438
2142,-135,-97,999,22,-501,-352
2143,-139,-109,986,202,-589,-297
2144,-128,-101,992,346,-608,-274
2145,-141,-93,992,319,-624,-256
2146,-143,-96,997,219,-552,-301
2147,-126,-97,984,65,-475,-344
2148,-129,-105,989,-148,-423,-409
2149,-110,-114,1000,-390,-372,-465
2150,-115,-104,993,-591,-337,-534
2151,-94,-64,1020,-540,-356,-545
2152,-98,-42,1027,-181,-493,-442
2153,-104,-57,1007,208,-694,-233
2154,-95,-98,996,487,-809,-79
2155,-91,-135,975,534,-786,-98
2156,-100,-117,971,383,-673,-196
2157,-97,-104,994,110,-518,-253
2158,-67,-92,1017,-79,-390,-299
2159,-66,-80,1023,-158,-393,-352
2160,-59,-64,1030,-187,-479,-348
2161,-48,-63,1002,-107,-558,-286
2162,-43,-59,969,55,-626,-200
2163,-32,-71,973,176,-679,-94
2164,-40,-67,955,239,-675,-36
2165,-19,-63,949,262,-632,-1
2166,-20,-60,936,237,-563,11
2167,-12,-80,934,186,-491,21
2168,-21,-100,933,114,-384,-22
2169,-15,-90,947,1,-261,-88
2170,-13,-108,964,-111,-145,-145
2171,-11,-85,994,-154,-104,-184
2172,-29,-68,992,-142,-155,-133
2173,-30,-80,1001,-3,-229,-55
2174,-29,-80,988,87,-282,-1
2175,-42,-91,973,87,-311,29
2176,-26,-115,981,40,-296,11
2177,-27,-109,966,42,-257,-42
2178,-32,-103,994,104,-229,-65
2179,-21,-106,990,143,-218,-65
2180,-24,-108,976,186,-198,-85
2181,-35,-85,987,161,-161,-129
2182,-45,-75,998,79,-89,-139
2183,-29,-71,1042,-23,-81,-120
2184,-7,-81,1042,16,-159,-96
2185,-17,-94,1010,10,-296,-75
2186,-15,-100,1010,-25,-368,-81
2187,-24,-103,984,-23,-399,-96
2188,-21,-106,980,12,-386,-108
2189,-22,-109,991,51,-298,-122
2190,-13,-110,982,63,-186,-122
2191,-3,-108,1000,42,-77,-151
2192,-29,-81,1032,1,21,-194
2193,-20,-47,1059,-42,93,-169
2194,-3,-61,1077,-33,54,-86
2195,-9,-87,1088,38,-130,-6
2196,1,-99,1062,116,-339,11
2197,-27,-101,1027,98,-462,9
2198,-28,-124,1001,22,-452,-40
2199,-18,-130,987,-107,-323,-133
2200,-10,-128,981,-224,-157,-253
2201,-12,-123,964,-392,-9,-344
2202,-7,-109,984,-538,163,-432
2203,-7,-84,1006,-538,265,-432
2204,-15,-64,1040,-411,235,-329
2205,-10,-56,1064,-124,128,-192
2206,-10,-70,1067,165,-85,-44
2207,-5,-93,1070,323,-349,37
2208,-16,-104,1040,268,-503,35
2209,-22,-122,1030,104,-559,-32
2210,-17,-124,959,-99,-495,-131
2211,1,-123,946,-232,-378,-239
2212,2,-87,931,-257,-241,-256
2213,-6,-105,965,-202,-124,-186
2214,4,-98,976,-101,-13,-196
2215,0,-80,1007,-60,7,-184
2216,1,-64,1045,69,-97,-112
2217,9,-72,1036,190,-259,-28
2218,-3,-91,1001,196,-380,-14
2219,19,-118,987,36,-384,-69
2220,15,-129,952,-150,-325,-143
2221,33,-118,954,-247,-241,-211
2222,47,-104,925,-202,-120,-225
2223,38,-110,951,-66,-22,-196
2224,27,-110,974,-3,103,-196
2225,35,-84,999,91,191,-176
2226,28,-68,1050,257,161,-92
2227,35,-72,1065,438,48,-20
2228,13,-90,1071,419,-114,17
2229,24,-106,1049,247,-239,-28
2230,21,-121,1037,-15,-313,-120
2231,24,-117,996,-210,-327,-219
2232,17,-114,981,-269,-302,-282
2233,11,-127,955,-230,-243,-284
2234,16,-118,954,-165,-134,-292
2235,24,-100,979,-118,-11,-272
2236,38,-86,1023,124,17,-198
2237,31,-77,1047,380,-83,-100
2238,8,-91,1065,462,-181,-28
2239,7,-121,1059,337,-206,-67
2240,28,-131,1045,18,-235,-190
2241,17,-126,1027,-294,-276,-327
2242,19,-106,1008,-437,-286,-389
2243,32,-110,991,-413,-249,-378
2244,34,-129,976,-327,-190,-348
2245,24,-111,965,-271,-75,-356
2246,28,-100,1013,-128,15,-325
2247,15,-71,1054,89,-9,-223
2248,41,-73,1071,280,-140,-96
2249,52,-124,1083,327,-331,-36
2250,51,-129,1037,251,-489,-83
2251,36,-123,1016,87,-556,-167
2252,28,-115,995,-66,-507,-229
2253,31,-123,1001,-152,-411,-288
2254,22,-124,989,-206,-317,-338
2255,31,-134,967,-238,-188,-374
2256,34,-124,985,-228,-75,-413
2257,44,-100,1023,-132,-46,-383
2258,38,-83,1048,38,-100,-299
2259,40,-69,1071,280,-212,-200
2260,68,-89,1067,458,-401,-102
2261,76,-92,1047,483,-591,-94
2262,69,-98,1021,362,-686,-141
2263,79,-92,997,235,-659,-182
2264,83,-97,976,157,-556,-231
2265,72,-72,986,100,-427,-264
2266,61,-69,1010,51,-282,-282
2267,72,-59,1032,8,-143,-264
2268,76,-55,1059,7,-102,-247
2269,72,-43,1059,44,-188,-192
2270,67,-37,1053,87,-323,-143
2271,78,-56,1026,165,-460,-85
2272,72,-78,1002,247,-563,-51
2273,79,-97,969,217,-565,-69
2274,91,-105,958,128,-479,-139
2275,86,-88,949,5,-374,-219
2276,85,-76,940,-105,-263,-309
2277,89,-46,979,-159,-159,-356
2278,90,-27,1002,-154,-140,-327
2279,120,-14,1018,-44,-194,-251
2280,125,-26,1034,89,-347,-176
2281,126,-44,1020,171,-536,-129
2282,153,-37,970,161,-638,-96
2283,142,-45,937,221,-683,-59
2284,147,-58,905,258,-643,-45
2285,158,-68,895,219,-481,-61
2286,139,-71,918,151,-321,-104
2287,132,-52,918,67,-116,-180
2288,145,-23,962,7,60,-200
2289,146,-23,1008,22,116,-151
2290,148,-17,1067,75,19,-86
2291,142,-19,1063,192,-161,-18
2292,137,-32,1037,208,-395,27
2293,141,-42,988,110,-513,7
2294,149,-56,929,-19,-485,-53
2295,144,-55,895,-111,-368,-106
2296,163,-66,888,-158,-198,-139
2297,154,-70,905,-118,-32,-151
2298,146,-48,927,-62,103,-131
2299,149,-31,972,-5,196,-92
2300,161,-36,987,85,173,-34
2301,157,-38,1006,157,42,15
2302,161,-31,999,169,-100,52
2303,165,-50,989,73,-206,66
2304,163,-85,940,-11,-266,42
2305,162,-91,893,-68,-216,-30
2306,182,-76,893,-89,-85,-98
2307,170,-61,890,-81,62,-129
2308,154,-38,919,-54,183,-143
2309,158,7,954,-9,292,-92
2310,157,10,1010,114,302,52
2311,158,-38,1010,249,181,146
2312,169,-73,996,216,38,142
2313,172,-74,974,34,-69,103
2314,167,-82,934,-68,-116,64
2315,150,-80,900,-38,-58,56
2316,155,-99,912,34,77,54
2317,148,-90,923,112,245,25
2318,133,-62,957,100,384,37
2319,130,-42,998,69,501,48
2320,153,-53,1031,116,464,87
2321,145,-56,1040,137,316,128
2322,132,-80,1006,114,155,132
2323,136,-85,971,42,107,115
2324,123,-94,947,-11,142,66
2325,116,-94,951,-23,239,21
2326,119,-89,959,-27,360,9
2327,100,-88,991,10,480,5
2328,93,-91,1007,-33,536,5
2329,97,-98,1038,-48,536,-18
2330,87,-81,1028,-33,485,-53
2331,92,-75,1043,-23,396,-38
2332,101,-90,1055,24,275,-1
2333,116,-87,1045,94,134,21
2334,96,-87,1021,122,38,58
2335,78,-83,1020,184,87,74
2336,60,-86,1019,194,220,56
2337,58,-83,1040,112,349,46
2338,56,-90,1066,20,421,-1
2339,54,-98,1076,-105,425,-65
2340,67,-86,1089,-204,396,-126
2341,57,-53,1102,-179,292,-116
2342,66,-44,1106,44,97,-1
2343,51,-61,1091,233,-81,93
2344,56,-75,1071,233,-179,124
2345,48,-92,1042,126,-157,80
2346,61,-91,1018,-11,-79,21
2347,51,-91,1015,-109,9,-38
2348,53,-80,1026,-165,83,-100
2349,67,-77,989,-142,114,-137
2350,63,-54,1007,-83,101,-155
2351,61,-17,1041,81,36,-94
2352,80,-35,1015,258,-116,9
2353,72,-34,979,362,-255,39
2354,78,-26,927,323,-309,29
2355,83,-35,898,196,-309,-4
2356,97,-43,865,5,-294,-51
2357,119,-37,796,-138,-266,-122
2358,109,-50,736,-177,-278,-188
2359,110,-61,671,-267,-249,-253
2360,123,-73,613,-390,-151,-338
2361,153,-85,570,-497,-46,-420
2362,170,-45,508,-572,54,-499
2363,176,-37,479,-617,196,-530
2364,203,-36,428,-603,335,-524
2365,200,-25,400,-611,482,-485
2366,173,-16,349,-581,630,-393
2367,220,-8,348,-462,839,-256
2368,208,-24,342,-189,952,-129
2369,186,-40,324,51,1124,17
2370,178,-43,307,264,1407,48
2371,143,-41,326,249,1784,21
2372,118,2,340,87,2235,-51
2373,89,23,367,-99,2610,-59
2374,137,22,434,-265,2923,39
2375,133,-4,481,-169,3120,214
2376,41,-41,514,49,3132,390
2377,-25,-67,548,360,3124,490
2378,-97,-84,577,714,3073,521
2379,-201,-90,629,967,3054,392
2380,-270,-93,675,807,3234,167
2381,-246,-96,748,284,3507,-85
2382,-265,-36,779,-161,3745,-258
2383,-227,-89,796,-388,3794,-167
2384,-239,-107,824,-228,3778,-1
2385,-304,-89,857,63,3691,210
2386,-357,-32,926,704,3728,322
2387,-423,-21,1072,1219,3911,374
2388,-471,-36,1236,1149,4202,263
2389,-558,-26,1354,751,4366,-16
2390,-539,-40,1445,-195,4409,-65
2391,-580,-91,1507,-865,4126,42
2392,-634,-102,1544,-1070,3751,97
2393,-713,-53,1595,-740,3343,85
2394,-735,-40,1661,-220,2900,222
2395,-756,-59,1704,167,2542,236
2396,-784,-40,1734,188,2194,132
2397,-785,-59,1678,-240,1829,7
2398,-739,-58,1632,-824,1499,-8
2399,-756,-62,1585,-1105,1175,-61
2400,-722,-57,1520,-1197,903,-102
2401,-706,-40,1483,-1085,708,-118
2402,-733,-9,1455,-941,585,-118
2403,-696,19,1426,-888,526,-167
2404,-670,68,1391,-831,400,-165
2405,-665,124,1374,-706,253,-118
2406,-617,181,1368,-757,132,-4
2407,-544,187,1338,-794,19,160
2408,-474,160,1292,-765,-218,304
2409,-442,165,1233,-697,-487,417
2410,-437,217,1187,-515,-600,556
2411,-434,247,1182,-269,-530,691
2412,-463,278,1196,-130,-399,865
2413,-492,302,1204,-195,-308,1031
2414,-494,322,1208,-312,-247,1232
2415,-493,280,1182,-447,-319,1423
2416,-476,220,1159,-656,-524,1546
2417,-469,178,1103,-777,-854,1574
2418,-483,218,1062,-816,-1206,1542
2419,-445,227,982,-853,-1507,1624
2420,-452,212,921,-732,-1688,1747
2421,-461,190,843,-749,-1749,1857
2422,-443,178,800,-771,-1565,2003
2423,-426,75,767,-826,-1317,2175
2424,-393,-5,723,-835,-1091,2376
2425,-409,-38,720,-747,-891,2437
2426,-451,-82,760,-671,-665,2494
2427,-454,-153,770,-652,-458,2580
2428,-471,-236,791,-636,-341,2624
2429,-507,-330,761,-667,-317,2613
2430,-526,-439,720,-751,-292,2568
2431,-509,-528,732,-759,-122,2394
2432,-579,-583,698,-847,150,2095
2433,-579,-617,735,-929,540,1703
2434,-572,-625,805,-964,917,1369
2435,-601,-585,889,-841,1150,1072
2436,-590,-498,1022,-617,1202,949
2437,-558,-466,1089,-263,913,984
2438,-541,-456,1092,1,347,1019
2439,-502,-457,1054,104,-253,923
2440,-485,-422,980,73,-657,736
2441,-505,-378,911,-132,-718,560
2442,-482,-335,873,-390,-497,386
2443,-452,-317,891,-548,-270,292
2444,-420,-278,902,-458,-181,275
2445,-403,-258,900,-163,-220,322
2446,-412,-252,926,116,-323,408
2447,-410,-219,921,323,-347,433
2448,-404,-218,933,337,-347,412
2449,-411,-210,942,208,-352,382
2450,-400,-189,930,71,-308,261
2451,-404,-174,894,-201,-265,158
2452,-394,-175,879,-460,-183,89
2453,-391,-179,859,-577,-67,29
2454,-393,-167,853,-574,48,25
2455,-406,-149,887,-398,110,97
2456,-386,-140,906,-87,107,218
2457,-405,-146,924,210,11,310
2458,-414,-156,942,341,-56,349
2459,-414,-157,966,305,-48,296
2460,-400,-158,973,83,-46,222
2461,-376,-186,969,-247,-85,111
2462,-369,-162,936,-451,-153,-18
2463,-375,-146,915,-478,-218,-42
2464,-369,-127,880,-335,-190,11
2465,-353,-127,906,-136,-106,64
2466,-348,-129,914,104,-63,117
2467,-373,-137,933,225,-89,160
2468,-378,-143,957,200,-95,171
2469,-394,-132,949,104,-61,107
2470,-384,-137,957,-105,-54,74
2471,-366,-147,936,-259,-71,17
2472,-376,-153,912,-318,-136,-40
2473,-377,-146,882,-331,-145,-77
2474,-369,-142,871,-265,-69,-69
2475,-370,-135,866,-48,-5,-36
2476,-366,-115,890,184,19,-1
2477,-372,-91,906,292,44,107
2478,-387,-110,940,368,81,185
2479,-374,-138,943,296,83,181
2480,-393,-162,939,75,81,103
2481,-397,-163,933,-113,101,-1
2482,-406,-172,928,-191,134,-94
2483,-419,-142,935,-195,136,-153
2484,-417,-114,943,-109,142,-143
2485,-391,-111,956,36,97,-85
2486,-383,-115,942,196,-24,-14
2487,-378,-101,937,329,-147,15
2488,-389,-101,933,315,-175,29
2489,-381,-98,925,223,-110,23
2490,-389,-106,923,98,-42,-6
2491,-403,-113,920,-3,26,-59
2492,-396,-115,927,-54,103,-90
2493,-388,-122,941,-36,132,-120
2494,-400,-101,952,5,128,-129
2495,-379,-60,981,141,130,-126
2496,-370,-66,994,257,69,-106
2497,-383,-40,985,233,-24,-90
2498,-364,-59,978,10,-89,-30
2499,-374,-98,951,-175,-122,1
2500,-390,-114,904,-277,-112,-24
2501,-393,-125,868,-326,-32,-34
2502,-399,-131,868,-242,91,-47
2503,-403,-118,913,-40,144,-40
2504,-415,-105,950,163,120,7
2505,-401,-106,971,325,60,54
2506,-392,-112,986,409,-52,76
2507,-382,-123,959,354,-184,76
2508,-392,-115,954,223,-227,37
2509,-384,-115,943,34,-177,-8
2510,-391,-123,935,-124,-102,-42
2511,-394,-139,926,-204,-20,-77
2512,-412,-130,934,-142,46,-88
2513,-399,-129,943,3,85,-63
2514,-399,-143,963,143,71,-38
2515,-409,-143,996,245,21,-45
2516,-411,-123,984,272,-5,-71
2517,-400,-121,988,212,-67,-63
2518,-400,-124,970,130,-112,-65
2519,-395,-133,983,79,-118,-88
2520,-396,-146,967,42,-130,-118
2521,-392,-131,966,-1,-132,-149
2522,-393,-128,964,77,-161,-145
2523,-416,-135,972,176,-206,-128
2524,-402,-118,966,268,-210,-112
2525,-404,-105,970,372,-218,-79
2526,-383,-118,970,393,-249,-53
2527,-376,-110,968,305,-245,-88
2528,-377,-102,981,153,-222,-137
2529,-373,-100,967,34,-188,-184
2530,-389,-75,968,-31,-177,-198
2531,-384,-69,988,-9,-190,-151
2532,-369,-88,986,87,-263,-92
2533,-374,-99,955,143,-350,-63
2534,-374,-109,940,159,-343,-79
2535,-380,-121,926,114,-304,-94
2536,-389,-118,926,38,-218,-137
2537,-372,-117,918,-7,-138,-176
2538,-384,-110,943,8,-116,-200
2539,-375,-100,961,7,-124,-237
2540,-364,-95,951,-11,-138,-225
2541,-341,-83,963,34,-183,-202
2542,-342,-53,953,59,-257,-153
2543,-343,-83,960,69,-327,-114
2544,-327,-95,936,46,-384,-122
2545,-351,-83,922,10,-397,-155
2546,-358,-94,907,-29,-304,-204
2547,-363,-90,912,-89,-157,-249
2548,-349,-84,913,-154,-30,-241
2549,-337,-96,953,-134,17,-264
2550,-331,-73,970,-173,-13,-253
2551,-330,-73,972,-161,-65,-208
2552,-327,-75,983,-38,-153,-161
2553,-343,-73,965,96,-263,-92
2554,-337,-98,947,194,-350,-22
2555,-352,-115,935,233,-352,-28
2556,-348,-122,913,171,-249,-67
2557,-348,-112,930,63,-99,-129
2558,-340,-118,935,-9,-7,-198
2559,-353,-85,955,-48,5,-227
2560,-353,-85,971,-27,-11,-196
2561,-360,-80,998,-9,-61,-153
2562,-368,-83,994,-13,-112,-112
2563,-358,-111,982,-38,-198,-73
2564,-364,-124,971,-42,-266,-73
2565,-356,-138,933,-64,-290,-116
2566,-350,-150,905,-87,-235,-180
2567,-339,-147,924,-89,-147,-266
2568,-338,-107,954,-76,-85,-336
2569,-327,-94,949,-107,-65,-333
2570,-333,-83,956,-31,-83,-297
2571,-325,-63,965,32,-132,-213
2572,-302,-82,978,63,-183,-139
2573,-326,-101,973,48,-251,-120
2574,-333,-108,943,-58,-266,-143
2575,-327,-117,924,-132,-222,-182
2576,-343,-134,929,-128,-169,-223
2577,-338,-125,923,-109,-102,-274
2578,-321,-129,925,-66,-26,-323
2579,-333,-99,953,18,3,-338
2580,-321,-77,980,147,-13,-282
2581,-313,-61,977,298,-44,-194
2582,-287,-88,987,350,-104,-106
2583,-299,-103,970,260,-192,-94
2584,-315,-106,952,151,-231,-133
2585,-319,-107,958,59,-200,-170
2586,-308,-129,935,-1,-155,-186
2587,-316,-115,934,-40,-97,-225
2588,-318,-104,950,-101,-40,-229
2589,-313,-90,974,-87,-3,-200
2590,-323,-90,957,44,-34,-147
2591,-326,-102,979,165,-61,-77
2592,-314,-113,982,241,-65,-30
2593,-304,-147,987,290,-93,-38
2594,-324,-125,972,235,-118,-106
2595,-326,-125,987,143,-85,-147
2596,-332,-119,981,59,-85,-186
2597,-338,-90,975,5,-69,-211
2598,-322,-91,1002,10,-42,-184
2599,-307,-101,1005,40,-63,-145
2600,-313,-127,993,83,-149,-128
2601,-335,-131,983,92,-206,-122
2602,-329,-151,974,116,-163,-139
2603,-324,-151,994,104,-102,-182
2604,-325,-118,994,85,-77,-227
2605,-316,-124,1016,73,-81,-243
2606,-325,-118,1027,69,-95,-249
2607,-321,-99,1034,110,-141,-219
2608,-323,-110,1035,114,-202,-184
2609,-314,-121,1025,67,-257,-182
2610,-315,-119,1013,28,-292,-219
2611,-319,-124,990,3,-343,-231
2612,-303,-143,986,28,-352,-241
2613,-304,-144,964,100,-349,-278
2614,-321,-115,965,135,-329,-299
2615,-301,-89,985,132,-239,-264
2616,-297,-100,997,212,-231,-231
2617,-285,-90,1009,229,-302,-217
2618,-293,-84,1005,143,-354,-221
2619,-291,-94,994,42,-347,-200
2620,-287,-98,989,22,-350,-211
2621,-294,-92,991,20,-368,-241
2622,-307,-105,953,22,-349,-245
2623,-299,-110,961,53,-308,-266
2624,-290,-113,972,100,-286,-274
2625,-285,-75,993,147,-272,-264
2626,-275,-52,1020,174,-280,-231
2627,-268,-66,1023,139,-358,-196
2628,-261,-79,1003,44,-442,-213
2629,-265,-89,979,-103,-495,-227
2630,-276,-105,942,-146,-479,-229
2631,-257,-125,911,-122,-434,-237
2632,-266,-109,902,-77,-378,-254
2633,-283,-87,887,-31,-276,-276
2634,-249,-96,945,-60,-143,-206
2635,-237,-86,971,130,-116,-282
2636,-241,-46,981,157,-233,-223
2637,-233,-81,973,149,-298,-167
2638,-223,-104,955,91,-339,-155
2639,-213,-107,953,8,-337,-169
2640,-237,-103,956,22,-325,-180
2641,-242,-117,936,55,-286,-170
2642,-236,-110,956,110,-239,-153
2643,-247,-110,977,217,-212,-149
2644,-248,-89,1003,301,-196,-141
2645,-255,-73,1025,323,-186,-114
2646,-244,-96,1037,247,-181,-120
2647,-246,-106,1030,87,-206,-143
2648,-245,-123,1010,-89,-245,-190
2649,-237,-123,979,-183,-274,-253
2650,-244,-121,967,-185,-286,-272
2651,-229,-117,969,-99,-263,-262
2652,-249,-99,980,34,-218,-256
2653,-237,-98,991,87,-186,-208
2654,-223,-109,980,137,-175,-182
2655,-233,-114,981,126,-183,-190
2656,-227,-108,1017,65,-179,-210
2657,-232,-106,1001,8,-194,-213
2658,-233,-115,996,-9,-229,-215
2659,-232,-110,1001,-25,-282,-225
2660,-230,-119,996,-19,-317,-239
2661,-227,-131,982,-56,-315,-258
2662,-234,-109,985,-60,-253,-299
2663,-236,-119,990,-113,-184,-309
2664,-229,-99,1016,-93,-126,-309
2665,-217,-100,1036,-15,-102,-286
2666,-224,-105,1040,75,-143,-223
2667,-230,-111,1065,165,-243,-178
2668,-238,-111,1065,182,-311,-170
2669,-239,-120,1053,83,-333,-194
2670,-232,-135,1051,-46,-335,-223
2671,-232,-129,1000,-105,-347,-272
2672,-227,-145,995,-109,-347,-307
2673,-222,-149,985,-66,-321,-331
2674,-231,-132,973,3,-296,-348
2675,-230,-111,995,65,-227,-336
2676,-223,-102,1005,122,-165,-297
2677,-216,-90,1003,182,-136,-276
2678,-196,-104,1018,153,-141,-249
2679,-188,-108,1031,118,-231,-278
2680,-172,-105,1001,10,-321,-317
2681,-181,-111,981,-52,-350,-379
2682,-165,-131,962,-142,-333,-397
2683,-199,-113,950,-140,-372,-364
2684,-192,-105,954,1,-306,-378
2685,-188,-93,967,161,-308,-317
2686,-171,-98,975,311,-313,-243
2687,-168,-70,984,440,-319,-204
2688,-169,-81,993,452,-347,-163
2689,-152,-77,990,311,-397,-149
2690,-149,-90,987,104,-397,-210
2691,-146,-98,950,-83,-415,-272
2692,-176,-104,943,-179,-386,-325
2693,-160,-114,946,-187,-306,-342
2694,-170,-128,937,-117,-224,-344
2695,-166,-121,958,-38,-147,-342
2696,-151,-93,982,65,-71,-305
2697,-156,-96,991,214,-71,-219
2698,-153,-80,1011,409,-145,-145
2699,-159,-80,1032,432,-210,-96
2700,-169,-100,1034,350,-247,-137
2701,-161,-93,1038,143,-274,-217
2702,-163,-109,1021,-25,-304,-282
2703,-167,-118,1002,-148,-331,-346
2704,-161,-130,980,-152,-341,-376
2705,-175,-127,956,-105,-302,-383
2706,-172,-89,971,-46,-173,-381
2707,-139,-68,1007,108,-126,-319
2708,-136,-51,1037,325,-196,-225
2709,-119,-62,1041,491,-306,-124
2710,-129,-91,1031,462,-358,-96
2711,-138,-94,1020,290,-358,-159
2712,-135,-86,1014,49,-302,-249
2713,-140,-87,1024,-113,-263,-303
2714,-135,-82,1039,-169,-251,-313
2715,-136,-83,1018,-150,-239,-301
2716,-121,-100,1011,-152,-208,-292
2717,-129,-103,1001,-103,-177,-268
2718,-129,-75,1016,65,-194,-213
2719,-134,-81,1041,241,-247,-129
2720,-132,-87,1052,354,-278,-86
2721,-133,-81,1035,305,-290,-67
2722,-127,-91,1049,165,-317,-77
2723,-123,-114,1050,55,-370,-94
2724,-134,-110,1033,42,-456,-94
2725,-139,-114,1004,132,-503,-98
2726,-151,-108,1003,237,-475,-112
2727,-142,-102,989,344,-436,-118
2728,-121,-97,1010,380,-401,-128
2729,-125,-83,1025,393,-415,-143
2730,-123,-64,1023,337,-456,-155
2731,-110,-38,1039,235,-464,-178
2732,-94,-58,1038,48,-501,-206
2733,-95,-58,1011,-68,-581,-253
2734,-111,-52,973,-165,-618,-288
2735,-100,-80,954,-249,-571,-317
2736,-79,-89,933,-267,-493,-344
2737,-78,-89,933,-216,-450,-356
2738,-80,-72,953,-124,-372,-338
2739,-66,-90,967,-42,-325,-286
2740,-65,-83,979,32,-331,-270
2741,-72,-59,987,53,-345,-262
2742,-51,-66,1010,85,-358,-233
2743,-51,-62,1025,61,-401,-202
2744,-46,-76,1012,-7,-440,-194
2745,-52,-83,995,-93,-442,-210
2746,-63,-96,988,-259,-409,-253
2747,-74,-117,972,-382,-335,-286
2748,-74,-121,960,-372,-253,-317
2749,-68,-149,959,-283,-181,-340
2750,-80,-121,991,-159,-136,-342
2751,-68,-94,1024,-13,-116,-299
2752,-48,-75,1047,186,-181,-213
2753,-54,-83,1053,301,-325,-104
2754,-34,-112,1042,301,-413,-92
2755,-36,-125,1030,139,-450,-163
2756,-52,-121,1023,-89,-434,-254
2757,-51,-126,1000,-286,-349,-315
2758,-42,-110,1001,-286,-288,-352
2759,-58,-133,996,-195,-239,-352
2760,-62,-118,1030,-120,-194,-342
2761,-48,-100,1036,7,-179,-331
2762,-42,-89,1055,182,-241,-262
2763,-27,-60,1070,389,-362,-172
2764,-16,-66,1062,458,-458,-81
2765,-32,-99,1065,337,-526,-90
2766,-32,-100,1040,46,-503,-202
2767,-26,-94,1010,-281,-409,-313
2768,-8,-99,995,-456,-300,-391
2769,-7,-110,963,-472,-212,-401
2770,-2,-98,971,-324,-153,-368
2771,4,-120,965,-64,-138,-303
2772,-6,-98,984,223,-149,-225
2773,-23,-60,994,432,-114,-69
2774,-13,-67,1040,563,-54,54
2775,-26,-98,1071,526,-61,80
2776,-18,-89,1045,341,-108,3
2777,-23,-105,1081,59,-128,-85
2778,-11,-109,1052,-230,-218,-174
2779,-7,-83,1033,-296,-302,-223
2780,-30,-98,995,-173,-341,-182
2781,-19,-104,1004,-87,-302,-163
2782,-24,-93,996,36,-222,-153
2783,-6,-70,1018,151,-194,-83
2784,1,-71,1039,303,-247,-6
2785,-11,-72,1046,366,-300,44
2786,-1,-81,1027,268,-302,37
2787,7,-79,1042,65,-276,-22
2788,25,-67,1060,-126,-247,-59
2789,17,-84,1044,-177,-265,-67
2790,6,-79,1033,-150,-296,-61
2791,-13,-79,1020,-156,-257,-38
2792,-17,-90,1017,-238,-165,-65
2793,-3,-74,1046,-242,-91,-83
2794,11,-83,1057,-132,-134,-34
2795,7,-91,1058,-1,-247,-1
2796,-4,-103,1044,67,-308,-20
2797,-20,-89,1057,30,-319,-45
2798,-16,-91,1058,-169,-304,-59
2799,5,-76,1056,-228,-325,-69
2800,-9,-90,1031,-93,-429,-24
2801,-3,-93,995,14,-524,23
2802,-8,-102,991,137,-530,44
2803,-9,-123,993,233,-491,27
2804,-7,-119,1004,192,-421,-38
2805,21,-113,1036,49,-397,-128
2806,30,-109,1030,-40,-440,-196
2807,21,-74,1015,-56,-548,-247
2808,24,-63,999,-118,-614,-211
2809,40,-75,980,-122,-612,-170
2810,44,-86,976,-72,-600,-161
2811,43,-112,959,-62,-589,-161
2812,51,-106,930,-72,-530,-208
2813,59,-119,937,-89,-431,-253
2814,55,-96,953,-50,-370,-274
2815,68,-86,982,-23,-278,-297
2816,77,-107,973,-95,-253,-321
2817,89,-102,973,-202,-306,-391
2818,64,-79,985,-310,-360,-409
2819,82,-66,974,-302,-386,-381
2820,79,-72,982,-189,-397,-329
2821,78,-87,981,-48,-444,-278
2822,93,-93,965,28,-448,-266
2823,78,-105,958,20,-454,-266
2824,74,-99,948,3,-425,-288
2825,92,-111,938,-13,-352,-307
2826,85,-99,939,-40,-265,-336
2827,101,-89,976,-134,-149,-360
2828,103,-70,999,-158,-69,-350
2829,104,-70,1041,-109,-91,-319
2830,118,-65,1037,-50,-198,-260
2831,118,-83,1022,59,-327,-202
2832,110,-94,1005,147,-444,-145
2833,83,-90,993,186,-464,-112
2834,95,-77,1004,204,-382,-77
2835,99,-95,1008,174,-306,-98
2836,108,-87,1037,61,-274,-137
2837,114,-79,1023,-38,-227,-172
2838,113,-95,1000,-70,-229,-174
2839,131,-86,1010,-66,-235,-188
2840,121,-74,1018,-62,-233,-170
2841,137,-52,1003,83,-304,-102
2842,130,-57,1002,294,-419,3
2843,128,-67,1004,426,-442,80
2844,134,-90,983,362,-388,87
2845,116,-109,983,161,-311,1
2846,96,-112,963,-95,-190,-126
2847,97,-117,978,-318,-79,-253
2848,98,-110,977,-445,-24,-344
2849,112,-95,970,-441,-11,-374
2850,132,-77,969,-339,-22,-346
2851,135,-40,991,22,-120,-200
2852,146,-70,986,436,-325,-1
2853,141,-73,990,651,-468,80
2854,130,-84,983,577,-479,31
2855,144,-83,967,257,-405,-96
2856,150,-74,935,-156,-294,-235
2857,161,-67,917,-431,-184,-325
2858,171,-51,902,-499,-104,-350
2859,158,-32,906,-408,-5,-294
2860,168,-44,933,-283,103,-196
2861,175,-45,954,-113,155,-116
2862,169,-48,990,85,91,-34
2863,179,-63,1008,180,-26,52
2864,182,-75,994,169,-128,52
2865,154,-79,961,63,-159,15
2866,161,-77,952,-64,-114,-14
2867,161,-81,946,-144,-7,-36
2868,164,-82,957,-107,67,-53
2869,153,-83,952,-72,138,-30
2870,149,-69,983,22,189,-6
2871,148,-58,1021,135,185,52
2872,155,-79,1014,216,85,103
2873,141,-67,1022,229,-32,113
2874,146,-67,996,204,-114,136
2875,149,-75,1013,153,-124,162
2876,145,-76,990,104,-97,146
2877,131,-103,972,-34,-22,107
2878,110,-111,962,-118,77,54
2879,106,-130,983,-107,153,-8
2880,75,-111,1004,-38,196,-28
2881,88,-124,1023,-21,196,23
2882,110,-125,1029,42,171,-18
2883,120,-105,1018,12,67,-40
2884,107,-94,1032,8,-9,-24
2885,106,-102,1022,8,-9,-26
2886,127,-115,1018,-111,46,-44
2887,127,-130,1013,-228,110,-102
2888,121,-127,1009,-302,183,-131
2889,128,-125,1001,-220,261,-118
2890,120,-122,1038,-29,269,-67
2891,103,-111,1059,149,230,3
2892,110,-114,1091,270,134,64
2893,109,-107,1080,315,-16,68
2894,117,-93,1080,217,-153,29
2895,115,-98,1045,40,-237,-32
2896,124,-109,1004,-134,-251,-92
2897,120,-119,971,-245,-204,-131
2898,125,-117,959,-255,-128,-170
2899,124,-109,943,-193,-34,-182
2900,130,-115,955,-76,69,-174
2901,143,-118,960,-9,124,-192
2902,125,-87,1010,10,140,-198
2903,134,-53,1034,38,77,-167
2904,144,-65,1024,73,-38,-92
2905,137,-71,1019,83,-179,-36
2906,136,-90,988,24,-220,-16
2907,137,-108,976,-56,-165,-30
2908,127,-106,958,-81,-67,-61
2909,128,-106,953,-97,38,-73
2910,132,-113,965,-70,142,-85
2911,135,-98,989,-1,210,-98
2912,136,-61,1028,116,187,-67
2913,134,-63,1063,257,69,17
2914,128,-63,1055,337,-52,64
2915,136,-71,1056,229,-141,85
2916,136,-83,1041,69,-165,54
2917,134,-94,992,-93,-141,5
2918,125,-106,977,-193,-95,-51
2919,110,-105,960,-226,-22,-85
2920,126,-122,959,-218,64,-128
2921,120,-119,958,-148,124,-149
2922,109,-89,983,-66,157,-159
2923,135,-73,1005,-7,159,-126
2924,152,-69,995,108,23,-67
2925,139,-65,967,198,-157,-12
2926,146,-55,942,235,-261,31
2927,172,-81,902,186,-302,25
2928,180,-97,864,38,-302,-55
2929,174,-91,829,-144,-251,-141
2930,196,-85,778,-234,-184,-190
2931,209,-83,734,-279,-87,-219
2932,205,-73,710,-249,-40,-211
2933,206,-74,633,-120,-71,-133
2934,211,-96,577,-62,-155,-36
2935,223,-96,528,-31,-233,-18
2936,228,-94,443,-103,-288,-81
2937,217,-66,365,-312,-225,-167
2938,203,-11,301,-579,34,-174
2939,214,35,247,-740,343,-180
2940,208,65,215,-626,567,-20
2941,229,15,125,-452,765,124
2942,238,-14,115,-310,1005,310
2943,207,-16,43,-193,1290,421
2944,176,8,-4,92,1720,589
2945,155,-18,8,411,2159,658
2946,93,64,-11,936,2589,738
2947,46,81,55,1288,3066,697
2948,-26,128,130,1479,3698,658
2949,-90,107,200,1147,4362,646
2950,-118,15,279,368,4966,654
2951,-136,-140,313,-423,5206,695
2952,-164,-301,359,-699,5103,507
2953,-208,-276,381,-343,4923,203
2954,-282,-139,520,807,4751,80
2955,-436,34,685,2339,4862,74
2956,-478,157,892,3477,5218,214
2957,-491,132,1119,3628,5669,279
2958,-561,97,1367,2669,5780,378
2959,-582,33,1605,1383,5751,228
2960,-650,-11,1747,245,5425,-34
2961,-797,21,1891,-654,4847,-192
2962,-893,26,1929,-800,4278,-174
2963,-937,-25,1974,-615,3790,-22
2964,-943,-83,1974,-427,3405,97
2965,-943,-138,1992,-351,2960,124
2966,-937,-173,1987,-417,2513,-16
2967,-911,-148,1971,-728,2058,-295
2968,-916,-93,1927,-1144,1581,-419
2969,-877,-80,1869,-1243,1206,-356
2970,-833,-110,1786,-964,816,-210
2971,-815,-138,1704,-587,374,-98
2972,-811,-178,1606,-372,26,-53
2973,-794,-208,1531,-322,-130,-131
2974,-781,-193,1464,-372,-175,-280
2975,-727,-179,1422,-458,-183,-419
2976,-709,-131,1404,-454,-136,-524
2977,-688,-82,1381,-435,-108,-565
2978,-630,-40,1379,-413,-136,-514
2979,-602,-20,1352,-253,-321,-428
2980,-579,-7,1298,24,-622,-338
2981,-552,-2,1243,212,-890,-274
2982,-535,4,1162,186,-1046,-299
2983,-501,25,1092,-33,-1108,-354
2984,-476,44,1008,-290,-1093,-420
2985,-436,71,960,-497,-1024,-469
2986,-375,109,908,-603,-923,-463
2987,-355,148,879,-556,-852,-366
2988,-325,202,862,-251,-802,-188
2989,-300,211,851,120,-819,74
2990,-294,222,849,483,-850,283
2991,-272,234,849,591,-798,425
2992,-266,247,855,405,-681,439
2993,-230,244,848,-111,-577,437
2994,-222,262,846,-484,-497,490
2995,-229,294,838,-595,-393,576
2996,-253,335,858,-433,-292,790
2997,-274,362,891,-54,-222,1017
2998,-280,362,934,405,-216,1302
2999,-283,367,941,573,-229,1544
3000,-292,379,970,479,-169,1681
3001,-306,342,1019,110,-141,1730
3002,-301,314,1018,-441,-216,1714
3003,-323,328,1022,-1046,-372,1650
3004,-336,347,974,-1365,-546,1683
3005,-349,312,941,-1357,-659,1878
3006,-369,252,914,-1224,-716,2062
3007,-387,235,888,-1031,-700,2218
3008,-398,172,882,-816,-694,2423
3009,-420,109,861,-669,-696,2607
3010,-424,24,853,-800,-620,2687
3011,-437,-21,833,-1068,-499,2693
3012,-427,-85,839,-1337,-372,2654
3013,-435,-128,872,-1326,-266,2646
3014,-457,-192,916,-1150,-300,2669
3015,-483,-263,891,-1042,-366,2669
3016,-508,-316,866,-951,-397,2597
3017,-500,-395,844,-951,-349,2480
3018,-510,-411,841,-1023,-239,2279
3019,-517,-404,857,-1105,-118,2115
3020,-502,-460,874,-1113,-13,2009
3021,-483,-465,869,-1064,75,1826
3022,-498,-456,888,-1052,136,1712
3023,-484,-478,926,-1062,163,1622
3024,-471,-455,952,-943,103,1488
3025,-455,-437,951,-808,-9,1394
3026,-440,-461,927,-617,-200,1339
3027,-432,-479,862,-382,-411,1232
3028,-440,-469,842,-124,-450,1101
3029,-419,-432,839,128,-374,978
3030,-423,-418,848,233,-300,892
3031,-421,-388,861,251,-151,749
3032,-406,-360,874,194,38,568
3033,-410,-317,895,-27,189,451
3034,-415,-312,929,-372,331,371
3035,-398,-288,966,-661,415,285
3036,-401,-277,980,-656,300,267
3037,-399,-272,970,-390,50,326
3038,-387,-305,924,-15,-222,396
3039,-422,-313,861,247,-352,374
3040,-391,-313,860,290,-206,289
3041,-380,-281,904,274,17,156
3042,-375,-238,928,214,97,72
3043,-355,-201,946,167,140,27
3044,-355,-164,956,163,191,-28
3045,-367,-137,1010,-33,271,-42
3046,-338,-124,1063,-279,300,-57
3047,-344,-119,1048,-398,107,-63
3048,-361,-138,1003,-392,-169,-16
3049,-368,-184,919,-253,-274,5
3050,-369,-219,892,-117,-241,-22
3051,-381,-206,880,8,-130,-106
3052,-372,-170,879,114,32,-213
3053,-363,-119,911,188,130,-251
3054,-352,-101,953,249,142,-241
3055,-333,-67,993,305,116,-213
3056,-324,-65,1005,223,32,-153
3057,-320,-79,995,42,-44,-128
3058,-322,-84,962,-74,-106,-145
3059,-329,-96,938,-74,-143,-116
3060,-335,-92,940,42,-132,-108
3061,-341,-93,938,100,-40,-110
3062,-350,-97,932,120,48,-112
3063,-355,-69,954,151,109,-118
3064,-343,-62,973,260,79,-86
3065,-356,-58,961,327,26,-55
3066,-357,-74,963,278,19,-75
3067,-351,-67,970,102,54,-128
3068,-348,-63,970,-101,85,-184
3069,-363,-63,965,-245,116,-280
3070,-347,-77,948,-339,138,-321
3071,-356,-71,944,-361,192,-319
3072,-361,-73,942,-150,249,-301
3073,-341,-69,973,130,224,-233
3074,-361,-52,957,352,116,-129
3075,-359,-60,963,307,69,-12
3076,-346,-77,956,223,48,31
3077,-342,-87,963,137,13,-40
3078,-346,-80,943,-38,5,-83
3079,-347,-77,923,-169,50,-104
3080,-356,-61,927,-148,110,-116
3081,-351,-71,934,-70,122,-81
3082,-352,-58,931,30,110,-20
3083,-359,-55,954,141,87,58
3084,-343,-65,959,257,32,124
3085,-347,-63,968,307,-15,136
3086,-347,-69,942,208,-16,140
3087,-344,-88,950,36,-5,89
3088,-339,-95,962,-156,28,21
3089,-349,-96,934,-279,64,-38
3090,-360,-82,933,-251,95,-38
3091,-359,-77,941,-124,114,3
3092,-360,-82,936,-9,124,89
3093,-364,-85,970,100,109,146
3094,-363,-82,973,188,87,167
3095,-361,-85,958,206,50,201
3096,-369,-101,962,149,56,203
3097,-368,-116,944,44,67,164
3098,-371,-121,945,-66,93,91
3099,-385,-117,969,-146,99,15
3100,-391,-89,973,-148,103,-14
3101,-382,-91,975,-66,93,7
3102,-381,-106,973,-15,75,29
3103,-378,-99,969,-76,69,9
3104,-358,-96,954,-197,56,-4
3105,-359,-110,946,-253,26,-4
3106,-350,-116,927,-212,3,-20
3107,-357,-113,942,-154,11,-36
3108,-366,-100,932,-144,69,-32
3109,-373,-117,961,-134,138,-55
3110,-383,-96,976,-120,150,-44
3111,-376,-94,975,-44,85,21
3112,-369,-114,975,106,-5,64
3113,-384,-128,963,135,-100,93
3114,-365,-130,943,51,-108,52
3115,-364,-133,934,-17,-85,-1
3116,-362,-125,931,-40,-89,-49
3117,-368,-124,907,-33,-81,-85
3118,-372,-115,920,-13,-34,-90
3119,-368,-118,922,12,-1,-86
3120,-367,-99,948,38,28,-73
3121,-364,-86,956,42,38,-26
3122,-357,-93,978,63,13,27
3123,-341,-123,964,71,-22,29
3124,-363,-136,956,26,-38,-8
3125,-378,-148,973,-34,-30,-49
3126,-377,-155,960,-46,5,-96
3127,-392,-153,966,-27,40,-143
3128,-390,-137,998,-31,50,-174
3129,-390,-115,1001,26,30,-131
3130,-391,-120,1010,122,-15,-61
3131,-375,-146,1010,255,-100,-24
3132,-394,-159,1015,258,-186,-44
3133,-394,-170,1005,157,-204,-110
3134,-401,-170,1010,46,-177,-186
3135,-408,-188,998,-25,-167,-253
3136,-414,-173,999,-42,-155,-317
3137,-390,-172,1006,10,-155,-348
3138,-392,-158,996,126,-165,-364
3139,-389,-131,1017,223,-161,-323
3140,-364,-132,1047,301,-173,-256
3141,-367,-132,1046,354,-276,-237
3142,-379,-120,1037,280,-352,-247
3143,-380,-137,1036,112,-349,-274
3144,-390,-147,1022,-13,-309,-331
3145,-389,-149,1012,-91,-288,-381
3146,-380,-153,1007,-60,-300,-389
3147,-380,-154,1009,67,-329,-360
3148,-377,-156,1007,264,-374,-346
3149,-378,-149,1001,405,-403,-338
3150,-365,-130,1016,419,-397,-350
3151,-349,-118,1028,393,-397,-360
3152,-354,-99,1040,264,-403,-395
3153,-352,-102,1030,108,-433,-413
3154,-352,-117,1027,-9,-481,-446
3155,-349,-117,983,-89,-542,-471
3156,-346,-120,984,-76,-571,-467
3157,-355,-124,950,24,-565,-465
3158,-335,-118,937,126,-556,-467
3159,-334,-104,952,216,-542,-461
3160,-320,-73,969,268,-542,-456
3161,-325,-63,967,247,-546,-430
3162,-313,-79,969,165,-530,-454
3163,-300,-69,960,-29,-515,-495
3164,-293,-84,966,-232,-501,-553
3165,-284,-87,944,-406,-468,-629
3166,-298,-84,925,-486,-417,-665
3167,-304,-93,917,-486,-339,-682
3168,-285,-86,924,-415,-272,-674
3169,-280,-85,928,-220,-280,-614
3170,-270,-77,936,42,-354,-503
3171,-283,-69,930,258,-415,-403
3172,-286,-95,957,333,-446,-331
3173,-282,-112,942,294,-434,-370
3174,-281,-111,957,116,-417,-454
3175,-274,-113,964,-99,-403,-536
3176,-279,-117,954,-242,-401,-620
3177,-277,-86,936,-333,-388,-635
3178,-261,-73,905,-199,-356,-565
3179,-248,-76,942,75,-382,-444
3180,-236,-103,941,354,-431,-360
3181,-252,-86,941,411,-438,-352
3182,-255,-97,946,264,-343,-385
3183,-250,-84,967,48,-241,-424
3184,-225,-103,969,-158,-212,-473
3185,-235,-104,957,-300,-220,-518
3186,-248,-104,951,-345,-265,-508
3187,-250,-100,958,-306,-282,-477
3188,-233,-105,936,-105,-302,-413
3189,-251,-104,952,69,-288,-325
3190,-237,-101,962,298,-268,-286
3191,-238,-115,963,294,-268,-278
3192,-234,-124,978,137,-208,-313
3193,-231,-129,965,-46,-134,-395
3194,-223,-118,985,-220,-120,-446
3195,-222,-110,970,-208,-173,-430
3196,-237,-98,968,-72,-266,-372
3197,-247,-96,982,157,-329,-301
3198,-241,-101,957,376,-372,-243
3199,-234,-119,961,419,-364,-247
3200,-228,-106,985,290,-302,-297
3201,-228,-90,962,104,-229,-344
3202,-216,-90,995,-33,-161,-362
3203,-204,-90,989,-74,-145,-370
3204,-211,-102,978,-101,-147,-366
3205,-222,-104,995,-79,-143,-348
3206,-205,-113,973,-34,-132,-317
3207,-222,-82,1014,48,-163,-297
3208,-215,-90,1018,159,-216,-229
3209,-196,-100,1004,268,-280,-182
3210,-212,-98,1009,333,-345,-200
3211,-213,-103,989,280,-339,-225
3212,-227,-91,1006,133,-251,-253
3213,-219,-104,1003,-29,-192,-272
3214,-212,-105,1020,-68,-200,-280
3215,-217,-100,1015,-62,-225,-254
3216,-209,-103,998,16,-237,-235
3217,-210,-109,1009,106,-278,-210
3218,-216,-106,1003,190,-345,-188
3219,-222,-123,994,233,-347,-174
3220,-200,-125,995,223,-306,-204
3221,-207,-129,999,132,-272,-251
3222,-216,-123,995,18,-251,-309
3223,-219,-105,1011,-124,-171,-360
3224,-195,-94,1029,-259,-122,-329
3225,-164,-102,1053,-195,-216,-276
3226,-178,-98,1015,14,-382,-213
3227,-183,-118,989,180,-505,-133
3228,-190,-158,963,229,-479,-112
3229,-200,-157,971,165,-374,-188
3230,-185,-113,1002,59,-229,-258
3231,-195,-121,1025,8,-196,-274
3232,-192,-117,1022,-9,-255,-266
3233,-185,-138,1015,-31,-321,-260
3234,-174,-148,989,-70,-352,-276
3235,-174,-140,995,-118,-358,-278
3236,-175,-145,993,-64,-349,-282
3237,-176,-117,989,53,-337,-276
3238,-165,-118,1008,180,-331,-206
3239,-156,-130,1013,305,-352,-178
3240,-161,-130,996,290,-390,-186
3241,-174,-127,991,153,-364,-231
3242,-170,-132,1008,1,-306,-270
3243,-158,-124,1008,-120,-290,-323
3244,-154,-122,1023,-191,-329,-350
3245,-137,-105,1005,-124,-378,-315
3246,-148,-123,1004,34,-446,-249
3247,-134,-133,992,217,-497,-204
3248,-135,-141,988,290,-464,-186
3249,-132,-143,974,260,-378,-215
3250,-124,-133,1002,132,-278,-288
3251,-128,-113,1012,-36,-224,-321
3252,-110,-128,997,-148,-214,-354
3253,-114,-127,992,-216,-239,-376
3254,-121,-134,989,-242,-235,-370
3255,-125,-140,985,-158,-225,-342
3256,-136,-138,994,104,-309,-268
3257,-140,-135,979,419,-409,-169
3258,-129,-156,994,624,-472,-120
3259,-129,-151,987,637,-495,-167
3260,-117,-136,995,436,-421,-243
3261,-113,-126,1005,233,-317,-294
3262,-109,-113,999,108,-278,-335
3263,-105,-95,1004,63,-268,-313
3264,-101,-104,1001,114,-282,-262
3265,-109,-127,992,208,-321,-233
3266,-121,-137,1000,276,-335,-229
3267,-128,-141,985,276,-308,-251
3268,-103,-116,989,251,-261,-313
3269,-108,-80,1026,202,-225,-307
3270,-103,-84,1056,217,-231,-280
3271,-97,-99,1056,180,-282,-272
3272,-117,-97,1045,100,-323,-297
3273,-85,-111,1015,-33,-323,-338
3274,-98,-99,1018,-81,-311,-379
3275,-70,-83,1015,-31,-294,-376
3276,-70,-85,1034,94,-268,-331
3277,-75,-80,1039,186,-300,-299
3278,-62,-73,1058,174,-309,-284
3279,-59,-64,1075,147,-311,-254
3280,-88,-50,1058,104,-358,-219
3281,-91,-39,1061,61,-364,-194
3282,-73,-66,1039,61,-395,-145
3283,-79,-93,1036,59,-475,-145
3284,-95,-103,1001,-3,-495,-182
3285,-79,-111,985,-34,-468,-198
3286,-74,-105,970,5,-409,-227
3287,-60,-104,971,53,-333,-231
3288,-56,-89,974,135,-280,-200
3289,-46,-79,989,258,-292,-143
3290,-63,-74,1007,372,-349,-88
3291,-61,-74,1028,376,-384,-38
3292,-47,-98,1019,301,-397,-44
3293,-45,-97,1000,174,-395,-98
3294,-53,-91,990,46,-378,-135
3295,-62,-110,973,-15,-315,-170
3296,-57,-116,931,-50,-237,-227
3297,-69,-117,941,-136,-97,-272
3298,-59,-108,980,-214,85,-321
3299,-44,-63,1044,-204,171,-338
3300,-50,-27,1085,5,73,-256
3301,-34,-41,1105,301,-122,-120
3302,-44,-76,1072,436,-339,-8
3303,-36,-120,1052,286,-487,11
3304,-61,-121,1017,87,-505,-77
3305,-57,-137,975,-56,-423,-170
3306,-68,-124,985,-97,-292,-219
3307,-63,-144,988,-122,-155,-290
3308,-71,-147,1002,-269,-13,-383
3309,-73,-150,1021,-509,124,-495
3310,-63,-98,1055,-773,210,-624
3311,-40,-49,1095,-679,101,-569
3312,-29,-45,1089,-251,-239,-381
3313,-23,-60,1028,153,-569,-155
3314,-27,-119,974,495,-766,-40
3315,-29,-145,934,602,-786,-20
3316,-9,-150,926,487,-579,-98
3317,-18,-133,932,282,-337,-176
3318,-28,-93,982,159,-132,-233
3319,-7,-62,1018,100,36,-225
3320,-17,-40,1070,151,5,-143
3321,18,-48,1098,393,-124,-81
3322,18,-69,1028,444,-308,37
3323,4,-112,1022,372,-491,70
3324,-17,-109,976,341,-446,-42
3325,-5,-102,985,153,-308,-92
3326,-15,-87,995,40,-163,-128
3327,-7,-58,1024,10,-75,-151
3328,-8,-51,1041,61,-48,-122
3329,-18,-62,1049,83,-50,-83
3330,1,-60,1074,133,-97,-51
3331,-6,-60,1084,276,-257,-4
3332,-16,-80,1052,337,-438,42
3333,-15,-105,1044,301,-491,21
3334,-17,-100,1011,217,-472,-24
3335,-26,-99,977,130,-409,-65
3336,-29,-81,991,132,-296,-92
3337,-24,-80,1015,190,-227,-75
3338,-16,-87,1035,258,-186,-94
3339,-25,-83,1050,221,-181,-153
3340,-28,-65,1069,165,-161,-223
3341,-12,-64,1078,26,-190,-241
3342,9,-67,1074,-34,-296,-245
3343,17,-70,1041,-46,-434,-254
3344,-4,-61,1013,-34,-491,-254
3345,14,-76,992,-76,-427,-235
3346,25,-70,984,-48,-321,-227
3347,25,-63,1019,-27,-286,-233
3348,31,-77,1012,-34,-274,-253
3349,36,-75,1016,-42,-257,-276
3350,31,-47,1023,-44,-259,-295
3351,31,-45,1042,-40,-266,-292
3352,53,-57,1017,-62,-325,-268
3353,36,-45,1019,-136,-372,-253
3354,52,-46,990,-232,-358,-223
3355,63,-63,986,-267,-317,-192
3356,42,-78,967,-281,-278,-186
3357,42,-79,955,-279,-239,-186
3358,34,-100,971,-263,-190,-211
3359,12,-87,990,-267,-136,-237
3360,28,-96,1020,-259,-106,-249
3361,36,-71,1032,-144,-149,-241
3362,41,-60,1041,49,-259,-200
3363,40,-62,1040,171,-370,-88
3364,47,-99,1023,192,-466,-63
3365,50,-93,1011,165,-497,-102
3366,37,-63,1013,65,-483,-124
3367,60,-87,1003,20,-452,-135
3368,42,-96,1021,-3,-431,-204
3369,47,-70,1012,-40,-366,-262
3370,47,-75,1027,-56,-306,-247
3371,41,-78,1038,1,-278,-223
3372,47,-69,1079,61,-309,-225
3373,43,-83,1062,14,-393,-211
3374,54,-70,1051,-62,-491,-192
3375,56,-80,1012,-23,-581,-180
3376,57,-84,997,36,-614,-174
3377,82,-84,979,98,-577,-180
3378,87,-95,966,176,-511,-188
3379,89,-90,977,225,-425,-227
3380,75,-79,1007,192,-358,-276
3381,77,-64,1039,96,-333,-315
3382,96,-67,1019,36,-376,-352
3383,99,-61,1033,12,-507,-366
3384,122,-45,1006,24,-624,-354
3385,124,-61,966,92,-704,-323
3386,116,-28,974,173,-766,-282
3387,133,-22,962,380,-766,-194
3388,144,-33,953,594,-755,-100
3389,142,-34,948,612,-725,-71
3390,146,-45,947,426,-610,-118
3391,146,-58,951,169,-462,-210
3392,147,-69,955,-107,-380,-323
3393,155,-56,957,-329,-298,-424
3394,169,-40,950,-460,-235,-458
3395,163,1,991,-447,-225,-432
3396,174,23,977,-195,-261,-260
3397,176,8,985,225,-405,-49
3398,174,-34,973,469,-505,70
3399,163,-62,967,444,-489,60
3400,148,-72,962,225,-403,-47
3401,146,-43,970,-81,-263,-151
3402,159,-36,985,-316,-153,-217
3403,163,-40,982,-402,-179,-270
3404,145,-32,971,-404,-222,-258
3405,149,-40,947,-310,-208,-198
3406,137,-58,944,-273,-165,-159
3407,164,-55,933,-249,-134,-141
3408,178,-61,957,-158,-110,-139
3409,177,-60,945,-111,-143,-135
3410,194,-59,957,-132,-118,-147
3411,188,-44,955,-140,-83,-135
3412,175,-37,929,-128,-79,-116
3413,179,-39,957,-115,-44,-73
3414,181,-33,950,-95,-32,-28
3415,193,-59,951,-19,-13,21
3416,184,-69,971,108,-15,46
3417,170,-73,978,130,23,48
3418,167,-64,1005,85,112,23
3419,155,-74,1027,-25,132,-20
3420,149,-72,1029,-154,103,-75
3421,163,-66,1038,-273,62,-114
3422,176,-83,1011,-302,-9,-118
3423,164,-69,998,-201,-85,-98
3424,159,-38,980,-76,-85,-44
3425,171,-60,987,149,-100,48
3426,158,-63,990,294,-159,89
3427,160,-66,976,280,-143,91
3428,174,-83,973,147,-36,35
3429,171,-92,978,-15,26,-57
3430,148,-72,979,-158,52,-126
3431,165,-63,990,-202,101,-141
3432,158,-60,989,-134,71,-133
3433,161,-40,1012,-36,-9,-73
3434,177,-40,1030,165,-97,7
3435,162,-56,1013,329,-200,91
3436,166,-57,998,389,-288,117
3437,149,-53,982,315,-241,81
3438,170,-73,1009,120,-128,25
3439,162,-76,989,-105,-50,-92
3440,170,-64,980,-275,-3,-155
3441,194,-79,984,-320,13,-167
3442,184,-74,980,-150,-42,-149
3443,179,-56,947,55,-110,-104
3444,183,-52,951,169,-116,-79
3445,183,-55,969,217,-108,-57
3446,196,-33,971,178,-102,-44
3447,192,-20,992,122,-85,-20
3448,194,-36,987,42,-58,-4
3449,192,-37,965,-34,-63,-18
3450,177,-40,943,-91,-100,-30
3451,185,-54,954,-159,-104,-26
3452,185,-36,946,-85,-83,-32
3453,172,-26,945,71,-87,-6
3454,182,-27,926,223,-106,50
3455,195,-37,914,298,-118,74
3456,188,-44,882,319,-171,60
3457,168,-14,879,315,-212,13
3458,186,-21,843,247,-198,-1
3459,202,-34,827,108,-204,-57
3460,194,-45,779,-85,-245,-163
3461,194,-26,745,-288,-243,-254
3462,183,5,688,-286,-241,-270
3463,173,18,642,-107,-286,-239
3464,144,1,557,-58,-335,-225
3465,141,-6,485,-181,-292,-276
3466,133,-28,379,-521,-220,-389
3467,178,-66,315,-1029,-163,-534
3468,225,-94,244,-1505,-48,-688
3469,251,-82,173,-1747,161,-782
3470,263,-13,152,-1663,462,-745
3471,278,36,154,-1052,817,-469
3472,260,79,174,-259,1067,-124
3473,223,107,180,378,1359,236
3474,162,81,188,710,1696,497
3475,154,26,206,643,2235,636
3476,126,-31,259,329,2843,718
3477,48,-88,255,135,3300,718
3478,-26,-134,323,180,3659,644
3479,-87,-98,391,442,4030,566
3480,-171,-42,495,878,4382,497
3481,-251,-47,599,1188,4556,437
3482,-272,-47,724,1128,4810,361
3483,-264,-84,770,671,5087,306
3484,-235,-152,825,67,5163,193
3485,-214,-178,895,-292,5091,117
3486,-267,-101,971,157,4821,91
3487,-344,-9,1090,1094,4505,167
3488,-448,66,1239,2032,4384,339
3489,-496,36,1367,2667,4495,392
3490,-470,13,1527,2341,4679,439
3491,-524,-27,1684,1411,4710,386
3492,-542,-61,1809,442,4468,140
3493,-551,-33,1879,-347,4067,-128
3494,-624,74,1959,-693,3515,-280
3495,-670,113,1962,-576,2866,-225
3496,-695,104,1930,-308,2194,-18
3497,-704,34,1864,-128,1665,150
3498,-678,-31,1750,-204,1390,292
3499,-637,-119,1666,-529,1218,261
3500,-629,-102,1617,-798,1009,117
3501,-628,-65,1569,-896,884,9
3502,-629,-8,1534,-718,737,42
3503,-614,-22,1530,-492,476,177
3504,-640,-17,1481,-376,214,162
3505,-595,-8,1403,-595,25,21
3506,-572,21,1307,-980,-95,-47
3507,-504,14,1258,-1173,-173,-104
3508,-425,33,1170,-1117,-265,-108
3509,-418,69,1116,-818,-421,-53
3510,-402,81,1052,-462,-391,42
3511,-378,109,1030,-163,-272,124
3512,-392,160,1050,32,-100,189
3513,-378,189,1085,32,103,249
3514,-389,234,1113,-87,249,331
3515,-333,226,1149,-441,243,443
3516,-314,177,1138,-773,-1,439
3517,-284,216,1068,-900,-300,521
3518,-307,230,1022,-837,-477,599
3519,-310,237,983,-691,-548,828
3520,-304,220,944,-470,-511,960
3521,-321,255,954,-318,-382,1046
3522,-312,260,966,-443,-247,1177
3523,-310,210,1004,-609,-143,1298
3524,-313,206,1025,-704,-147,1333
3525,-330,218,1036,-779,-243,1374
3526,-331,233,1056,-822,-362,1386
3527,-364,271,1076,-888,-464,1414
3528,-378,284,1041,-900,-579,1501
3529,-345,247,999,-851,-694,1634
3530,-380,209,935,-800,-870,1753
3531,-378,165,894,-820,-850,1949
3532,-385,93,887,-728,-782,2048
3533,-405,71,882,-595,-755,2173
3534,-455,6,884,-378,-712,2283
3535,-455,-77,912,-320,-595,2312
3536,-475,-112,944,-538,-479,2240
3537,-459,-173,956,-835,-477,2189
3538,-431,-279,940,-904,-550,2138
3539,-445,-349,875,-997,-755,2070
3540,-446,-418,785,-1050,-835,2003
3541,-480,-470,725,-902,-649,1937
3542,-484,-528,722,-681,-323,1865
3543,-486,-552,734,-501,67,1697
3544,-504,-535,825,-427,489,1537
3545,-478,-508,904,-283,710,1427
3546,-455,-498,970,-130,700,1355
3547,-436,-475,1015,-9,480,1265
3548,-434,-439,1046,-5,132,1164
3549,-420,-443,1022,-91,-274,1072
3550,-400,-433,944,-159,-581,908
3551,-416,-410,898,-210,-636,738
3552,-399,-397,875,-220,-487,597
3553,-379,-404,839,-269,-306,468
3554,-406,-353,849,-294,-132,331
3555,-375,-291,901,-214,52,240
3556,-348,-257,960,-99,112,210
3557,-343,-216,1007,-48,54,181
3558,-338,-184,1024,-146,-77,185
3559,-303,-167,1015,-232,-274,218
3560,-318,-193,940,-50,-479,263
3561,-333,-206,901,63,-585,292
3562,-342,-215,870,149,-503,257
3563,-350,-191,854,198,-243,193
3564,-367,-163,887,237,40,171
3565,-359,-125,950,249,249,162
3566,-340,-113,989,204,337,167
3567,-324,-125,998,40,253,152
3568,-314,-151,975,-224,103,81
3569,-317,-135,969,-367,-24,-1
3570,-300,-111,932,-347,-91,-18
3571,-301,-121,933,-128,-132,7
3572,-314,-115,928,53,-116,21
3573,-298,-103,920,130,-24,11
3574,-311,-83,945,178,75,9
3575,-309,-70,942,235,151,87
3576,-302,-90,982,249,148,181
3577,-300,-87,986,270,126,146
3578,-320,-92,977,132,73,107
3579,-316,-99,1000,-87,56,35
3580,-317,-80,1009,-271,54,-55
3581,-325,-66,1000,-265,-18,-51
3582,-322,-76,973,-122,-112,15
3583,-332,-109,937,57,-140,58
3584,-340,-115,930,143,-93,66
3585,-324,-105,922,120,-15,78
3586,-326,-103,952,128,62,66
3587,-320,-94,968,116,87,54
3588,-329,-91,969,71,48,42
3589,-337,-89,959,51,32,21
3590,-344,-96,965,10,34,-18
3591,-347,-101,960,-83,69,-79
3592,-336,-97,978,-189,103,-129
3593,-329,-80,988,-208,107,-155
3594,-332,-63,988,-46,30,-116
3595,-329,-70,983,118,-65,-34
3596,-327,-77,953,219,-85,-10
3597,-324,-104,941,212,-73,-26
3598,-326,-89,949,147,-67,-69
3599,-323,-79,954,120,-24,-116
3600,-323,-65,958,145,15,-186
3601,-333,-58,980,51,11,-163
3602,-327,-38,980,-29,36,-106
3603,-318,-55,992,-34,5,-30
3604,-313,-53,984,116,-69,46
3605,-314,-76,970,214,-149,85
3606,-334,-71,944,174,-143,85
3607,-335,-98,946,48,-56,37
3608,-339,-95,956,-62,32,-30
3609,-333,-100,955,-76,64,-61
3610,-318,-117,962,-27,52,-96
3611,-319,-102,956,-21,13,-147
3612,-336,-73,971,46,5,-192
3613,-329,-91,987,26,-20,-151
3614,-340,-105,991,69,-81,-149
3615,-342,-66,993,212,-206,-190
3616,-350,-55,976,155,-308,-85
3617,-348,-92,952,202,-268,-65
3618,-319,-115,954,126,-186,-129
3619,-319,-131,931,20,-132,-264
3620,-324,-115,936,-97,-89,-352
3621,-319,-117,963,-113,-48,-420
3622,-310,-73,961,-99,-97,-442
3623,-320,-46,965,7,-167,-311
3624,-302,-50,969,132,-181,-192
3625,-292,-66,985,327,-257,-112
3626,-304,-77,984,436,-352,-79
3627,-304,-101,968,454,-356,-178
3628,-292,-102,942,264,-296,-301
3629,-279,-114,948,59,-216,-475
3630,-290,-90,933,-34,-134,-647
3631,-283,-92,949,-62,-100,-723
3632,-302,-99,963,3,-114,-811
3633,-304,-87,980,32,-97,-801
3634,-324,-99,969,305,-161,-860
3635,-306,-16,974,430,-222,-719
3636,-309,-66,988,518,-155,-674
3637,-313,-2,983,397,-104,-456
3638,-294,-6,999,221,-59,-270
3639,-285,-42,992,32,-56,-79
3640,-279,-74,986,61,-83,-59
3641,-307,-82,974,83,-153,-94
3642,-306,-91,964,143,-141,-180
3643,-302,-99,967,147,-120,-219
3644,-296,-113,959,219,-69,-288
3645,-313,-95,992,217,-40,-352
3646,-278,-69,991,233,-15,-379
3647,-304,-55,1018,337,-40,-413
3648,-299,-23,1026,161,-61,-274
3649,-295,-30,1027,130,-54,-219
3650,-282,-40,1022,-21,-108,-202
3651,-289,-41,1007,-126,-184,-194
3652,-291,-60,999,-122,-257,-124
3653,-286,-64,959,53,-276,-128
3654,-287,-71,967,157,-272,-67
3655,-287,-79,965,219,-225,-44
3656,-291,-83,985,190,-175,-44
3657,-282,-83,973,180,-143,-83
3658,-280,-79,977,126,-134,-126
3659,-271,-67,972,96,-124,-227
3660,-273,-44,970,-25,-128,-239
3661,-266,-56,996,-48,-120,-278
3662,-258,-58,995,-1,-202,-303
3663,-267,-59,987,173,-309,-346
3664,-281,-74,974,346,-368,-403
3665,-278,-86,976,358,-347,-508
3666,-266,-90,956,280,-296,-661
3667,-262,-66,938,186,-251,-795
3668,-288,-57,970,61,-233,-889
3669,-257,2,966,3,-198,-805
3670,-284,5,1003,-36,-235,-659
3671,-274,26,985,-54,-196,-319
3672,-248,-5,988,1,-206,-73
3673,-240,-42,960,186,-224,21
3674,-251,-62,972,298,-229,25
3675,-253,-58,944,258,-169,5
3676,-256,-58,965,118,-65,-6
3677,-253,-37,968,-17,48,-14
3678,-258,-36,991,-128,67,25
3679,-253,-28,986,-91,38,103
3680,-258,-41,995,7,-18,158
3681,-253,-50,987,132,-69,193
3682,-255,-70,963,157,-95,193
3683,-256,-98,954,63,-77,158
3684,-265,-83,956,-40,-36,85
3685,-266,-82,958,-76,25,42
3686,-267,-67,956,-77,73,35
3687,-262,-57,1002,-97,110,78
3688,-277,-53,1021,-40,73,115
3689,-273,-47,1025,-34,25,214
3690,-271,-80,1016,-25,-32,283
3691,-250,-118,1042,-31,-91,261
3692,-246,-131,1011,-64,-157,99
3693,-263,-133,969,-115,-190,-53
3694,-270,-107,968,-95,-106,-153
3695,-260,-74,972,-70,15,-163
3696,-280,-47,1010,8,95,-96
3697,-263,-60,1015,53,120,31
3698,-270,-82,1048,135,79,56
3699,-276,-80,1040,130,-3,31
3700,-275,-80,1030,49,-91,5
3701,-279,-80,1037,-11,-175,-10
3702,-269,-83,995,-33,-239,-30
3703,-274,-90,986,-60,-270,-45
3704,-258,-115,963,-79,-251,-65
3705,-248,-99,943,-21,-179,-137
3706,-258,-80,942,38,-83,-165
3707,-249,-48,955,87,34,-131
3708,-240,-26,1021,143,73,-79
3709,-226,-19,1030,219,-1,13
3710,-239,-24,1028,272,-151,78
3711,-234,-50,1010,219,-241,124
3712,-246,-60,969,63,-286,152
3713,-245,-97,956,-118,-210,93
3714,-244,-113,953,-226,-136,-61
3715,-264,-90,951,-218,-52,-198
3716,-261,-68,960,-230,38,-235
3717,-248,-56,996,-165,67,-200
3718,-248,-35,1000,-29,30,-139
3719,-232,-33,999,85,-34,-51
3720,-238,-42,1013,141,-106,25
3721,-241,-47,1004,128,-147,35
3722,-237,-59,1000,7,-134,13
3723,-250,-54,975,-154,-114,33
3724,-241,-105,979,-238,-81,15
3725,-247,-125,970,-111,-20,-75
3726,-266,-109,963,-9,21,-122
3727,-253,-93,1007,44,71,-137
3728,-261,-62,1059,149,42,-100
3729,-258,-56,1076,307,-50,-32
3730,-246,-60,1080,419,-167,29
3731,-259,-75,1045,423,-268,31
3732,-253,-94,1035,233,-296,3
3733,-249,-99,1021,1,-263,-94
3734,-250,-99,992,-142,-188,-159
3735,-233,-91,993,-159,-110,-196
3736,-253,-90,994,-48,-65,-213
3737,-247,-71,1001,96,-52,-198
3738,-235,-64,1028,169,-79,-128
3739,-234,-64,1027,255,-151,-96
3740,-233,-56,1028,276,-222,-83
3741,-239,-67,1010,233,-266,-90
3742,-231,-59,1006,137,-280,-116
3743,-229,-63,975,18,-249,-155
3744,-227,-70,983,-115,-184,-184
3745,-229,-79,979,-146,-130,-219
3746,-234,-83,984,-142,-83,-253
3747,-233,-70,998,-70,-75,-239
3748,-234,-72,986,55,-99,-213
3749,-239,-58,1003,217,-134,-176
3750,-236,-55,998,294,-196,-157
3751,-221,-70,1001,247,-241,-174
3752,-226,-53,981,128,-257,-219
3753,-221,-51,974,-33,-220,-251
3754,-230,-36,969,-167,-134,-249
3755,-220,-34,981,-222,-65,-223
3756,-224,-46,963,-113,-16,-190
3757,-241,-68,974,8,-3,-145
3758,-193,-58,980,94,21,-88
3759,-227,-72,990,165,-28,-106
3760,-217,-58,1002,143,-36,-114
3761,-218,-64,1000,77,-38,-157
3762,-227,-65,1000,-5,-67,-211
3763,-228,-64,999,-38,-95,-258
3764,-219,-57,1010,-117,-104,-264
3765,-227,-45,995,-134,-128,-253
3766,-200,-45,1005,-122,-116,-188
3767,-203,-70,988,-1,-143,-145
3768,-219,-81,977,153,-149,-118
3769,-210,-91,965,290,-126,-112
3770,-207,-80,982,341,-87,-118
