sequence,AccelerometerX,AccelerometerY,AccelerometerZ,GyroscopeX,GyroscopeY,GyroscopeZ
0,-163,-135,1030,143,112,-126
1,-175,-125,1022,85,32,-157
2,-169,-105,1045,-31,-65,-112
3,-180,-117,1064,-58,-171,-71
4,-190,-128,1033,-9,-261,-85
5,-178,-126,995,-31,-286,-85
6,-183,-123,989,-99,-235,-92
7,-178,-120,976,-138,-140,-90
8,-172,-121,961,-169,-52,-114
9,-159,-118,960,-154,3,-126
10,-178,-94,978,-103,40,-96
11,-155,-88,1007,-42,67,-47
12,-167,-100,1019,42,19,-22
13,-161,-108,1013,118,-69,-8
14,-169,-104,1002,118,-147,5
15,-165,-97,1000,73,-149,21
16,-176,-103,980,16,-120,23
17,-157,-116,976,-97,-87,44
18,-163,-117,981,-169,-58,37
19,-171,-131,974,-152,-3,-12
20,-155,-133,970,-101,69,-69
21,-154,-112,988,-91,112,-92
22,-163,-103,1033,-72,89,-42
23,-153,-84,1037,24,21,-6
24,-154,-95,1047,98,-89,13
25,-166,-113,1045,110,-200,29
26,-180,-127,1011,49,-266,42
27,-187,-129,972,-31,-222,48
28,-164,-146,959,-97,-122,33
29,-180,-135,950,-150,-7,-14
30,-178,-127,962,-185,91,-20
31,-158,-136,972,-171,171,11
32,-162,-126,987,-111,175,21
33,-156,-122,1004,-21,116,42
34,-168,-133,1021,77,-7,70
35,-168,-140,1015,114,-155,85
36,-187,-161,1000,153,-231,58
37,-188,-158,981,141,-233,42
38,-177,-167,982,59,-163,-4
39,-169,-157,973,-23,-30,-65
40,-164,-142,975,-87,110,-108
41,-161,-127,990,-105,175,-128
42,-165,-111,1002,-58,218,-126
43,-163,-95,1050,46,204,-34
44,-148,-104,1062,137,85,68
45,-145,-136,1064,153,-99,70
46,-158,-125,1045,100,-245,44
47,-161,-149,1021,-29,-345,31
48,-176,-157,978,-142,-347,-10
49,-168,-150,947,-206,-198,-61
50,-170,-147,935,-199,-5,-122
51,-154,-132,946,-177,155,-116
52,-154,-121,969,-99,265,-108
53,-166,-110,993,7,304,-83
54,-170,-117,1043,91,259,-20
55,-153,-126,1028,120,157,35
56,-159,-134,1027,114,-16,37
57,-160,-136,1003,69,-155,42
58,-162,-137,987,16,-214,21
59,-151,-139,976,-60,-200,-1
60,-164,-127,975,-66,-151,-44
61,-177,-118,975,-40,-65,-38
62,-170,-131,978,-9,46,11
63,-165,-142,997,8,134,-8
64,-155,-129,1017,20,138,-12
65,-154,-131,1035,18,67,21
66,-161,-130,1046,24,-40,37
67,-165,-138,1047,14,-143,29
68,-163,-140,1016,-19,-216,-4
69,-165,-137,993,-70,-247,-12
70,-169,-144,994,-154,-218,-12
71,-169,-144,951,-179,-149,-40
72,-163,-143,929,-156,-48,-92
73,-163,-128,969,-126,69,-112
74,-145,-117,998,-56,150,-47
75,-152,-105,1036,65,155,39
76,-159,-115,1040,145,91,111
77,-145,-123,1040,143,-11,150
78,-158,-149,1030,96,-99,115
79,-155,-166,1003,-38,-194,52
80,-154,-167,971,-259,-276,-12
81,-165,-158,944,-476,-280,-71
82,-180,-164,927,-574,-179,-116
83,-166,-166,917,-488,50,-149
84,-151,-149,963,-392,243,-112
85,-145,-131,1001,-208,304,-55
86,-155,-147,1030,-89,243,46
87,-156,-140,1065,89,167,76
88,-158,-168,1057,73,38,76
89,-152,-171,1010,-5,-112,33
90,-161,-182,1005,-77,-196,-38
91,-170,-173,990,-146,-181,-96
92,-175,-170,955,-216,-128,-129
93,-177,-157,962,-206,-20,-114
94,-160,-146,971,-117,95,-96
95,-152,-143,987,-19,128,-22
96,-139,-152,1005,67,109,17
97,-145,-129,1009,139,56,31
98,-145,-133,1034,155,-18,87
99,-150,-154,1020,110,-108,121
100,-152,-162,978,32,-151,87
101,-159,-174,962,-70,-155,11
102,-161,-171,949,-144,-95,-77
103,-148,-162,947,-171,9,-98
104,-162,-160,977,-136,79,-100
105,-170,-133,984,-29,136,-83
106,-160,-125,1024,106,163,3
107,-154,-140,1055,225,83,48
108,-157,-135,1033,229,-40,74
109,-150,-145,1024,192,-155,74
110,-148,-152,1006,85,-249,64
111,-155,-156,979,-42,-274,9
112,-158,-154,950,-138,-233,-73
113,-176,-156,937,-183,-138,-139
114,-166,-135,952,-150,15,-188
115,-157,-119,981,-95,150,-172
116,-151,-110,1006,-29,196,-63
117,-138,-132,1030,51,150,33
118,-137,-129,1032,116,66,33
119,-133,-135,1020,94,-36,29
120,-144,-137,992,18,-102,15
121,-145,-143,964,-70,-95,-8
122,-153,-139,960,-171,-44,-24
123,-157,-146,964,-189,34,-34
124,-154,-143,969,-122,110,-30
125,-177,-136,999,-36,167,21
126,-150,-139,1012,81,181,107
127,-147,-158,1041,216,120,140
128,-155,-163,1039,255,-3,111
129,-155,-176,1040,178,-85,64
130,-158,-175,1010,42,-136,-1
131,-148,-172,979,-132,-167,-40
132,-163,-160,960,-228,-149,-59
133,-167,-159,969,-210,-97,-45
134,-176,-148,966,-85,-3,-40
135,-164,-151,1000,36,77,-4
136,-168,-143,995,102,130,1
137,-155,-152,999,102,140,46
138,-149,-160,1032,81,103,52
139,-147,-153,1031,61,5,37
140,-145,-151,1012,44,-77,9
141,-148,-149,976,28,-104,-4
142,-155,-142,986,3,-87,-8
143,-154,-152,994,-42,-38,-24
144,-166,-142,986,-81,17,-36
145,-158,-132,1002,-58,69,7
146,-160,-137,1016,22,107,95
147,-146,-160,1031,110,75,136
148,-156,-172,1021,163,7,99
149,-161,-175,1014,104,-75,70
150,-162,-176,1006,-25,-116,52
151,-153,-176,983,-138,-102,33
152,-155,-178,983,-181,-93,-28
153,-155,-168,972,-191,-65,-69
154,-169,-151,965,-195,-38,-71
155,-156,-156,978,-159,-3,-20
156,-148,-153,998,-64,7,33
157,-148,-168,979,20,-20,119
158,-149,-183,993,73,-30,134
159,-155,-196,977,87,-20,93
160,-149,-203,981,10,-15,48
161,-144,-200,958,-44,-11,-55
162,-152,-188,966,-68,26,-126
163,-156,-168,982,-83,64,-147
164,-166,-154,1006,-79,81,-116
165,-147,-146,1036,-19,62,-55
166,-150,-151,1035,77,-20,-8
167,-145,-156,1028,151,-108,-4
168,-145,-152,1008,143,-163,7
169,-149,-167,990,46,-184,42
170,-139,-174,969,-7,-140,-6
171,-143,-161,960,-48,-54,-63
172,-160,-155,961,-56,46,-98
173,-151,-152,993,-48,157,-104
174,-147,-157,1023,-33,210,-83
175,-153,-125,1036,30,175,-88
176,-161,-114,1061,100,93,29
177,-137,-144,1063,180,-52,74
178,-138,-147,1029,212,-196,35
179,-157,-151,993,143,-286,13
180,-152,-149,961,42,-235,7
181,-164,-163,945,-44,-120,-30
182,-159,-156,962,-93,19,-73
183,-153,-146,967,-117,132,-86
184,-164,-127,986,-79,177,-69
185,-149,-128,1013,-3,167,11
186,-144,-134,1030,102,66,50
187,-148,-153,1026,155,-81,44
188,-162,-153,1003,126,-179,46
189,-158,-158,984,89,-163,35
190,-147,-154,963,8,-106,17
191,-156,-160,956,-60,-34,-12
192,-161,-159,956,-68,81,-44
193,-150,-144,988,-52,171,-28
194,-155,-138,994,-44,177,5
195,-148,-143,1014,-29,132,21
196,-150,-140,1030,8,54,39
197,-141,-158,1034,42,-30,58
198,-149,-155,993,51,-87,42
199,-145,-161,979,34,-106,23
200,-144,-163,971,-7,-73,-8
201,-153,-165,977,-54,-34,-45
202,-152,-157,971,-91,15,-79
203,-171,-123,991,-74,79,-36
204,-155,-129,1013,-3,107,64
205,-151,-153,1025,100,69,68
206,-151,-156,1025,137,-28,50
207,-157,-177,999,122,-89,17
208,-157,-168,974,46,-102,-4
209,-157,-163,966,-33,-79,-40
210,-168,-166,945,-56,-18,-71
211,-162,-156,965,-58,69,-90
212,-155,-159,946,-50,153,-122
213,-154,-137,973,-74,177,-124
214,-148,-133,998,-68,192,-98
215,-145,-124,1023,-50,146,-18
216,-140,-133,1022,5,21,44
217,-140,-143,1001,83,-83,29
218,-157,-157,984,128,-122,9
219,-157,-169,970,89,-83,-6
220,-164,-179,948,7,-1,-32
221,-157,-158,966,-56,107,-45
222,-154,-155,994,-46,189,-44
223,-156,-149,1013,8,206,-36
224,-159,-146,1015,75,181,-30
225,-155,-159,1029,98,118,-30
226,-160,-156,1025,63,48,-36
227,-153,-157,1028,-29,-1,-44
228,-151,-166,990,-93,-20,-38
229,-155,-159,987,-83,-26,-40
230,-163,-150,980,-36,9,-44
231,-160,-158,969,14,62,-34
232,-160,-163,974,49,101,-34
233,-174,-164,985,55,134,-51
234,-168,-151,1002,57,171,-32
235,-162,-153,1021,36,140,7
236,-160,-144,1018,22,73,39
237,-146,-161,1012,14,3,39
238,-158,-171,981,5,-63,35
239,-167,-169,958,16,-67,13
240,-162,-173,952,-1,-18,-8
241,-164,-180,953,-9,60,-55
242,-163,-176,974,-11,138,-77
243,-168,-159,999,-7,192,-106
244,-171,-137,1015,30,210,-59
245,-162,-156,1061,91,165,46
246,-154,-169,1063,157,54,54
247,-172,-172,1014,147,-93,11
248,-172,-167,1002,79,-171,-8
249,-161,-171,962,20,-141,-36
250,-176,-162,960,-46,-54,-69
251,-173,-152,954,-83,71,-86
252,-172,-157,983,-77,179,-90
253,-168,-144,1023,-23,226,-51
254,-169,-128,1046,57,192,-12
255,-167,-140,1049,120,95,66
256,-168,-164,1039,165,-24,78
257,-171,-178,1037,178,-126,29
258,-174,-182,1002,106,-188,-6
259,-173,-157,982,16,-165,-55
260,-174,-166,957,-76,-99,-90
261,-171,-169,965,-115,-18,-128
262,-173,-161,945,-101,54,-141
263,-178,-132,991,-56,101,-118
264,-163,-140,1002,24,95,-51
265,-162,-153,1025,92,26,-34
266,-162,-160,1021,108,-69,-51
267,-161,-171,988,53,-132,-69
268,-156,-153,986,-15,-161,-86
269,-166,-160,952,-56,-149,-108
270,-164,-156,936,-66,-71,-116
271,-160,-152,931,-68,34,-135
272,-162,-139,961,-83,128,-137
273,-154,-128,981,-99,183,-59
274,-150,-136,996,-34,189,-14
275,-147,-130,1040,69,126,27
276,-157,-146,1024,143,15,35
277,-160,-156,1001,169,-69,17
278,-164,-160,986,98,-124,-4
279,-168,-161,957,-15,-112,-38
280,-164,-148,955,-124,-22,-73
281,-157,-149,943,-187,83,-110
282,-161,-141,953,-212,167,-116
283,-166,-136,982,-163,210,-85
284,-164,-131,1016,-118,232,5
285,-153,-157,1037,12,198,52
286,-158,-153,1051,92,62,42
287,-171,-171,1035,59,-71,33
288,-183,-178,1003,-7,-128,17
289,-178,-178,983,-48,-116,-16
290,-178,-177,944,-77,-67,-40
291,-174,-170,943,-77,9,-65
292,-177,-164,940,-56,99,-98
293,-169,-153,966,-40,165,-90
294,-172,-148,993,-13,189,-53
295,-177,-134,1032,32,157,-22
296,-157,-142,1029,71,79,39
297,-171,-163,1015,118,-9,42
298,-158,-153,998,108,-73,1
299,-163,-154,989,46,-100,-14
300,-174,-157,963,-44,-40,-24
301,-163,-157,949,-95,32,-53
302,-164,-159,962,-103,83,-65
303,-183,-143,1000,-66,134,-51
304,-179,-139,1001,1,153,21
305,-168,-156,1015,59,110,48
306,-169,-149,1025,79,17,68
307,-162,-161,1004,65,-54,68
308,-170,-177,979,34,-83,50
309,-175,-184,971,-17,-65,11
310,-165,-179,945,-79,-13,-40
311,-177,-165,952,-134,62,-71
312,-175,-157,981,-144,132,-77
313,-166,-150,981,-85,177,-61
314,-164,-150,1020,-11,171,-47
315,-171,-144,1022,32,128,-20
316,-185,-133,1019,59,67,54
317,-173,-163,1033,102,26,85
318,-180,-172,1000,112,-24,64
319,-179,-182,1000,48,-61,39
320,-194,-179,992,-42,-32,13
321,-180,-173,983,-93,25,-8
322,-190,-166,972,-107,48,-1
323,-189,-166,982,-44,54,-6
324,-178,-167,984,36,42,-30
325,-176,-154,994,69,5,-34
326,-183,-162,1000,71,5,-4
327,-172,-162,995,36,-9,-28
328,-165,-149,964,-13,-30,-38
329,-178,-153,980,-46,-30,-32
330,-178,-156,987,-34,21,-36
331,-166,-157,976,-38,60,-38
332,-188,-149,994,-48,83,-32
333,-187,-152,996,-42,97,15
334,-180,-147,1007,18,91,31
335,-165,-160,1009,75,34,29
336,-178,-170,1011,73,-42,11
337,-179,-169,988,26,-95,-10
338,-181,-162,990,-19,-93,-28
339,-182,-170,982,-44,-54,-51
340,-180,-157,966,-46,-24,-55
341,-196,-149,955,-1,36,-55
342,-185,-138,973,46,77,-14
343,-166,-157,1002,100,93,27
344,-180,-157,1014,128,64,13
345,-179,-154,1023,94,13,7
346,-178,-164,1009,51,-15,-1
347,-181,-166,987,-9,-24,-24
348,-186,-165,969,-58,-16,-47
349,-191,-162,961,-76,13,-73
350,-178,-159,983,-68,67,-100
351,-196,-153,984,-83,99,-79
352,-186,-144,992,-77,114,-67
353,-176,-137,1001,-29,103,-1
354,-161,-161,1013,63,38,48
355,-167,-166,1001,157,-28,33
356,-179,-164,993,135,-71,42
357,-178,-177,964,69,-38,29
358,-177,-158,975,-31,42,9
359,-166,-159,972,-95,99,3
360,-169,-163,975,-74,134,-32
361,-183,-151,974,-40,134,-30
362,-171,-159,998,-13,140,-1
363,-179,-161,995,-5,122,1
364,-184,-166,1013,-27,73,-1
365,-187,-173,998,-21,19,-1
366,-183,-178,972,16,-18,-8
367,-189,-186,957,38,-40,-38
368,-197,-178,942,18,-40,-73
369,-183,-175,936,-40,9,-106
370,-197,-175,937,-111,75,-145
371,-194,-146,949,-218,163,-153
372,-174,-169,945,-298,206,-110
373,-171,-180,947,-349,206,-139
374,-181,-173,949,-326,171,-129
375,-183,-172,959,-210,175,-120
376,-180,-171,956,-93,181,-102
377,-184,-180,958,-46,196,-96
378,-173,-181,969,-113,192,-122
379,-177,-176,967,-236,210,-145
380,-178,-165,967,-335,239,-159
381,-189,-164,970,-390,253,-147
382,-185,-175,993,-390,253,-131
383,-194,-181,990,-308,257,-133
384,-195,-188,996,-232,253,-110
385,-196,-199,1000,-197,265,-83
386,-209,-201,1011,-216,265,-67
387,-205,-207,1011,-279,278,-73
388,-203,-205,1020,-327,308,-112
389,-198,-215,1019,-374,317,-114
390,-199,-223,1029,-361,314,-124
391,-204,-234,1049,-316,321,-157
392,-211,-214,1074,-238,335,-169
393,-211,-199,1111,-146,347,-108
394,-197,-185,1172,87,370,-44
395,-204,-189,1248,356,362,29
396,-216,-216,1310,524,323,74
397,-222,-239,1376,456,259,80
398,-210,-259,1451,257,167,42
399,-204,-246,1540,-33,46,3
400,-203,-260,1613,-201,-102,23
401,-229,-246,1680,-111,-319,109
402,-296,-278,1765,426,-634,289
403,-341,-330,1820,1073,-1007,447
404,-365,-400,1852,1573,-1417,533
405,-404,-448,1893,1770,-1862,511
406,-423,-507,1852,1665,-2282,429
407,-444,-518,1818,1247,-2645,263
408,-462,-532,1753,788,-2946,39
409,-430,-526,1673,344,-3165,-202
410,-433,-484,1611,128,-3360,-387
411,-390,-462,1560,276,-3542,-514
412,-375,-423,1519,620,-3780,-649
413,-365,-389,1481,1014,-4038,-739
414,-353,-368,1419,1270,-4263,-788
415,-347,-348,1313,1319,-4405,-811
416,-312,-342,1236,1079,-4477,-864
417,-312,-303,1188,839,-4489,-942
418,-274,-241,1111,639,-4534,-942
419,-194,-216,1028,526,-4569,-876
420,-186,-147,948,505,-4591,-917
421,-149,-103,893,573,-4647,-897
422,-95,-90,789,676,-4759,-864
423,-50,-80,689,772,-4823,-823
424,-2,-82,556,921,-4770,-854
425,6,-43,467,1077,-4558,-952
426,42,-20,354,1110,-4179,-1016
427,145,282,640,1016,-3653,-1010
428,154,88,262,1034,-3134,-1047
429,197,181,293,829,-2845,-999
430,216,257,285,778,-2516,-563
431,332,235,303,799,-2263,-243
432,336,250,307,1059,-2071,-143
433,374,214,327,1298,-2003,-65
434,378,187,337,1583,-1944,-10
435,357,185,337,1712,-1774,5
436,363,161,348,1577,-1419,-1
437,366,153,384,1309,-995,-131
438,340,219,426,905,-595,-221
439,376,249,472,372,-298,23
440,430,183,522,44,-143,175
441,421,166,540,-31,-138,146
442,402,171,569,-77,-149,76
443,433,189,592,-81,-122,-30
444,442,202,607,-122,-50,-126
445,435,229,623,-228,17,-188
446,441,282,654,-367,107,-266
447,460,347,677,-353,189,-221
448,467,387,675,-81,185,-86
449,440,444,679,155,112,167
450,438,472,713,346,124,458
451,439,457,725,479,191,640
452,468,473,748,493,220,724
453,484,512,782,421,173,775
454,475,583,803,385,120,878
455,477,617,778,346,114,1099
456,472,623,763,374,103,1302
457,443,677,802,557,73,1601
458,411,691,808,809,69,1902
459,393,644,782,967,91,2230
460,368,586,751,952,124,2425
461,351,552,738,725,230,2527
462,325,545,705,395,366,2667
463,315,499,700,225,460,2830
464,289,435,673,309,513,2935
465,272,422,625,368,513,3044
466,244,389,634,417,556,3179
467,208,341,583,424,636,3324
468,184,295,525,374,706,3494
469,193,195,492,321,788,3630
470,195,95,435,237,929,3671
471,186,41,416,153,1085,3648
472,122,-48,403,231,1276,3634
473,100,-121,404,385,1485,3527
474,58,-193,391,507,1661,3382
475,43,-253,410,553,1845,3246
476,41,-315,429,481,2105,3119
477,42,-392,460,303,2394,3085
478,9,-476,498,91,2569,2990
479,14,-550,540,-95,2655,2749
480,-41,-566,575,-103,2663,2507
481,-74,-588,586,22,2554,2251
482,-80,-625,586,-3,2528,2013
483,-20,-636,623,-472,2630,1914
484,-51,-639,647,-831,2917,1841
485,-27,-697,709,-1074,3235,1726
486,-50,-688,808,-1064,3489,1595
487,-107,-719,873,-722,3556,1417
488,-108,-791,921,-370,3462,1249
489,-108,-840,975,-152,3308,999
490,-84,-880,943,-320,3118,710
491,-86,-879,956,-816,2870,417
492,-146,-805,957,-964,2821,218
493,-187,-770,1016,-810,2874,154
494,-280,-764,1062,-261,2927,46
495,-293,-844,1102,464,2872,-157
496,-253,-908,1131,909,2864,-487
497,-235,-921,1105,524,2894,-920
498,-234,-867,1100,-341,2876,-1221
499,-274,-744,1159,-783,2956,-1399
500,-298,-662,1237,-548,3017,-1479
501,-301,-658,1326,81,2944,-1452
502,-366,-643,1413,749,2775,-1518
503,-383,-652,1425,940,2624,-1706
504,-365,-649,1455,532,2517,-2008
505,-315,-606,1441,-165,2290,-2290
506,-322,-557,1409,-726,1946,-2463
507,-357,-488,1403,-790,1544,-2614
508,-384,-410,1367,-374,1261,-2711
509,-403,-326,1361,471,1091,-2563
510,-421,-312,1384,1339,978,-2428
511,-381,-292,1369,1858,1026,-2489
512,-349,-257,1355,1569,1030,-2622
513,-360,-196,1312,760,962,-2727
514,-331,-150,1256,-150,860,-2768
515,-310,-71,1221,-499,737,-2721
516,-300,-49,1163,-294,554,-2606
517,-292,-38,1112,282,413,-2487
518,-297,22,1103,893,482,-2460
519,-291,64,1137,1313,730,-2460
520,-214,98,1147,1296,952,-2389
521,-208,143,1207,1046,1026,-2336
522,-219,178,1280,770,1073,-2419
523,-194,196,1300,292,987,-2374
524,-209,235,1285,-210,700,-2149
525,-213,263,1280,-464,546,-1836
526,-229,242,1267,-238,433,-1651
527,-226,202,1253,8,261,-1463
528,-216,164,1210,198,155,-1301
529,-234,153,1173,227,138,-1247
530,-238,147,1161,49,196,-1235
531,-233,131,1183,-292,228,-1198
532,-213,106,1147,-568,171,-1151
533,-194,81,1104,-728,17,-1083
534,-231,78,1067,-691,-134,-1001
535,-253,106,1051,-466,-173,-823
536,-227,83,1054,5,-138,-581
537,-234,21,1030,495,-108,-469
538,-218,11,1007,626,-75,-417
539,-190,-27,962,467,26,-397
540,-196,-23,944,171,124,-393
541,-193,11,968,-68,226,-370
542,-179,4,979,-85,304,-348
543,-219,23,1023,42,288,-315
544,-213,24,1037,219,241,-180
545,-196,-4,1048,382,177,-108
546,-229,-7,1035,299,48,-38
547,-220,-19,1028,14,-34,42
548,-198,-54,1005,-218,-56,85
549,-195,-79,970,-363,-126,119
550,-204,-108,932,-310,-157,103
551,-225,-128,920,-113,-59,-28
552,-228,-119,921,-38,118,-139
553,-218,-116,942,-130,265,-157
554,-218,-86,993,-181,335,-141
555,-209,-66,992,-64,364,-81
556,-201,-84,1049,106,306,-6
557,-213,-109,1049,149,185,76
558,-224,-157,1045,71,69,87
559,-230,-170,1040,-3,3,76
560,-235,-187,1015,-5,-15,29
561,-257,-196,1009,-56,15,-57
562,-248,-220,996,-179,97,-133
563,-237,-215,995,-343,150,-223
564,-236,-196,1009,-525,175,-243
565,-224,-177,1016,-554,175,-208
566,-213,-173,1009,-370,122,-172
567,-203,-146,1043,-79,-3,-88
568,-212,-158,1023,327,-114,-28
569,-225,-200,1006,544,-216,23
570,-234,-213,975,473,-214,-12
571,-215,-233,976,212,-118,-102
572,-220,-212,962,-89,-36,-210
573,-222,-169,982,-296,15,-233
574,-213,-147,989,-288,19,-229
575,-199,-133,992,-187,-65,-151
576,-207,-128,1000,24,-169,-98
577,-182,-137,972,225,-259,-28
578,-177,-144,939,380,-335,-16
579,-171,-159,921,344,-345,-36
580,-180,-165,904,165,-235,-85
581,-183,-154,889,-95,-42,-135
582,-176,-149,904,-310,175,-143
583,-183,-152,938,-355,292,-143
584,-189,-144,986,-288,282,-34
585,-185,-135,1020,-9,218,39
586,-191,-154,1025,249,109,85
587,-197,-167,1013,276,-40,115
588,-217,-196,1004,208,-157,97
589,-191,-199,974,108,-179,17
590,-205,-194,944,-97,-143,-55
591,-213,-175,927,-261,-59,-122
592,-197,-161,934,-304,122,-149
593,-183,-158,930,-290,245,-126
594,-186,-131,965,-238,239,-85
595,-195,-103,1009,-27,196,11
596,-194,-123,1031,235,93,128
597,-199,-160,1004,397,-30,164
598,-208,-175,1002,323,-97,111
599,-209,-191,973,49,-83,87
600,-198,-205,954,-218,-20,7
601,-210,-190,941,-357,46,-67
602,-217,-178,961,-343,110,-98
603,-220,-174,989,-224,138,-100
604,-231,-148,1006,-31,107,-36
605,-214,-148,1022,176,60,52
606,-195,-166,1019,337,-3,66
607,-210,-193,1008,323,-95,68
608,-204,-214,1017,208,-165,48
609,-207,-210,974,8,-171,-1
610,-212,-207,967,-156,-141,-83
611,-218,-206,935,-216,-20,-161
612,-220,-195,946,-236,138,-196
613,-221,-182,969,-228,257,-202
614,-226,-131,996,-167,308,-120
615,-189,-138,1038,10,257,31
616,-186,-175,1037,257,116,76
617,-201,-185,1030,333,-36,56
618,-208,-202,1014,178,-83,44
619,-217,-230,992,-46,-69,-14
620,-217,-225,971,-263,-32,-122
621,-208,-218,944,-361,15,-215
622,-220,-193,941,-294,79,-249
623,-207,-177,946,-107,134,-225
624,-219,-165,980,85,148,-170
625,-205,-173,1034,317,112,-116
626,-203,-171,1052,421,30,-120
627,-206,-189,1027,290,-104,-147
628,-217,-191,1010,26,-206,-131
629,-232,-183,979,-109,-196,-169
630,-233,-180,961,-181,-140,-194
631,-228,-172,963,-163,-91,-176
632,-234,-166,966,-19,-42,-141
633,-214,-160,965,163,5,-120
634,-208,-144,961,317,5,-55
635,-185,-145,1017,426,-48,-10
636,-199,-141,996,475,-163,-14
637,-216,-144,991,354,-268,33
638,-213,-164,979,165,-266,9
639,-220,-157,957,-60,-198,-55
640,-203,-149,962,-240,-97,-61
641,-213,-161,949,-216,26,-96
642,-213,-137,975,-113,83,-61
643,-196,-146,1000,14,101,-6
644,-195,-151,1014,159,64,15
645,-199,-141,1022,204,-56,44
646,-210,-138,1005,233,-134,68
647,-197,-162,992,204,-151,54
648,-204,-184,955,91,-155,27
649,-200,-193,933,-109,-118,-28
650,-186,-194,924,-302,-15,-106
651,-196,-180,923,-382,95,-159
652,-185,-143,941,-357,185,-151
653,-190,-129,1000,-132,202,-53
654,-178,-142,1028,214,130,50
655,-186,-153,1016,487,-38,95
656,-198,-169,1005,522,-153,115
657,-195,-189,982,409,-165,70
658,-197,-201,931,104,-141,-10
659,-212,-180,909,-216,-65,-81
660,-194,-160,925,-390,101,-133
661,-193,-164,918,-404,226,-149
662,-203,-132,951,-261,269,-102
663,-193,-120,1002,55,261,-20
664,-188,-115,1007,428,183,72
665,-211,-135,1032,561,62,167
666,-197,-169,1001,446,9,171
667,-197,-202,970,165,-15,109
668,-212,-189,950,-156,-9,5
669,-213,-197,918,-388,75,-67
670,-211,-195,931,-437,196,-128
671,-202,-167,946,-357,265,-155
672,-194,-139,988,-109,275,-118
673,-198,-117,1025,184,237,-38
674,-188,-125,1045,403,136,91
675,-209,-137,1043,485,5,124
676,-200,-151,1027,341,-93,146
677,-202,-163,977,63,-106,107
678,-234,-170,959,-228,-44,60
679,-216,-176,946,-421,79,29
680,-231,-181,945,-380,200,-12
681,-237,-171,983,-218,292,-18
682,-224,-176,986,-15,325,-12
683,-247,-176,1017,159,310,-26
684,-234,-151,1052,196,259,-8
685,-214,-151,1076,71,130,64
686,-208,-162,1047,-34,-28,68
687,-231,-154,1002,-113,-132,37
688,-232,-169,966,-191,-157,46
689,-243,-181,936,-261,-100,42
690,-234,-192,938,-294,-24,35
691,-232,-206,936,-201,48,3
692,-223,-190,948,-76,85,-28
693,-231,-163,959,65,134,-20
694,-208,-152,996,120,157,39
695,-219,-143,1008,173,134,50
696,-208,-164,1015,128,38,48
697,-213,-167,979,42,-56,42
698,-234,-165,962,-44,-87,11
699,-231,-173,935,-134,-59,5
700,-224,-178,922,-128,17,5
701,-211,-196,918,-44,99,-18
702,-209,-194,938,28,161,-47
703,-220,-163,954,141,204,-75
704,-217,-140,985,243,224,-16
705,-202,-140,1009,262,159,91
706,-208,-171,1035,249,60,89
707,-220,-170,989,104,-44,58
708,-216,-199,966,-74,-93,29
709,-238,-192,935,-146,-59,3
710,-218,-188,942,-107,42,-22
711,-232,-192,956,-21,122,-36
712,-243,-190,971,40,155,-51
713,-232,-177,986,44,175,-12
714,-224,-185,1005,38,157,17
715,-221,-178,1010,61,107,-16
716,-217,-173,1029,16,21,-18
717,-212,-184,1033,-29,-26,-10
718,-200,-175,1016,-25,-18,-49
719,-205,-178,1010,-27,7,-73
720,-199,-175,1017,7,64,-67
721,-228,-168,1038,36,107,-42
722,-233,-162,1087,110,112,-1
723,-231,-175,1125,216,109,13
724,-219,-206,1156,198,38,15
725,-206,-225,1182,55,-9,-73
726,-198,-228,1232,-202,-67,-118
727,-193,-239,1278,-324,-99,-163
728,-199,-198,1328,-218,-65,-194
729,-207,-189,1403,8,-67,-141
730,-206,-148,1493,325,-77,-42
731,-246,-135,1596,669,-67,107
732,-283,-161,1688,983,-110,249
733,-328,-233,1757,960,-282,289
734,-325,-308,1794,522,-628,265
735,-340,-339,1800,120,-1050,146
736,-386,-328,1762,-243,-1472,31
737,-425,-306,1734,-296,-1794,-59
738,-433,-285,1733,44,-1934,-128
739,-417,-252,1737,565,-2056,-94
740,-415,-282,1715,977,-2235,-1
741,-442,-289,1714,1161,-2401,42
742,-452,-316,1695,1038,-2552,9
743,-434,-295,1702,637,-2694,-65
744,-443,-301,1659,182,-2866,-170
745,-412,-295,1620,-113,-3069,-225
746,-382,-361,1563,-300,-3327,-311
747,-398,-350,1490,-329,-3552,-461
748,-400,-296,1433,-212,-3702,-526
749,-434,-307,1378,147,-3907,-434
750,-458,-333,1312,630,-4099,-403
751,-453,-313,1268,999,-4272,-354
752,-416,-347,1185,1081,-4458,-350
753,-392,-346,1088,737,-4716,-309
754,-280,-317,962,212,-4944,-354
755,-349,-255,799,280,-5183,-514
756,-249,-257,630,372,-5218,-680
757,-159,-192,481,501,-5069,-768
758,-77,-80,355,727,-4923,-952
759,24,-21,151,938,-4684,-1104
760,91,114,-13,901,-4442,-1057
761,168,196,-141,807,-3907,-827
762,245,223,-226,739,-3200,-581
763,302,246,-253,581,-2427,-282
764,339,205,-213,577,-1749,-12
765,368,179,-151,829,-1083,111
766,377,174,-62,1100,-612,218
767,375,152,40,1290,-286,306
768,382,173,186,1507,-75,396
769,389,176,313,1585,-42,451
770,395,135,402,1428,-208,542
771,388,108,443,1145,-384,480
772,398,89,448,694,-446,322
773,410,93,487,237,-470,181
774,430,122,527,-36,-470,58
775,448,154,574,-38,-462,-16
776,461,197,621,133,-468,-49
777,460,235,649,358,-395,33
778,456,241,720,483,-309,218
779,460,237,803,520,-231,331
780,444,259,846,430,-212,374
781,461,247,868,200,-294,400
782,427,252,873,32,-395,378
783,395,279,882,-99,-487,417
784,383,286,816,-189,-474,519
785,371,358,811,-175,-308,613
786,406,403,821,-136,-100,867
787,463,408,804,104,-16,1089
788,460,428,774,440,-7,1216
789,458,430,731,569,-24,1464
790,391,407,729,678,36,1728
791,343,336,718,792,224,1872
792,314,308,743,747,452,1939
793,315,304,759,477,650,1988
794,344,313,766,245,734,2099
795,316,314,743,184,675,2230
796,302,278,729,237,612,2341
797,320,258,667,325,556,2345
798,300,264,615,325,431,2365
799,313,261,575,407,362,2431
800,308,204,487,702,441,2566
801,274,121,431,969,534,2632
802,231,101,387,1012,734,2611
803,173,40,352,850,1095,2607
804,174,-25,343,571,1484,2628
805,170,-81,380,219,1792,2634
806,174,-130,406,30,2091,2566
807,158,-156,468,49,2282,2517
808,142,-197,508,274,2351,2460
809,111,-245,511,481,2302,2435
810,62,-352,526,460,2165,2331
811,20,-408,492,51,2126,2113
812,-9,-445,506,-534,2380,1767
813,-40,-432,544,-1021,2839,1566
814,-62,-442,664,-1181,3310,1554
815,-58,-530,766,-1011,3601,1636
816,-54,-633,851,-656,3595,1648
817,-60,-734,958,-380,3327,1378
818,-55,-771,971,-443,2974,1044
819,-53,-743,956,-845,2485,751
820,-32,-731,943,-1077,2216,605
821,-109,-677,932,-939,2214,482
822,-181,-691,955,-468,2398,392
823,-159,-737,975,128,2819,203
824,-180,-725,1044,210,3192,-1
825,-213,-741,1125,-275,3329,-90
826,-228,-774,1175,-665,3335,-329
827,-241,-757,1214,-984,3120,-518
828,-296,-745,1228,-943,2776,-690
829,-300,-745,1253,-673,2499,-870
830,-312,-750,1242,-253,2442,-1098
831,-331,-767,1257,-234,2431,-1360
832,-329,-741,1223,-523,2417,-1522
833,-325,-709,1191,-777,2394,-1729
834,-324,-648,1198,-831,2355,-1971
835,-326,-563,1246,-609,2280,-2047
836,-343,-506,1311,-191,2216,-2147
837,-335,-535,1325,22,2142,-2126
838,-316,-595,1325,16,1913,-2153
839,-333,-597,1277,-66,1675,-2422
840,-392,-544,1248,-306,1476,-2659
841,-333,-520,1240,-513,1362,-2669
842,-315,-440,1219,-394,1347,-2737
843,-344,-374,1179,-11,1316,-2878
844,-343,-272,1212,434,1339,-2854
845,-360,-179,1246,1049,1401,-2825
846,-326,-134,1280,1370,1345,-2760
847,-299,-97,1347,1366,1204,-2760
848,-268,-26,1350,852,997,-2760
849,-241,37,1320,178,771,-2727
850,-286,72,1269,-208,566,-2606
851,-254,128,1201,-269,456,-2399
852,-275,160,1152,-48,525,-2331
853,-304,243,1173,278,706,-2149
854,-253,245,1172,618,870,-1836
855,-212,232,1212,868,894,-1639
856,-241,276,1223,721,849,-1504
857,-213,284,1257,286,847,-1301
858,-206,254,1253,-89,767,-1163
859,-208,227,1193,-392,548,-1006
860,-222,234,1163,-495,374,-792
861,-254,181,1128,-326,224,-499
862,-274,136,1079,133,120,-286
863,-293,76,1040,665,103,-163
864,-280,43,1041,1100,245,-133
865,-297,76,1085,1151,530,-258
866,-276,70,1136,786,710,-192
867,-247,75,1168,589,776,-194
868,-236,88,1201,325,581,-59
869,-250,51,1192,44,261,136
870,-276,46,1154,-62,54,296
871,-283,10,1123,-118,-147,499
872,-305,-75,1052,94,-272,550
873,-279,-149,991,350,-290,482
874,-320,-194,964,487,-186,271
875,-291,-219,977,274,26,89
876,-236,-197,997,-95,228,-44
877,-230,-140,1027,-169,243,-180
878,-234,-64,1051,-44,118,-155
879,-216,-50,1058,178,-97,115
880,-214,-65,1048,508,-261,296
881,-219,-98,1030,735,-364,415
882,-225,-147,983,663,-440,521
883,-263,-198,932,454,-358,503
884,-267,-229,906,126,-169,482
885,-262,-239,923,-113,9,490
886,-259,-222,952,-113,136,392
887,-236,-169,988,108,103,314
888,-217,-158,1042,350,-112,361
889,-205,-162,1064,600,-362,392
890,-208,-142,1052,606,-669,378
891,-228,-117,1014,354,-907,435
892,-238,-144,960,-17,-925,447
893,-232,-159,891,-368,-776,392
894,-234,-178,851,-609,-556,292
895,-234,-195,834,-683,-274,249
896,-209,-162,861,-492,56,257
897,-215,-185,892,-140,296,201
898,-200,-185,946,161,327,171
899,-207,-160,1004,307,284,142
900,-208,-156,1038,194,177,175
901,-206,-162,1028,-34,75,193
902,-206,-164,993,-277,-56,179
903,-215,-190,941,-441,-100,107
904,-214,-196,912,-501,-26,13
905,-212,-178,886,-347,140,-57
906,-219,-197,919,-31,235,-120
907,-230,-176,932,243,306,-135
908,-242,-146,980,438,388,-108
909,-245,-109,1058,450,374,-22
910,-223,-125,1074,257,312,42
911,-207,-152,1079,-87,136,46
912,-225,-175,1030,-396,-58,-24
913,-210,-173,983,-534,-145,-94
914,-220,-162,970,-474,-134,-83
915,-231,-163,962,-181,-65,-98
916,-228,-160,957,171,28,-110
917,-210,-162,971,325,71,-69
918,-224,-117,996,399,130,-59
919,-233,-102,1040,249,144,46
920,-221,-124,1039,92,124,136
921,-204,-171,1027,36,46,113
922,-211,-187,1013,-83,-140,46
923,-236,-175,994,-175,-227,11
924,-232,-186,961,-111,-200,-20
925,-258,-171,937,48,-85,-108
926,-251,-173,970,53,25,-135
927,-249,-171,982,65,122,-190
928,-263,-101,1014,8,142,-165
929,-248,-113,1059,-103,26,23
930,-236,-137,1031,-21,-79,23
931,-224,-157,1003,-79,-225,5
932,-240,-162,986,-158,-368,39
933,-233,-172,939,-93,-382,42
934,-230,-189,894,67,-282,-30
935,-219,-179,880,171,-151,-90
936,-222,-150,906,161,69,-104
937,-219,-137,959,114,249,-85
938,-208,-104,999,130,327,-53
939,-215,-92,1032,77,294,13
940,-189,-103,1073,32,157,91
941,-200,-133,1067,106,-73,95
942,-217,-154,1027,149,-337,107
943,-222,-169,976,71,-458,87
944,-225,-196,934,-42,-374,-18
945,-233,-198,882,-159,-181,-129
946,-215,-183,895,-214,52,-198
947,-206,-134,921,-148,253,-202
948,-207,-99,1001,-66,343,-145
949,-202,-94,1053,8,296,23
950,-191,-117,1067,106,148,109
951,-195,-151,1038,110,-40,113
952,-204,-167,1006,-34,-202,76
953,-223,-181,965,-242,-233,25
954,-234,-199,927,-376,-218,-10
955,-230,-211,895,-283,-151,-96
956,-250,-185,905,-122,-22,-161
957,-245,-169,934,-33,138,-133
958,-222,-140,986,-27,243,-96
959,-211,-109,1017,20,177,-44
960,-224,-109,1015,180,-18,33
961,-207,-147,973,280,-134,56
962,-218,-154,960,180,-163,72
963,-212,-167,940,-62,-136,78
964,-214,-189,918,-240,-67,31
965,-233,-205,904,-251,21,-73
966,-245,-181,923,-197,175,-139
967,-237,-144,979,-74,296,-122
968,-222,-147,1006,128,333,-92
969,-206,-125,1042,260,284,-59
970,-208,-144,1075,214,99,37
971,-204,-166,1043,135,-44,39
972,-209,-168,983,51,-134,-6
973,-227,-156,967,-68,-128,-49
974,-214,-148,950,-185,-28,-65
975,-223,-151,973,-199,67,-69
976,-227,-160,976,-146,116,-69
977,-225,-138,983,-52,150,-57
978,-208,-154,999,63,155,-24
979,-216,-139,1010,151,71,1
980,-227,-133,1012,258,-32,50
981,-212,-163,993,319,-91,58
982,-213,-170,977,276,-104,48
983,-204,-172,950,153,-97,15
984,-221,-159,958,63,-38,-16
985,-233,-171,944,42,60,-34
986,-233,-169,981,73,146,-16
987,-224,-143,985,188,194,3
988,-225,-134,1011,335,136,35
989,-233,-129,1016,450,54,80
990,-216,-137,1039,405,-34,132
991,-208,-145,1021,315,-87,113
992,-224,-156,992,200,-124,85
993,-231,-158,983,112,-116,39
994,-237,-160,976,75,-56,-16
995,-228,-161,980,20,25,-45
996,-239,-144,989,-60,103,-85
997,-237,-116,1015,-70,114,-51
998,-223,-102,1037,46,77,5
999,-211,-121,1013,202,-20,60
1000,-226,-152,989,180,-155,66
1001,-233,-153,961,7,-212,42
1002,-233,-162,928,-132,-184,29
1003,-248,-179,928,-152,-122,-10
1004,-234,-176,925,-117,-40,-67
1005,-236,-162,925,-74,48,-110
1006,-225,-150,940,-77,110,-94
1007,-224,-121,999,-68,132,-81
1008,-222,-102,1009,24,116,-26
1009,-207,-118,986,118,32,33
1010,-217,-133,981,85,-85,52
1011,-224,-156,976,-62,-124,50
1012,-232,-173,936,-201,-83,-10
1013,-220,-161,935,-300,-9,-47
1014,-224,-151,932,-242,46,-77
1015,-229,-143,945,-134,110,-90
1016,-222,-137,967,-15,128,-67
1017,-207,-136,977,120,114,-47
1018,-208,-129,1003,149,66,-26
1019,-213,-126,996,124,13,1
1020,-223,-130,1007,34,-13,11
1021,-224,-128,988,-79,-20,11
1022,-225,-153,962,-163,-11,7
1023,-231,-156,955,-128,19,11
1024,-233,-168,949,-25,62,11
1025,-253,-163,963,63,103,5
1026,-242,-152,981,167,142,23
1027,-218,-147,1003,227,140,3
1028,-212,-129,1001,235,93,-1
1029,-231,-128,1017,161,40,15
1030,-208,-134,1006,24,26,33
1031,-206,-142,985,-99,7,13
1032,-223,-142,963,-183,-34,-10
1033,-227,-153,941,-202,-13,-14
1034,-240,-172,955,-163,89,-28
1035,-225,-158,960,-99,175,-36
1036,-220,-146,991,16,192,-22
1037,-220,-125,1022,106,159,17
1038,-223,-143,1030,171,109,76
1039,-223,-167,1043,87,32,64
1040,-234,-173,1002,-118,-26,33
1041,-244,-185,987,-288,-22,-18
1042,-238,-170,993,-365,7,-26
1043,-251,-184,974,-201,38,-45
1044,-255,-179,968,1,46,-42
1045,-245,-179,973,145,69,-51
1046,-232,-177,981,178,75,-65
1047,-232,-151,978,132,42,-65
1048,-234,-118,988,85,9,-69
1049,-223,-115,980,59,-42,-34
1050,-216,-128,973,51,-36,-36
1051,-229,-131,960,-38,-24,-38
1052,-216,-136,960,-91,11,-44
1053,-225,-140,953,-95,58,-49
1054,-236,-151,944,-48,97,-40
1055,-232,-144,959,-19,128,-45
1056,-240,-142,964,7,159,-32
1057,-229,-147,956,10,157,-20
1058,-230,-142,975,-25,171,-20
1059,-229,-128,969,-132,196,-47
1060,-234,-107,991,-183,171,-28
1061,-240,-121,970,-124,93,11
1062,-232,-133,981,8,9,21
1063,-245,-154,933,92,-36,25
1064,-247,-165,926,122,9,17
1065,-245,-166,936,143,81,-10
1066,-236,-141,955,110,151,-47
1067,-231,-94,1007,106,183,-32
1068,-219,-96,1035,108,198,39
1069,-205,-111,1038,110,194,93
1070,-218,-139,1056,30,136,134
1071,-232,-170,1045,-91,136,146
1072,-238,-204,1058,-167,177,124
1073,-224,-203,1079,-146,226,95
1074,-239,-215,1121,-29,261,97
1075,-254,-212,1196,130,298,85
1076,-289,-170,1265,364,355,76
1077,-299,-176,1364,485,345,109
1078,-289,-185,1468,522,241,89
1079,-326,-209,1517,268,-71,54
1080,-324,-234,1520,-11,-427,68
1081,-335,-262,1489,-167,-647,52
1082,-367,-314,1466,-197,-852,-28
1083,-386,-324,1463,-183,-1022,-131
1084,-391,-308,1464,-62,-1155,-231
1085,-421,-303,1474,190,-1296,-309
1086,-416,-281,1504,383,-1434,-376
1087,-407,-296,1515,358,-1559,-383
1088,-366,-322,1503,63,-1815,-399
1089,-323,-341,1454,-230,-2108,-530
1090,-323,-306,1398,-337,-2452,-633
1091,-296,-286,1349,-333,-2704,-631
1092,-247,-269,1328,-5,-2847,-655
1093,-241,-248,1288,376,-2927,-641
1094,-198,-215,1310,557,-2880,-565
1095,-229,-179,1325,663,-2679,-604
1096,-170,-170,1360,303,-2520,-536
1097,-144,-191,1355,8,-2479,-497
1098,-153,-213,1360,-83,-2612,-465
1099,-144,-229,1377,-3,-2804,-450
1100,-139,-198,1372,298,-3071,-420
1101,-149,-199,1357,751,-3319,-311
1102,-190,-231,1371,1147,-3511,-264
1103,-200,-237,1359,1280,-3632,-280
1104,-196,-219,1304,999,-3669,-335
1105,-172,-196,1248,462,-3698,-233
1106,-167,-211,1203,237,-3716,-233
1107,-166,-176,1150,212,-3806,-294
1108,-114,-167,1062,315,-4018,-254
1109,-91,-164,970,409,-4157,-264
1110,-66,-140,885,301,-4243,-338
1111,-25,-119,749,130,-4216,-393
1112,-20,-86,608,-7,-4097,-415
1113,31,-53,483,-136,-3845,-444
1114,58,-6,376,-42,-3370,-483
1115,59,11,301,69,-2874,-463
1116,120,43,298,151,-2294,-331
1117,228,53,317,323,-1792,-176
1118,268,25,362,579,-1610,-126
1119,221,43,431,788,-1671,-65
1120,252,18,454,985,-1661,-24
1121,270,-14,471,1028,-1647,-55
1122,254,8,481,876,-1708,-51
1123,315,24,449,673,-1679,-85
1124,323,79,467,542,-1597,-213
1125,341,134,421,423,-1511,-321
1126,375,248,401,276,-1405,-266
1127,403,281,374,221,-1245,1
1128,458,240,336,452,-956,236
1129,477,262,351,753,-655,300
1130,470,299,400,876,-390,292
1131,519,341,465,825,-200,408
1132,492,412,524,837,-175,482
1133,485,455,591,868,-237,556
1134,489,495,635,889,-290,785
1135,477,459,674,897,-274,999
1136,459,408,707,772,-284,1169
1137,459,370,672,538,-319,1246
1138,433,365,654,303,-360,1232
1139,421,352,627,106,-308,1269
1140,409,333,615,12,-186,1388
1141,389,351,625,16,-26,1488
1142,410,352,651,89,159,1638
1143,453,346,644,274,247,1751
1144,444,358,623,411,237,1859
1145,443,365,608,442,185,2013
1146,447,373,589,520,294,2142
1147,424,364,578,493,349,2324
1148,379,325,555,456,444,2501
1149,317,276,538,378,661,2636
1150,305,205,523,278,935,2771
1151,284,102,539,202,1191,2876
1152,259,19,562,303,1403,2880
1153,294,-54,593,450,1591,2876
1154,302,-77,653,716,1687,2804
1155,270,-82,678,950,1564,2648
1156,245,-84,645,1016,1306,2660
1157,192,-99,594,995,1083,2630
1158,188,-138,521,714,1015,2589
1159,140,-187,465,438,1185,2558
1160,86,-263,466,348,1507,2515
1161,58,-301,489,413,1919,2486
1162,30,-363,530,690,2345,2474
1163,30,-450,607,921,2605,2316
1164,-3,-465,657,948,2745,2029
1165,15,-469,684,632,2769,1722
1166,-7,-464,681,128,2788,1466
1167,-92,-475,697,-314,2737,1337
1168,-96,-514,696,-706,2880,1292
1169,-134,-562,706,-880,3087,1318
1170,-127,-664,713,-894,3148,1255
1171,-56,-758,696,-859,3216,1169
1172,-109,-776,729,-646,3235,869
1173,-195,-765,737,-552,3314,486
1174,-225,-824,795,-671,3503,232
1175,-255,-871,876,-845,3638,25
1176,-321,-892,918,-1054,3628,-151
1177,-290,-910,960,-1173,3501,-309
1178,-235,-895,998,-843,3396,-456
1179,-282,-810,1068,-64,3200,-678
1180,-313,-804,1100,721,3040,-864
1181,-341,-815,1119,1231,2942,-993
1182,-385,-827,1169,1216,2917,-1340
1183,-383,-814,1226,557,2878,-1815
1184,-405,-730,1297,-302,2817,-2303
1185,-347,-648,1350,-1070,2843,-2506
1186,-368,-580,1405,-1117,2765,-2598
1187,-375,-542,1443,-798,2482,-2631
1188,-401,-505,1429,-191,2132,-2600
1189,-407,-500,1421,507,1814,-2639
1190,-416,-476,1418,737,1650,-2821
1191,-455,-389,1442,485,1618,-3022
1192,-420,-306,1447,-97,1667,-3116
1193,-402,-276,1455,-638,1632,-3073
1194,-383,-269,1406,-792,1394,-3036
1195,-360,-232,1333,-515,1056,-2975
1196,-363,-200,1269,143,776,-2878
1197,-360,-145,1233,907,675,-2872
1198,-359,-32,1276,1366,878,-3040
1199,-328,37,1305,1173,1144,-3042
1200,-287,113,1327,657,1304,-2903
1201,-193,152,1313,49,1204,-2487
1202,-163,151,1280,155,888,-2198
1203,-142,178,1225,581,609,-1963
1204,-136,210,1193,1030,448,-1672
1205,-191,249,1207,1342,452,-1461
1206,-194,295,1191,1383,663,-1307
1207,-152,313,1226,964,911,-1159
1208,-158,332,1259,352,1109,-1069
1209,-167,277,1260,-402,1161,-958
1210,-182,212,1252,-1017,1056,-864
1211,-199,183,1215,-1124,857,-797
1212,-230,142,1172,-882,630,-704
1213,-258,117,1150,-509,419,-483
1214,-277,56,1139,77,273,-335
1215,-271,50,1116,589,159,-272
1216,-321,52,1114,833,204,-323
1217,-288,37,1139,514,362,-254
1218,-244,19,1129,141,482,-270
1219,-212,60,1149,-171,396,-215
1220,-219,46,1133,-195,177,-73
1221,-246,28,1099,53,-1,70
1222,-264,-22,1087,247,-165,224
1223,-276,-67,1048,423,-239,261
1224,-293,-84,1035,520,-173,173
1225,-272,-118,1014,444,-75,80
1226,-257,-144,995,221,-16,-36
1227,-249,-120,993,-44,38,-149
1228,-246,-64,982,-226,79,-155
1229,-233,-27,1020,-158,89,-8
1230,-212,-54,1030,132,-34,175
1231,-212,-84,1000,444,-210,296
1232,-220,-122,960,579,-309,374
1233,-208,-167,931,544,-284,408
1234,-237,-191,908,286,-204,347
1235,-236,-196,887,36,-73,267
1236,-236,-207,893,-50,128,173
1237,-228,-185,926,-44,267,60
1238,-217,-171,957,-60,308,37
1239,-250,-116,1002,30,286,111
1240,-225,-125,1036,153,241,257
1241,-231,-152,1038,270,151,267
1242,-249,-171,1037,176,-1,271
1243,-246,-221,1021,7,-97,228
1244,-251,-218,952,-122,-116,128
1245,-258,-206,936,-212,-67,44
1246,-259,-189,951,-150,42,-14
1247,-263,-152,961,-46,134,-61
1248,-267,-132,992,1,185,-4
1249,-242,-127,1012,116,167,87
1250,-234,-175,1002,173,66,124
1251,-236,-186,968,94,-75,119
1252,-247,-191,945,-54,-147,70
1253,-254,-193,932,-195,-136,21
1254,-267,-187,911,-236,-73,-30
1255,-264,-183,898,-226,-3,-57
1256,-255,-191,901,-140,62,-85
1257,-242,-180,915,-97,142,-100
1258,-230,-160,948,-77,157,-61
1259,-234,-138,963,89,130,15
1260,-223,-159,967,239,77,70
1261,-237,-174,940,282,48,56
1262,-237,-176,943,106,85,15
1263,-223,-176,961,-128,155,-20
1264,-223,-170,978,-224,189,-51
1265,-217,-196,988,-251,153,-102
1266,-248,-181,982,-204,99,-124
1267,-258,-148,967,-152,79,-122
1268,-247,-137,999,-60,107,-38
1269,-239,-158,1006,85,97,-20
1270,-230,-151,1003,118,30,-24
1271,-247,-153,971,53,-5,-6
1272,-250,-150,974,-19,28,-18
1273,-240,-153,970,-50,79,-55
1274,-250,-154,957,-52,83,-73
1275,-271,-151,975,-23,107,-77
1276,-262,-147,981,38,142,-85
1277,-260,-151,976,75,163,-69
1278,-263,-153,996,106,151,-42
1279,-254,-148,986,143,130,-22
1280,-255,-153,994,178,66,13
1281,-265,-150,982,214,19,25
1282,-259,-154,976,214,48,-4
1283,-256,-153,977,137,101,-32
1284,-268,-156,984,12,150,-73
1285,-248,-144,993,-52,192,-79
1286,-258,-150,996,46,175,-73
1287,-271,-137,1013,130,85,-22
1288,-253,-133,1011,245,42,-1
1289,-251,-119,1028,282,-11,50
1290,-253,-120,1016,301,-52,60
1291,-256,-130,1005,282,-75,64
1292,-280,-129,1003,225,-75,58
1293,-265,-148,973,147,-28,44
1294,-268,-148,970,149,17,21
1295,-275,-129,988,206,30,-8
1296,-258,-110,995,264,32,68
1297,-261,-118,1003,383,1,132
1298,-259,-113,1007,448,-56,152
1299,-280,-130,1000,393,-104,158
1300,-283,-127,997,229,-85,136
1301,-275,-127,999,-25,-18,119
1302,-260,-148,982,-154,26,42
1303,-269,-156,987,-202,-16,-10
1304,-271,-156,967,-126,-71,-6
1305,-283,-147,978,22,-69,-18
1306,-279,-143,990,120,-65,33
1307,-255,-138,994,229,-87,39
1308,-262,-123,985,268,-140,42
1309,-251,-132,983,200,-145,48
1310,-244,-142,965,71,-106,23
1311,-242,-130,944,-81,-61,-12
1312,-246,-127,961,-179,-22,-18
1313,-246,-146,961,-171,25,-18
1314,-253,-143,951,-54,30,-34
1315,-248,-126,985,18,21,9
1316,-255,-141,1003,122,-3,35
1317,-248,-144,985,180,-54,60
1318,-258,-151,993,155,-108,42
1319,-250,-154,982,53,-110,-1
1320,-256,-154,969,-101,-69,-32
1321,-251,-143,975,-191,-46,-63
1322,-246,-145,977,-204,-26,-83
1323,-252,-142,981,-161,-32,-85
1324,-259,-158,955,-89,-81,-69
1325,-264,-149,943,-5,-69,-75
1326,-259,-158,946,65,-44,-42
1327,-263,-133,983,151,-22,-26
1328,-242,-121,984,233,-24,3
1329,-258,-152,997,233,-81,-18
1330,-241,-146,984,108,-140,-57
1331,-239,-130,983,-79,-112,-96
1332,-230,-128,948,-199,-52,-106
1333,-236,-152,949,-245,-18,-129
1334,-238,-135,944,-226,5,-163
1335,-235,-120,954,-161,50,-131
1336,-237,-115,976,-34,71,-86
1337,-239,-102,999,118,44,13
1338,-237,-124,995,257,-1,50
1339,-232,-126,992,262,-50,64
1340,-244,-132,975,135,-63,48
1341,-242,-147,964,-19,-26,27
1342,-246,-144,956,-113,3,-20
1343,-262,-141,942,-161,46,-42
1344,-249,-147,958,-113,122,-79
1345,-252,-141,976,-46,153,-83
1346,-250,-121,1003,-7,103,-65
1347,-248,-109,1008,73,34,-10
1348,-245,-123,1002,165,-50,21
1349,-240,-114,990,126,-87,5
1350,-254,-116,981,-15,-79,17
1351,-251,-127,956,-118,-42,13
1352,-255,-135,945,-132,5,-4
1353,-258,-157,953,-87,48,-14
1354,-249,-177,960,-42,89,-30
1355,-257,-157,968,5,110,-67
1356,-260,-131,992,71,116,-59
1357,-260,-121,1007,151,95,1
1358,-244,-117,1028,210,36,39
1359,-258,-111,1020,192,-38,37
1360,-261,-141,1008,73,-91,42
1361,-259,-139,963,-40,-87,-1
1362,-256,-139,948,-103,-34,-26
1363,-256,-138,960,-111,19,-38
1364,-255,-142,953,-64,71,-26
1365,-251,-127,967,75,93,-18
1366,-253,-140,986,216,69,-6
1367,-241,-122,994,270,38,13
1368,-262,-109,1018,280,-1,13
1369,-249,-107,999,194,-40,23
1370,-253,-117,998,83,-48,11
1371,-235,-120,982,-27,-63,15
1372,-242,-141,977,-81,-63,17
1373,-258,-153,943,-68,-59,-4
1374,-265,-146,948,-19,-36,-24
1375,-261,-144,957,16,25,-36
1376,-261,-135,978,42,32,-49
1377,-249,-100,998,59,13,-36
1378,-237,-104,1004,89,-48,15
1379,-237,-129,999,120,-118,42
1380,-237,-144,967,85,-163,11
1381,-239,-124,948,-42,-155,-4
1382,-250,-131,932,-152,-69,1
1383,-251,-143,924,-148,34,-44
1384,-223,-129,953,-103,89,-49
1385,-237,-130,963,7,83,-18
1386,-238,-143,961,120,38,-1
1387,-237,-124,960,145,15,31
1388,-240,-119,997,118,26,50
1389,-236,-119,993,73,21,42
1390,-230,-130,987,-7,-26,31
1391,-240,-135,986,-85,-42,3
1392,-252,-155,952,-193,-9,-28
1393,-250,-160,949,-284,52,-77
1394,-241,-144,944,-281,99,-110
1395,-248,-125,967,-146,99,-96
1396,-258,-109,989,34,89,-30
1397,-242,-117,1007,194,73,42
1398,-236,-118,1015,243,26,50
1399,-257,-127,1005,159,-22,74
1400,-263,-148,992,73,-32,72
1401,-258,-154,978,1,-24,23
1402,-262,-147,983,-66,-26,-14
1403,-263,-149,967,-97,-16,-53
1404,-266,-144,960,-103,26,-96
1405,-258,-118,950,-97,81,-83
1406,-250,-117,977,28,97,-26
1407,-239,-113,976,176,62,15
1408,-251,-115,992,225,15,56
1409,-247,-131,995,174,-5,66
1410,-245,-132,989,63,-9,13
1411,-258,-125,988,-50,-58,-10
1412,-258,-124,963,-95,-65,-8
1413,-255,-128,950,-52,-36,-8
1414,-265,-140,925,12,-3,-8
1415,-258,-146,934,49,48,-16
1416,-267,-126,954,63,126,-28
1417,-261,-103,991,96,161,5
1418,-255,-109,1012,137,148,31
1419,-251,-125,1020,128,75,31
1420,-256,-132,1005,5,11,-1
1421,-248,-134,993,-142,-22,-16
1422,-240,-119,983,-163,-32,-36
1423,-259,-139,961,-103,-26,-51
1424,-254,-128,962,-23,28,-34
1425,-235,-109,989,38,116,-30
1426,-241,-112,1038,61,142,15
1427,-233,-108,1050,59,140,37
1428,-222,-111,1061,40,95,81
1429,-235,-127,1088,8,32,115
1430,-204,-177,1080,-83,46,99
1431,-187,-195,1078,-163,56,103
1432,-206,-170,1102,-21,67,115
1433,-219,-139,1151,364,120,154
1434,-281,-129,1252,712,159,214
1435,-325,-118,1351,854,337,175
1436,-322,-112,1446,567,482,195
1437,-296,-179,1535,116,409,257
1438,-287,-220,1585,-156,122,236
1439,-281,-271,1599,-419,-464,111
1440,-336,-259,1535,-404,-956,25
1441,-370,-253,1494,-281,-1249,-61
1442,-380,-236,1490,32,-1308,-45
1443,-406,-258,1537,454,-1282,-90
1444,-451,-250,1561,633,-1247,-196
1445,-453,-247,1594,393,-1222,-225
1446,-463,-300,1645,40,-1288,-231
1447,-446,-300,1667,-212,-1419,-325
1448,-429,-295,1657,-423,-1837,-448
1449,-405,-271,1606,-458,-2329,-506
1450,-375,-248,1516,-347,-2763,-530
1451,-389,-225,1463,-66,-3106,-524
1452,-393,-193,1407,169,-3315,-489
1453,-369,-197,1368,272,-3366,-460
1454,-332,-193,1342,192,-3333,-483
1455,-329,-168,1317,-62,-3327,-508
1456,-320,-160,1302,-286,-3345,-504
1457,-283,-162,1244,-326,-3411,-481
1458,-244,-169,1220,-228,-3538,-475
1459,-269,-158,1163,-122,-3700,-467
1460,-273,-182,1087,-5,-3878,-403
1461,-250,-171,1049,196,-3929,-344
1462,-225,-157,986,423,-3950,-288
1463,-238,-114,967,587,-4018,-260
1464,-207,-92,914,469,-3985,-122
1465,-120,-130,888,255,-3895,-61
1466,-96,-104,782,61,-3948,-96
1467,-23,-121,692,-298,-4128,-151
1468,-8,-87,589,-384,-4190,-186
1469,-4,-87,503,-115,-4102,-235
1470,22,-90,422,194,-3862,-323
1471,60,-20,379,344,-3505,-426
1472,119,29,339,411,-3155,-407
1473,125,104,275,577,-2784,-102
1474,176,56,283,842,-2419,263
1475,270,32,258,1118,-1964,271
1476,338,44,241,1089,-1608,263
1477,347,42,297,784,-1481,267
1478,365,62,335,643,-1255,214
1479,360,93,381,508,-1083,138
1480,355,138,431,319,-931,128
1481,368,178,501,149,-811,244
1482,397,241,546,83,-759,289
1483,414,293,621,225,-849,456
1484,419,266,638,594,-1095,632
1485,449,242,539,901,-1333,749
1486,470,190,505,1036,-1288,828
1487,427,177,508,1007,-1132,783
1488,383,213,513,829,-882,675
1489,405,272,546,548,-567,665
1490,411,368,621,452,-284,724
1491,449,418,678,516,-128,859
1492,501,429,714,706,-130,1076
1493,514,413,754,885,-309,1337
1494,511,401,737,827,-524,1580
1495,485,371,713,659,-622,1687
1496,454,324,650,315,-600,1781
1497,429,278,591,51,-452,1837
1498,380,204,528,-56,-202,1906
1499,332,175,543,20,161,1908
1500,323,202,574,216,585,1912
1501,338,237,607,385,831,2048
1502,370,238,655,653,857,2271
1503,430,236,653,977,747,2478
1504,430,186,634,1151,644,2667
1505,387,133,599,1171,552,2755
1506,348,103,539,883,571,2808
1507,284,54,462,596,663,2839
1508,207,8,424,571,864,2798
1509,203,-36,384,657,1200,2755
1510,266,-95,402,887,1663,2734
1511,310,-166,423,1130,1976,2773
1512,268,-227,430,1460,2101,2681
1513,169,-233,440,1665,2146,2494
1514,83,-218,488,1538,2249,2312
1515,59,-203,550,1122,2532,2169
1516,65,-212,576,614,2821,2150
1517,141,-314,625,225,3050,2197
1518,162,-401,617,200,3146,2187
1519,87,-476,609,278,3058,1999
1520,-13,-493,607,257,2909,1763
1521,-84,-517,566,202,2919,1562
1522,-172,-533,564,200,2972,1353
1523,-220,-514,666,245,3224,908
1524,-131,-526,747,5,3630,761
1525,-86,-546,838,-101,3944,789
1526,-70,-576,915,-7,4001,816
1527,-98,-595,1024,411,3757,689
1528,-193,-574,1044,866,3403,443
1529,-267,-614,1044,985,2987,232
1530,-299,-618,1039,848,2829,-135
1531,-305,-607,1082,339,3056,-442
1532,-258,-605,1144,-202,3321,-585
1533,-291,-619,1183,-363,3362,-719
1534,-348,-610,1211,-308,3150,-838
1535,-445,-596,1242,-74,2911,-1028
1536,-470,-559,1277,145,2829,-1235
1537,-453,-567,1330,-15,2839,-1495
1538,-401,-535,1385,-306,2919,-1651
1539,-389,-542,1400,-529,2784,-1665
1540,-384,-558,1348,-480,2364,-1723
1541,-463,-517,1286,-173,1995,-1878
1542,-513,-498,1243,96,1802,-1956
1543,-496,-466,1269,171,1874,-2079
1544,-493,-403,1284,61,2044,-2303
1545,-456,-351,1317,-275,2097,-2419
1546,-410,-338,1342,-433,2069,-2411
1547,-381,-329,1329,-390,1823,-2379
1548,-398,-324,1304,-60,1427,-2362
1549,-431,-275,1266,360,1114,-2378
1550,-451,-220,1273,563,978,-2475
1551,-471,-104,1316,507,1105,-2715
1552,-457,-24,1346,-70,1327,-2713
1553,-389,-3,1338,-599,1390,-2575
1554,-336,-16,1283,-675,1144,-2430
1555,-309,-14,1204,-292,757,-2268
1556,-303,-9,1156,262,470,-2159
1557,-327,41,1157,757,388,-2122
1558,-347,92,1165,942,503,-2153
1559,-351,139,1216,694,683,-2147
1560,-335,181,1229,299,890,-2131
1561,-327,237,1238,-163,985,-1987
1562,-267,216,1264,-620,880,-1760
1563,-265,188,1220,-697,673,-1528
1564,-276,143,1184,-566,386,-1368
1565,-285,116,1144,-339,181,-1202
1566,-297,114,1123,-29,81,-1086
1567,-310,93,1090,163,42,-1006
1568,-307,97,1071,202,109,-899
1569,-302,73,1048,110,241,-795
1570,-287,48,1046,-54,411,-735
1571,-273,40,1058,-236,501,-690
1572,-270,52,1080,-279,499,-643
1573,-301,74,1107,-181,360,-508
1574,-312,52,1107,81,198,-370
1575,-320,15,1083,309,73,-280
1576,-323,19,1098,335,13,-233
1577,-315,-5,1076,167,28,-208
1578,-299,-36,1053,-79,36,-186
1579,-285,-51,1029,-247,36,-215
1580,-293,-29,998,-199,42,-260
1581,-309,-30,989,-87,46,-202
1582,-291,-34,1037,65,95,-153
1583,-285,-22,1053,204,91,-45
1584,-287,-23,1047,282,13,87
1585,-300,-69,1040,350,-58,164
1586,-315,-94,1023,272,-93,199
1587,-317,-112,1036,91,-50,232
1588,-297,-154,1030,-91,-81,283
1589,-312,-183,982,-111,-183,283
1590,-305,-218,940,1,-225,228
1591,-332,-215,935,217,-145,93
1592,-339,-178,949,305,-18,1
1593,-313,-164,955,217,83,27
1594,-278,-174,986,155,95,15
1595,-278,-150,971,85,21,-32
1596,-288,-133,995,-11,-65,21
1597,-261,-141,985,-5,-122,85
1598,-271,-160,967,108,-212,95
1599,-289,-187,925,178,-284,109
1600,-282,-198,911,190,-222,74
1601,-276,-188,893,118,-93,21
1602,-266,-179,911,40,-3,-12
1603,-289,-160,927,75,48,3
1604,-296,-150,960,159,101,35
1605,-274,-171,985,194,109,70
1606,-257,-182,1012,182,30,52
1607,-271,-183,983,104,-108,29
1608,-282,-168,987,28,-200,33
1609,-285,-178,954,7,-196,13
1610,-281,-181,937,-19,-159,-18
1611,-283,-179,934,-3,-110,-18
1612,-302,-188,908,83,-50,-40
1613,-293,-170,921,149,13,-61
1614,-304,-157,934,116,71,-36
1615,-286,-145,948,49,118,-6
1616,-261,-150,973,44,101,-20
1617,-276,-137,970,61,-22,-20
1618,-283,-142,963,42,-108,-36
1619,-280,-154,955,-23,-95,-61
1620,-291,-175,934,-105,-48,-71
1621,-279,-179,923,-101,-5,-112
1622,-280,-177,906,-46,13,-135
1623,-290,-153,914,-11,40,-141
1624,-291,-125,923,10,85,-108
1625,-266,-132,959,38,103,-45
1626,-252,-144,967,116,75,-44
1627,-244,-140,942,112,-3,-53
1628,-263,-154,932,61,-40,-63
1629,-287,-155,927,-64,46,-110
1630,-263,-151,942,-201,144,-128
1631,-274,-147,937,-240,200,-153
1632,-289,-136,956,-261,218,-161
1633,-283,-123,951,-206,232,-96
1634,-258,-134,968,-36,232,-45
1635,-256,-147,963,110,177,7
1636,-264,-162,955,245,105,31
1637,-282,-170,938,249,66,29
1638,-299,-183,931,143,91,-8
1639,-312,-184,928,44,165,-65
1640,-290,-176,950,-34,253,-114
1641,-294,-183,954,-95,282,-157
1642,-306,-171,945,-138,267,-172
1643,-314,-166,963,-95,282,-176
1644,-307,-156,969,-9,271,-161
1645,-293,-156,965,36,235,-124
1646,-288,-165,985,81,165,-94
1647,-308,-179,960,92,71,-100
1648,-314,-183,963,92,26,-131
1649,-316,-183,931,108,40,-190
1650,-322,-188,925,67,95,-247
1651,-324,-156,943,-50,192,-270
1652,-312,-139,953,-150,331,-249
1653,-290,-120,990,-173,417,-213
1654,-292,-103,1012,-76,386,-155
1655,-285,-100,1018,77,255,-47
1656,-291,-153,1009,206,97,25
1657,-307,-172,942,223,19,9
1658,-298,-176,947,85,52,-22
1659,-302,-161,946,32,107,-53
1660,-298,-138,952,85,122,-44
1661,-306,-113,972,253,112,11
1662,-319,-125,959,432,138,48
1663,-312,-144,994,421,173,50
1664,-326,-133,1013,214,202,39
1665,-292,-129,1004,14,189,54
1666,-301,-149,1006,-40,116,46
1667,-325,-161,978,-23,32,33
1668,-339,-166,969,-27,50,23
1669,-346,-172,974,-11,112,-6
1670,-329,-170,970,5,150,-40
1671,-324,-141,985,57,128,-51
1672,-313,-114,986,171,77,23
1673,-314,-133,1003,278,19,50
1674,-300,-147,983,294,-15,60
1675,-304,-149,951,165,-15,23
1676,-301,-147,969,-11,-11,1
1677,-301,-154,963,-140,19,-28
1678,-316,-150,949,-146,3,-40
1679,-322,-155,932,-52,-22,-34
1680,-316,-154,958,87,-1,-20
1681,-330,-163,944,173,56,-6
1682,-327,-150,964,153,140,7
1683,-317,-133,1004,106,179,7
1684,-315,-109,1014,122,112,27
1685,-301,-116,1001,180,-11,68
1686,-310,-131,997,194,-91,66
1687,-315,-148,951,59,-110,70
1688,-322,-154,960,-72,-67,60
1689,-330,-166,962,-89,-15,35
1690,-331,-168,946,-77,-16,35
1691,-333,-169,949,26,7,-32
1692,-337,-175,956,51,25,-45
1693,-348,-158,957,73,48,-42
1694,-329,-133,972,75,91,-42
1695,-312,-112,1006,110,69,-6
1696,-305,-121,992,114,-5,27
1697,-305,-122,978,100,-56,29
1698,-308,-132,962,18,-99,35
1699,-309,-150,936,-42,-93,21
1700,-320,-147,926,-50,-69,-18
1701,-325,-147,933,-44,-18,-24
1702,-327,-125,930,-13,48,-20
1703,-325,-128,952,65,87,33
1704,-323,-150,969,192,79,42
1705,-307,-132,977,196,54,37
1706,-304,-137,972,167,26,46
1707,-313,-142,973,55,3,21
1708,-322,-133,987,-72,-16,-1
1709,-329,-145,972,-173,-28,3
1710,-320,-164,944,-189,-30,-4
1711,-319,-159,927,-120,-16,-44
1712,-322,-146,927,-25,25,-30
1713,-313,-139,949,110,69,-10
1714,-305,-142,960,188,60,-1
1715,-317,-142,978,153,32,-10
1716,-311,-141,971,77,26,-24
1717,-315,-140,980,-38,-3,-34
1718,-326,-121,974,-124,-26,-16
1719,-316,-133,957,-117,-30,15
1720,-312,-144,942,-23,-30,13
1721,-327,-153,951,55,-34,9
1722,-330,-153,945,63,13,-8
1723,-315,-150,957,42,83,-24
1724,-309,-147,964,61,97,-22
1725,-320,-138,953,100,50,-24
1726,-316,-126,976,106,13,-10
1727,-306,-137,962,75,-11,-1
1728,-324,-125,958,22,-13,-32
1729,-318,-127,955,-64,3,-30
1730,-321,-131,974,-50,21,7
1731,-316,-134,955,-1,-1,7
1732,-326,-143,943,36,-13,-6
1733,-333,-138,949,57,19,-26
1734,-314,-141,950,36,56,-44
1735,-319,-141,947,12,67,-40
1736,-314,-133,952,36,69,-40
1737,-325,-116,970,55,46,-44
1738,-326,-113,978,38,17,-4
1739,-317,-114,990,20,-13,27
1740,-313,-125,985,57,-61,33
1741,-318,-133,941,63,-110,31
1742,-327,-144,936,55,-93,21
1743,-330,-148,918,28,-15,3
1744,-319,-157,930,-5,60,-30
1745,-330,-133,937,-40,110,-59
1746,-324,-109,948,-72,138,-42
1747,-321,-94,976,3,128,5
1748,-317,-99,993,163,56,54
1749,-310,-125,980,241,-38,87
1750,-323,-145,966,192,-93,85
1751,-329,-160,951,42,-83,50
1752,-326,-154,934,-83,-22,7
1753,-325,-145,920,-107,42,-28
1754,-335,-138,923,-85,89,-45
1755,-336,-128,937,-33,128,-57
1756,-325,-103,961,18,132,-18
1757,-322,-114,978,118,60,44
1758,-326,-133,988,200,-38,60
1759,-335,-138,971,126,-97,39
1760,-324,-159,950,-103,-91,11
1761,-332,-165,912,-292,-32,-36
1762,-323,-147,898,-343,46,-88
1763,-312,-136,908,-242,110,-71
1764,-303,-142,936,-9,150,-47
1765,-312,-144,942,188,134,-49
1766,-309,-129,968,257,109,-18
1767,-323,-118,979,210,99,15
1768,-316,-119,966,112,81,17
1769,-324,-113,973,8,46,7
1770,-335,-140,959,-66,15,3
1771,-338,-143,927,-140,50,-12
1772,-335,-153,922,-193,116,-30
1773,-334,-148,930,-187,171,-44
1774,-325,-128,949,-72,185,-18
1775,-329,-115,965,176,146,37
1776,-326,-132,970,342,81,78
1777,-328,-130,970,313,36,85
1778,-316,-146,954,139,50,60
1779,-321,-147,955,-15,50,33
1780,-326,-140,941,-87,62,15
1781,-338,-143,919,-81,107,-8
1782,-353,-138,942,-52,177,-12
1783,-340,-137,965,-5,224,-1
1784,-317,-120,985,77,224,3
1785,-324,-111,986,176,136,37
1786,-325,-122,981,188,44,60
1787,-330,-126,967,128,13,68
1788,-344,-140,956,38,30,44
1789,-340,-136,950,-103,56,13
1790,-334,-143,925,-212,103,-6
1791,-321,-151,921,-220,150,-36
1792,-332,-152,916,-183,153,-55
1793,-339,-131,923,-76,179,-51
1794,-329,-127,944,65,183,-40
1795,-335,-104,975,167,116,11
1796,-328,-112,946,243,60,50
1797,-327,-138,945,231,26,42
1798,-351,-128,915,85,30,23
1799,-344,-127,914,-103,99,-1
1800,-338,-140,909,-171,189,-18
1801,-334,-144,904,-142,179,-22
1802,-338,-129,911,-48,163,-26
1803,-346,-124,909,98,167,17
1804,-340,-136,927,210,165,33
1805,-355,-129,934,161,173,15
1806,-359,-121,958,-17,189,-4
1807,-347,-129,956,-218,198,-40
1808,-345,-117,928,-378,171,-65
1809,-332,-127,913,-394,155,-67
1810,-338,-134,879,-308,150,-24
1811,-327,-140,866,-103,144,42
1812,-317,-154,872,120,198,93
1813,-321,-130,886,223,267,136
1814,-335,-127,931,167,419,203
1815,-312,-141,986,-1,646,138
1816,-296,-163,1059,-318,771,70
1817,-308,-202,1124,-718,816,9
1818,-292,-225,1191,-1079,817,-16
1819,-275,-224,1291,-1015,683,-26
1820,-299,-189,1365,-562,403,56
1821,-418,-197,1441,22,118,283
1822,-462,-307,1566,374,54,392
1823,-519,-316,1658,733,245,396
1824,-547,-388,1798,434,290,474
1825,-573,-461,1872,67,224,357
1826,-582,-489,1973,-191,32,267
1827,-563,-523,2048,-113,-276,66
1828,-576,-472,2048,186,-835,-188
1829,-642,-402,2048,569,-1524,-364
1830,-722,-283,2048,833,-2114,-395
1831,-720,-315,2048,860,-2579,-319
1832,-631,-340,2048,719,-2858,-239
1833,-613,-363,2048,475,-3106,-227
1834,-649,-352,2048,366,-3483,-141
1835,-729,-293,2048,745,-3737,-69
1836,-741,-297,2048,1159,-3870,23
1837,-746,-328,2048,1331,-3874,-6
1838,-790,-311,2042,1057,-3915,-184
1839,-780,-355,1966,423,-4061,-378
1840,-790,-417,1835,-304,-4503,-643
1841,-848,-430,1660,-704,-5085,-952
1842,-913,-398,1462,-564,-5751,-1251
1843,-996,-262,1326,-66,-6179,-1211
1844,-1003,-263,1166,587,-6438,-805
1845,-1000,-402,1001,1196,-6683,-534
1846,-951,-460,772,1491,-6866,-559
1847,-924,-461,569,1294,-7007,-848
1848,-798,-370,332,796,-6725,-1180
1849,-587,-276,192,67,-6474,-1561
1850,-472,-93,-11,-226,-6229,-1819
1851,-386,103,-129,161,-6056,-1887
1852,-302,206,-183,1028,-5712,-1676
1853,-142,282,-196,1690,-5319,-1215
1854,-64,330,-171,2202,-4833,-698
1855,36,340,-114,2292,-4518,-336
1856,138,345,-68,2216,-4132,-44
1857,183,327,3,2145,-3856,117
1858,261,276,30,2028,-3606,91
1859,286,284,73,1817,-3415,60
1860,274,271,93,1538,-3327,11
1861,286,342,123,1342,-3099,37
1862,349,398,128,1233,-2849,128
1863,376,412,139,1239,-2634,240
1864,413,435,136,1176,-2436,369
1865,495,424,150,1243,-2163,503
1866,567,422,175,1378,-1929,507
1867,560,416,216,1548,-1833,378
1868,542,427,254,1534,-1806,171
1869,547,472,323,1382,-1657,23
1870,553,548,373,1122,-1292,121
1871,549,572,449,784,-1093,644
1872,583,527,526,788,-1058,992
1873,602,481,520,909,-1114,1144
1874,588,478,538,952,-1272,1238
1875,633,481,486,784,-1255,1296
1876,647,514,457,526,-1181,1353
1877,667,578,450,387,-1059,1392
1878,714,638,446,462,-864,1540
1879,668,736,465,698,-749,1843
1880,630,764,432,770,-624,2361
1881,591,735,448,944,-415,2898
1882,586,630,406,1339,-136,3134
1883,575,511,368,1409,85,3285
1884,517,445,371,1169,276,3357
1885,501,376,372,758,546,3330
1886,456,345,389,411,739,3273
1887,447,336,425,299,876,3144
1888,468,345,421,403,1034,3160
1889,463,378,434,546,1007,3386
1890,450,334,445,842,853,3675
1891,433,284,360,1378,681,3773
1892,399,232,287,1620,614,3816
1893,368,161,220,1520,778,3855
1894,321,101,178,1352,1075,3789
1895,278,68,124,995,1427,3734
1896,247,95,147,805,1985,3609
1897,249,153,222,831,2562,3619
1898,235,155,268,1102,2855,3857
1899,189,107,339,1522,2944,4095
1900,218,-5,369,1979,2993,4216
1901,305,-147,342,2192,2978,4191
1902,282,-258,300,1958,2759,3968
1903,133,-317,173,1309,2433,3660
1904,-14,-249,107,684,2276,3425
1905,-196,-176,92,757,2775,3300
1906,-263,-237,156,1483,3601,3367
1907,-202,-451,282,2260,4507,3533
1908,-195,-607,403,2569,5269,3519
1909,-179,-731,517,2217,5417,3072
1910,-218,-785,558,1299,5216,2255
1911,-325,-709,531,-38,4778,1499
1912,-418,-572,482,-1419,4394,1039
1913,-469,-451,473,-1927,4425,1083
1914,-388,-529,594,-1318,4941,1306
1915,-286,-721,703,-15,5511,1542
1916,-359,-814,769,1003,5685,1449
1917,-487,-975,789,969,5421,1101
1918,-620,-1054,736,450,5107,644
1919,-748,-1060,695,-425,4866,64
1920,-718,-989,814,-984,5087,-178
1921,-654,-1047,1043,-179,5763,-196
1922,-574,-1128,1223,1038,5937,-393
1923,-570,-1037,1376,2299,5564,-655
1924,-723,-978,1413,3120,4933,-1169
1925,-909,-950,1437,2813,4364,-1751
1926,-944,-1006,1484,1512,4189,-2331
1927,-925,-1152,1468,-298,4134,-2868
1928,-841,-1199,1463,-1691,4034,-3045
1929,-887,-1234,1427,-2019,3804,-3165
1930,-937,-1186,1422,-1331,3427,-3399
1931,-1032,-1011,1435,501,3267,-3866
1932,-1109,-880,1488,2014,3212,-4372
1933,-1055,-683,1605,2524,3308,-4792
1934,-963,-563,1656,2079,3487,-5098
1935,-922,-535,1745,788,3265,-5124
1936,-811,-462,1725,-173,2650,-4979
1937,-877,-365,1590,-52,1931,-5143
1938,-910,-301,1444,456,1155,-5092
1939,-1002,-242,1371,1153,901,-5221
1940,-989,-142,1341,1569,1165,-5348
1941,-979,24,1414,1778,1650,-5518
1942,-941,193,1486,1553,2206,-5626
1943,-859,234,1511,688,2380,-5415
1944,-748,275,1596,-122,2077,-5081
1945,-740,322,1502,-339,1433,-4926
1946,-739,410,1405,-89,704,-4682
1947,-713,525,1341,385,163,-4465
1948,-677,602,1270,1104,50,-4272
1949,-567,782,1265,1700,216,-4032
1950,-515,901,1261,1503,538,-3719
1951,-428,933,1273,692,837,-3055
1952,-369,918,1276,270,929,-2428
1953,-408,874,1270,270,776,-1991
1954,-432,808,1269,503,556,-1604
1955,-438,697,1258,823,319,-1233
1956,-447,595,1246,956,21,-1034
1957,-470,516,1189,669,-128,-1028
1958,-492,439,1182,87,-177,-1042
1959,-453,382,1138,-302,-175,-930
1960,-442,299,1064,-152,-231,-799
1961,-446,235,998,130,-317,-600
1962,-452,196,973,372,-376,-325
1963,-436,158,997,665,-356,-178
1964,-419,165,1000,934,-235,-126
1965,-428,126,1003,1012,-284,-10
1966,-415,79,999,823,-368,97
1967,-420,60,983,616,-470,275
1968,-414,-2,975,616,-589,310
1969,-364,-44,942,749,-626,365
1970,-370,-53,893,954,-620,300
1971,-373,-20,884,973,-433,158
1972,-389,46,919,716,-79,111
1973,-365,22,985,200,91,253
1974,-385,-5,995,-9,214,365
1975,-356,-61,995,-286,142,496
1976,-371,-116,984,-367,7,499
1977,-377,-167,964,-261,-124,421
1978,-400,-172,935,-40,-243,292
1979,-427,-181,911,130,-253,146
1980,-426,-184,900,122,-79,42
1981,-403,-135,952,-23,138,-55
1982,-388,-109,1005,-175,214,-55
1983,-359,-76,1047,-81,114,87
1984,-353,-97,1030,208,-110,224
1985,-372,-127,1006,458,-341,343
1986,-359,-164,999,565,-446,374
1987,-370,-194,969,508,-452,218
1988,-386,-154,952,262,-401,66
1989,-393,-133,946,-31,-263,-32
1990,-384,-134,948,-294,-81,-108
1991,-378,-111,963,-460,21,-106
1992,-357,-90,972,-435,-22,31
1993,-355,-105,990,-124,-149,158
1994,-348,-133,969,262,-255,222
1995,-368,-140,964,411,-317,283
1996,-379,-161,950,258,-300,283
1997,-378,-180,925,-3,-206,185
1998,-372,-173,932,-236,-99,17
1999,-382,-133,926,-445,-9,-120
2000,-369,-110,949,-583,48,-59
2001,-344,-121,939,-449,34,3
2002,-354,-103,943,-156,-91,54
2003,-352,-114,941,94,-241,124
2004,-361,-111,930,272,-292,146
2005,-344,-124,929,303,-278,150
2006,-342,-147,925,186,-237,80
2007,-343,-143,906,-34,-153,-28
2008,-324,-129,906,-290,-52,-104
2009,-327,-114,922,-478,56,-131
2010,-326,-88,931,-568,118,-90
2011,-323,-73,985,-367,95,56
2012,-321,-98,1014,49,-69,142
2013,-323,-119,983,341,-249,210
2014,-340,-129,951,380,-345,236
2015,-340,-161,936,147,-370,242
2016,-328,-156,917,-60,-317,115
2017,-352,-121,880,-281,-218,-6
2018,-353,-140,884,-456,-54,-61
2019,-364,-157,890,-441,97,-47
2020,-358,-150,913,-275,196,-32
2021,-345,-120,934,-44,167,11
2022,-331,-124,959,173,54,80
2023,-334,-137,959,333,-65,78
2024,-338,-136,942,319,-128,35
2025,-325,-121,930,133,-114,-6
2026,-327,-99,940,-97,-34,-67
2027,-325,-86,929,-242,46,-75
2028,-329,-93,911,-281,122,-40
2029,-325,-107,904,-222,181,15
2030,-323,-117,912,-154,232,56
2031,-326,-129,945,-95,249,81
2032,-322,-114,952,63,198,117
2033,-325,-119,957,221,124,140
2034,-357,-134,965,278,54,134
2035,-367,-156,963,216,50,66
2036,-359,-121,970,18,58,15
2037,-375,-104,980,-136,67,-10
2038,-364,-111,971,-159,79,11
2039,-349,-129,969,-89,42,23
2040,-355,-121,929,-42,25,31
2041,-354,-109,957,-68,50,52
2042,-343,-121,954,-21,38,93
2043,-349,-128,935,130,19,85
2044,-340,-122,941,257,23,44
2045,-350,-129,950,266,40,-12
2046,-352,-129,962,116,42,-53
2047,-360,-110,957,-85,69,-81
2048,-340,-98,955,-255,110,-85
2049,-338,-77,974,-281,91,-47
2050,-339,-52,950,-154,30,76
2051,-335,-80,952,98,-54,156
2052,-381,-96,934,257,-110,199
2053,-368,-131,949,173,-122,263
2054,-365,-160,918,137,-36,171
2055,-378,-167,922,79,11,50
2056,-373,-166,937,-21,85,-63
2057,-387,-122,973,-150,179,-157
2058,-358,-88,996,-249,196,-110
2059,-339,-74,994,-191,107,-24
2060,-342,-86,990,-27,-52,50
2061,-339,-95,951,100,-179,103
2062,-355,-129,924,135,-220,140
2063,-365,-156,915,69,-157,124
2064,-357,-155,905,-33,-59,85
2065,-362,-149,912,12,26,5
2066,-379,-148,908,55,89,-32
2067,-371,-139,954,32,144,-36
2068,-353,-118,966,1,155,-42
2069,-350,-97,979,-60,69,-1
2070,-350,-99,982,-54,-22,29
2071,-341,-103,958,12,-71,70
2072,-355,-138,956,63,-81,80
2073,-357,-139,932,63,-46,80
2074,-359,-165,954,10,36,39
2075,-368,-170,946,-54,107,-42
2076,-348,-141,959,-146,140,-106
2077,-356,-118,979,-140,132,-120
2078,-341,-90,996,-85,46,-83
2079,-341,-67,1017,34,-65,21
2080,-343,-105,981,137,-175,72
2081,-359,-140,935,141,-245,74
2082,-369,-152,920,36,-224,33
2083,-374,-154,913,-79,-114,-18
2084,-362,-151,913,-163,-3,-59
2085,-361,-155,916,-136,67,-128
2086,-359,-148,910,-68,79,-192
2087,-355,-101,952,-56,81,-200
2088,-353,-90,982,-17,34,-112
2089,-334,-92,968,104,-34,-36
2090,-332,-92,957,178,-126,15
2091,-340,-121,931,161,-188,42
2092,-363,-110,902,51,-147,17
2093,-349,-109,912,-126,-58,3
2094,-347,-134,915,-195,50,-20
2095,-356,-134,909,-156,107,-59
2096,-341,-133,918,-109,122,-67
2097,-343,-124,944,3,146,-67
2098,-334,-94,963,91,118,-10
2099,-326,-94,966,204,32,64
2100,-331,-90,972,298,-48,103
2101,-334,-116,945,229,-118,124
2102,-356,-133,920,79,-95,91
2103,-359,-142,915,-156,-18,56
2104,-358,-126,922,-279,91,-38
2105,-356,-113,939,-220,132,-65
2106,-357,-126,928,-56,132,-40
2107,-356,-137,938,67,103,-40
2108,-365,-129,950,67,71,-26
2109,-349,-95,948,32,67,-12
2110,-341,-84,973,5,50,11
2111,-336,-78,959,-3,-11,42
2112,-343,-100,924,32,-58,52
2113,-355,-119,898,5,-38,50
2114,-365,-122,886,-68,42,42
2115,-356,-120,891,-85,150,21
2116,-342,-113,909,-31,202,21
2117,-357,-108,902,53,214,42
2118,-360,-104,937,120,202,58
2119,-370,-115,957,92,212,89
2120,-367,-129,953,10,214,54
2121,-359,-115,974,-95,146,44
2122,-358,-114,966,-138,60,52
2123,-362,-114,943,-93,38,48
2124,-356,-131,915,-56,52,42
2125,-359,-131,915,-15,93,39
2126,-351,-131,927,3,163,23
2127,-355,-123,938,46,196,5
2128,-349,-105,941,114,173,13
2129,-361,-99,956,173,140,58
2130,-368,-101,948,128,134,107
2131,-351,-127,955,51,122,103
2132,-372,-140,945,-48,110,80
2133,-389,-123,958,-132,97,52
2134,-373,-128,964,-105,120,29
2135,-387,-141,968,-48,128,5
2136,-396,-156,948,-38,140,-20
2137,-377,-138,948,-29,157,-34
2138,-385,-122,948,-21,167,-8
2139,-378,-103,992,20,155,48
2140,-381,-109,999,149,124,42
2141,-368,-120,988,139,30,78
2142,-383,-125,977,34,-40,85
2143,-381,-142,958,-62,-36,66
2144,-382,-140,942,-79,-16,35
2145,-384,-142,934,-83,7,-1
2146,-389,-162,914,-62,42,-47
2147,-393,-149,937,-27,75,-92
2148,-399,-122,947,-7,120,-83
2149,-378,-95,968,40,140,-26
2150,-375,-99,998,132,95,15
2151,-373,-96,993,161,13,11
2152,-367,-102,979,98,-89,27
2153,-386,-113,949,-11,-157,9
2154,-390,-134,938,-175,-145,-20
2155,-381,-133,913,-288,-81,-67
2156,-391,-155,930,-279,-38,-100
2157,-381,-135,914,-150,-9,-118
2158,-389,-121,930,7,26,-92
2159,-385,-111,954,79,48,-44
2160,-370,-87,973,108,56,-24
2161,-363,-69,971,63,-9,25
2162,-357,-101,975,20,-79,66
2163,-390,-75,933,-93,-87,64
2164,-380,-112,933,-310,-83,132
2165,-374,-144,911,-349,-30,113
2166,-369,-176,921,-347,-50,103
2167,-376,-169,890,-156,7,-24
2168,-371,-144,898,14,5,-32
2169,-385,-142,920,149,15,-28
2170,-368,-125,948,141,66,-34
2171,-371,-137,966,8,71,-28
2172,-372,-126,993,-136,19,-14
2173,-368,-137,978,-163,-65,23
2174,-381,-148,974,-87,-124,25
2175,-386,-155,952,-70,-147,5
2176,-389,-175,956,-138,-110,-44
2177,-382,-155,940,-187,-69,-100
2178,-381,-159,933,-142,-67,-112
2179,-377,-152,937,-7,-81,-104
2180,-380,-126,947,85,-87,-59
2181,-375,-147,961,114,-102,-22
2182,-374,-142,954,73,-134,-49
2183,-373,-121,978,-79,-145,-51
2184,-366,-114,955,-163,-153,-40
2185,-366,-128,952,-142,-186,-34
2186,-367,-142,940,-76,-200,-36
2187,-366,-148,920,-9,-151,-28
2188,-353,-144,924,77,-108,-32
2189,-353,-148,933,128,-104,-57
2190,-370,-142,940,126,-89,-51
2191,-365,-156,978,73,-59,-63
2192,-368,-106,982,-38,-50,-79
2193,-358,-113,978,-148,-104,-44
2194,-354,-119,970,-169,-167,-32
2195,-354,-123,930,-120,-233,-8
2196,-366,-139,908,-58,-222,-20
2197,-364,-160,905,-64,-165,9
2198,-367,-164,918,-9,-93,-28
2199,-361,-150,918,26,-24,-77
2200,-361,-119,951,49,-3,-73
2201,-345,-130,976,51,11,-59
2202,-348,-124,1001,3,-24,-30
2203,-346,-135,1003,-58,-73,-8
2204,-356,-133,1004,-115,-114,3
2205,-360,-141,991,-91,-163,1
2206,-370,-160,977,-50,-208,1
2207,-363,-172,960,-21,-200,-36
2208,-361,-177,955,-36,-177,-86
2209,-354,-163,948,-62,-143,-122
2210,-356,-137,958,-50,-134,-143
2211,-352,-112,980,16,-145,-88
2212,-336,-109,998,98,-169,-12
2213,-336,-121,1003,141,-225,23
2214,-343,-144,997,98,-265,37
2215,-338,-163,993,30,-231,1
2216,-343,-179,984,-46,-190,-45
2217,-359,-177,1025,-72,-175,-102
2218,-368,-159,1044,-13,-177,-139
2219,-365,-134,1070,110,-202,-116
2220,-367,-124,1078,208,-251,-59
2221,-336,-137,1103,255,-309,-40
2222,-335,-135,1098,169,-350,-38
2223,-317,-141,1119,8,-386,-32
2224,-304,-164,1106,-74,-386,-42
2225,-306,-183,1134,-93,-391,-57
2226,-307,-180,1136,-74,-378,-86
2227,-292,-176,1180,51,-399,-69
2228,-309,-168,1207,262,-399,-18
2229,-330,-158,1277,526,-393,42
2230,-357,-161,1313,639,-409,97
2231,-340,-188,1349,561,-454,150
2232,-336,-214,1391,409,-503,121
2233,-364,-226,1400,92,-559,117
2234,-367,-256,1443,-97,-657,60
2235,-384,-274,1457,-60,-819,-59
2236,-388,-230,1464,53,-1075,-126
2237,-423,-232,1486,264,-1317,-133
2238,-438,-236,1498,530,-1507,-110
2239,-446,-231,1502,649,-1690,-102
2240,-458,-224,1491,505,-1811,-143
2241,-433,-246,1495,192,-1981,-172
2242,-431,-275,1446,-60,-2155,-219
2243,-460,-290,1416,-253,-2429,-307
2244,-478,-343,1369,-173,-2665,-397
2245,-462,-333,1355,44,-2827,-538
2246,-445,-321,1335,241,-2995,-540
2247,-416,-316,1358,475,-3179,-622
2248,-426,-267,1343,522,-3308,-745
2249,-384,-262,1320,180,-3417,-776
2250,-381,-270,1276,-99,-3475,-864
2251,-340,-240,1185,-351,-3628,-932
2252,-314,-149,1102,-497,-3776,-965
2253,-255,-122,1035,-488,-3925,-889
2254,-220,-79,894,-177,-4085,-807
2255,-202,-45,770,204,-4181,-670
2256,-209,-55,630,419,-4067,-569
2257,-153,-41,467,362,-3661,-573
2258,-98,1,277,40,-3192,-614
2259,2,47,125,-312,-2579,-629
2260,81,115,28,-523,-1835,-538
2261,144,-95,-42,-322,-1329,-434
2262,119,179,94,372,-888,-227
2263,114,166,221,1149,-643,-49
2264,121,145,330,1553,-403,130
2265,127,91,446,1491,-286,263
2266,129,42,531,981,-278,218
2267,146,56,579,409,-380,140
2268,166,43,625,73,-554,42
2269,197,80,659,8,-802,1
2270,198,154,690,276,-1063,15
2271,169,167,722,651,-1266,42
2272,164,210,705,971,-1255,142
2273,177,197,737,1003,-1087,275
2274,167,223,754,801,-870,322
2275,146,219,734,372,-649,365
2276,153,201,765,-34,-470,464
2277,195,188,799,-101,-315,537
2278,202,216,836,83,-333,583
2279,232,219,866,290,-405,781
2280,265,249,889,649,-458,921
2281,251,258,898,907,-538,1029
2282,248,241,908,868,-491,1144
2283,215,257,903,604,-306,1214
2284,222,251,917,397,-140,1345
2285,197,189,930,475,-69,1433
2286,155,177,967,569,-36,1511
2287,152,163,989,694,-16,1591
2288,151,146,988,772,-48,1613
2289,131,206,993,733,-75,1583
2290,182,223,984,727,-102,1648
2291,201,218,927,772,-194,1767
2292,152,190,856,776,-257,1884
2293,146,152,787,723,-145,1986
2294,103,111,752,762,101,2039
2295,75,77,744,758,374,2029
2296,52,82,739,770,630,2027
2297,38,87,749,921,802,2003
2298,8,123,741,1110,884,2005
2299,62,148,723,1321,923,2062
2300,98,165,701,1450,859,2177
2301,103,166,680,1489,681,2244
2302,102,111,575,1399,632,2271
2303,59,86,512,1198,694,2249
2304,5,40,443,932,851,2222
2305,-41,19,403,770,1140,2232
2306,-43,-59,376,776,1540,2251
2307,5,-147,353,786,1864,2300
2308,10,-195,385,1130,2042,2179
2309,-22,-188,430,1452,2163,1921
2310,-3,-183,496,1444,2282,1746
2311,-40,-167,581,1200,2441,1595
2312,-93,-173,662,717,2564,1441
2313,-131,-231,695,141,2657,1427
2314,-168,-332,743,-279,2628,1386
2315,-212,-390,746,-534,2458,1275
2316,-217,-416,738,-513,2269,1138
2317,-142,-478,744,-339,2251,1101
2318,-115,-543,792,-85,2501,1044
2319,-123,-553,857,204,2839,900
2320,-205,-545,943,389,3120,751
2321,-299,-514,1111,510,3450,542
2322,-376,-511,1242,288,3632,261
2323,-384,-552,1343,-212,3567,109
2324,-417,-622,1417,-519,3296,-98
2325,-434,-681,1419,-714,2786,-356
2326,-414,-690,1394,-865,2237,-530
2327,-431,-710,1342,-679,1788,-710
2328,-469,-618,1261,-199,1497,-999
2329,-529,-531,1245,198,1403,-1251
2330,-542,-427,1252,667,1573,-1463
2331,-518,-356,1290,766,1857,-1694
2332,-437,-354,1343,221,2087,-1878
2333,-421,-329,1373,-392,2122,-2102
2334,-371,-321,1355,-937,1845,-2264
2335,-402,-243,1319,-909,1544,-2372
2336,-436,-180,1301,-521,1224,-2413
2337,-432,-127,1298,3,980,-2372
2338,-448,-92,1271,413,847,-2368
2339,-431,-52,1256,485,782,-2397
2340,-395,1,1245,258,821,-2407
2341,-374,54,1244,-171,880,-2370
2342,-333,105,1253,-458,909,-2323
2343,-308,138,1247,-513,808,-2253
2344,-307,118,1245,-488,593,-2161
2345,-318,160,1240,-335,437,-2100
2346,-319,256,1248,-134,351,-2008
2347,-315,270,1250,87,234,-1833
2348,-312,293,1208,235,157,-1670
2349,-296,282,1170,57,192,-1622
2350,-282,229,1133,-394,325,-1575
2351,-273,220,1108,-904,446,-1487
2352,-277,231,1101,-1339,536,-1385
2353,-265,253,1127,-1372,567,-1233
2354,-277,262,1136,-956,464,-1022
2355,-295,238,1127,-312,253,-780
2356,-335,167,1090,204,126,-637
2357,-351,122,1058,249,105,-600
2358,-344,94,1038,-5,155,-624
2359,-379,92,1047,-363,232,-678
2360,-401,93,1060,-659,304,-665
2361,-374,97,1067,-648,317,-579
2362,-355,81,1063,-355,218,-491
2363,-358,54,1049,3,40,-374
2364,-333,-5,1015,221,-112,-292
2365,-315,-34,993,268,-212,-331
2366,-320,-4,976,159,-304,-397
2367,-329,5,979,-1,-347,-432
2368,-326,25,957,-132,-276,-454
2369,-329,35,936,-152,-143,-413
2370,-304,-4,926,-173,9,-268
2371,-302,-31,912,-52,120,-169
2372,-302,-32,931,106,177,-94
2373,-305,-24,965,262,234,-26
2374,-301,-50,985,307,230,56
2375,-323,-60,1008,346,208,42
2376,-330,-46,1014,258,206,-1
2377,-319,-64,1025,57,222,-61
2378,-316,-68,1021,-140,150,-116
2379,-326,-43,1012,-234,50,-131
2380,-346,-28,982,-167,19,-53
2381,-332,-52,969,8,11,48
2382,-329,-87,957,141,-26,146
2383,-342,-105,962,280,-30,171
2384,-338,-106,967,395,50,154
2385,-358,-96,995,348,134,85
2386,-356,-99,1013,133,208,9
2387,-340,-128,1019,-93,206,-75
2388,-354,-109,1000,-230,128,-129
2389,-345,-87,982,-283,-3,-67
2390,-348,-125,952,-148,-91,17
2391,-351,-149,932,55,-138,31
2392,-348,-125,926,153,-77,25
2393,-346,-103,962,227,38,27
2394,-343,-98,980,262,116,3
2395,-322,-98,1003,196,155,-36
2396,-311,-115,1021,71,101,-85
2397,-328,-121,1015,-85,-28,-126
2398,-328,-96,1010,-122,-120,-128
2399,-318,-101,994,26,-225,-69
2400,-319,-95,995,251,-354,5
2401,-322,-101,961,440,-382,64
2402,-307,-141,932,551,-350,80
2403,-306,-149,904,573,-245,17
2404,-332,-141,938,448,-75,-63
2405,-325,-92,975,282,114,-161
2406,-321,-54,1014,79,173,-190
2407,-318,-49,1027,-52,95,-167
2408,-307,-45,1037,-27,-50,-106
2409,-293,-64,1013,153,-249,3
2410,-319,-111,950,358,-429,60
2411,-347,-140,913,452,-452,29
2412,-353,-142,894,372,-292,-47
2413,-343,-121,904,165,-95,-124
2414,-327,-77,918,34,13,-155
2415,-313,-57,945,57,58,-163
2416,-311,-49,954,63,42,-157
2417,-295,-51,957,-7,-5,-118
2418,-283,-60,949,-60,-75,-88
2419,-310,-71,933,-79,-147,-75
2420,-321,-79,925,-72,-141,-57
2421,-329,-81,921,-36,-89,-75
2422,-329,-84,909,-27,-18,-86
2423,-340,-86,914,-23,56,-106
2424,-324,-84,919,-33,132,-116
2425,-296,-70,934,-52,165,-120
2426,-298,-42,977,-93,175,-126
2427,-299,-25,989,-87,107,-59
2428,-307,-55,987,-21,17,3
2429,-325,-78,957,-9,-48,5
2430,-332,-86,947,-76,-42,23
2431,-323,-106,944,-85,-26,35
2432,-318,-137,911,71,-24,-30
2433,-312,-122,904,268,-3,-81
2434,-329,-106,904,399,48,-77
2435,-312,-90,944,471,142,-85
2436,-312,-64,990,450,191,-86
2437,-304,-38,1016,374,146,-69
2438,-322,-36,1039,198,122,-94
2439,-321,-28,1046,-93,99,-38
2440,-319,-62,1016,-279,60,-40
2441,-334,-81,979,-316,-5,-51
2442,-332,-98,981,-222,-42,-34
2443,-342,-115,987,-3,-34,-47
2444,-349,-118,968,139,5,-92
2445,-341,-101,985,182,48,-131
2446,-331,-79,991,122,69,-155
2447,-309,-35,987,51,67,-159
2448,-313,-33,988,16,28,-129
2449,-296,-33,1001,3,-40,-90
2450,-304,-42,980,-11,-114,-65
2451,-306,-61,961,-68,-175,-44
2452,-308,-62,941,-85,-171,-59
2453,-305,-60,936,-60,-136,-51
2454,-309,-74,933,-5,-106,-26
2455,-311,-57,926,77,-50,-69
2456,-316,-51,933,79,-1,-71
2457,-299,-50,940,75,64,-34
2458,-292,-43,961,85,112,-1
2459,-284,-41,966,26,97,33
2460,-295,-52,992,-1,46,76
2461,-305,-69,985,57,-40,128
2462,-322,-83,958,108,-93,175
2463,-325,-115,964,133,-73,181
2464,-324,-120,943,141,-7,113
2465,-331,-126,965,141,38,25
2466,-331,-115,963,85,79,-67
2467,-344,-96,990,32,101,-124
2468,-324,-66,986,-50,107,-100
2469,-313,-60,999,-48,71,-71
2470,-305,-38,1001,-29,3,-34
2471,-301,-48,987,22,-77,1
2472,-308,-67,956,40,-132,31
2473,-332,-67,950,7,-112,23
2474,-331,-86,934,-54,-42,13
2475,-332,-87,928,-74,38,-26
2476,-313,-81,933,-31,77,-34
2477,-312,-66,936,38,67,-51
2478,-316,-61,940,44,54,-30
2479,-308,-36,986,57,46,-6
2480,-292,-47,966,79,13,23
2481,-302,-50,952,38,-54,37
2482,-314,-63,941,-31,-61,29
2483,-332,-87,929,-118,-18,11
2484,-323,-100,943,-187,71,-47
2485,-334,-95,937,-228,161,-90
2486,-319,-80,965,-179,192,-98
2487,-309,-77,954,-44,171,-71
2488,-301,-63,978,85,118,-34
2489,-307,-61,991,174,73,23
2490,-303,-65,995,143,28,48
2491,-321,-64,990,22,-1,64
2492,-306,-88,969,-115,-1,44
2493,-313,-97,966,-183,30,21
2494,-332,-93,976,-173,36,11
2495,-340,-113,946,-74,38,-1
2496,-340,-99,971,32,52,-18
2497,-336,-96,981,44,52,9
2498,-322,-105,990,55,56,-1
2499,-312,-82,999,3,46,-10
2500,-309,-81,1000,-83,5,-8
2501,-321,-95,959,-107,-26,-22
2502,-325,-74,959,-140,-38,-47
2503,-330,-76,954,-175,3,-51
2504,-331,-87,971,-185,26,-40
2505,-329,-85,975,-117,32,-24
2506,-321,-97,960,24,3,-10
2507,-335,-102,973,112,-50,-12
2508,-333,-106,963,143,-59,-34
2509,-335,-86,976,55,-69,-36
2510,-334,-70,982,-33,-67,-40
2511,-324,-52,983,-77,-42,-47
2512,-327,-64,998,-105,-44,-20
2513,-312,-77,985,-44,-81,-6
2514,-312,-93,965,8,-157,-18
2515,-334,-87,962,12,-196,-36
2516,-327,-95,932,12,-153,-45
2517,-322,-80,918,18,-99,-65
2518,-318,-69,927,16,-48,-47
2519,-325,-70,946,26,3,-59
2520,-304,-55,953,-27,46,-44
2521,-307,-82,971,-105,7,-26
2522,-304,-65,973,-150,-15,-36
2523,-315,-56,962,-99,-52,5
2524,-312,-76,952,48,-110,74
2525,-323,-88,933,192,-106,81
2526,-323,-95,925,212,-79,68
2527,-325,-94,935,118,-16,42
2528,-323,-85,940,24,62,3
2529,-319,-69,967,-36,93,17
2530,-313,-83,957,-40,91,42
2531,-306,-91,966,-3,71,-12
2532,-307,-71,960,-23,13,-20
2533,-318,-76,944,-50,-36,13
2534,-322,-85,935,-15,-20,15
2535,-327,-91,935,1,25,9
2536,-313,-91,938,-34,67,17
2537,-318,-91,931,-38,128,1
2538,-306,-84,955,-34,128,3
2539,-318,-79,946,18,110,3
2540,-314,-79,957,63,103,23
2541,-302,-72,966,108,75,35
2542,-308,-72,963,106,40,7
2543,-322,-69,950,-3,13,11
2544,-316,-80,944,-70,54,1
2545,-309,-80,956,-91,79,-1
2546,-316,-92,934,-42,110,-1
2547,-329,-79,946,-17,140,21
2548,-324,-96,963,28,150,46
2549,-327,-89,965,67,148,27
2550,-322,-76,973,14,150,-4
2551,-318,-63,983,-60,153,3
2552,-317,-71,969,-115,136,7
2553,-318,-76,979,-79,69,42
2554,-322,-76,975,-5,19,74
2555,-322,-93,950,57,3,81
2556,-329,-106,942,92,48,54
2557,-333,-88,982,49,91,35
2558,-331,-95,983,-23,142,17
2559,-329,-87,996,-91,155,-4
2560,-318,-79,1006,-126,118,-4
2561,-335,-89,1009,-150,107,13
2562,-338,-100,1011,-185,91,25
2563,-338,-120,1024,-175,52,3
2564,-337,-94,1030,-136,-1,-1
2565,-331,-110,1024,-68,-32,5
2566,-338,-113,1026,-9,-65,3
2567,-347,-123,1027,7,-91,7
2568,-350,-133,1024,20,-40,-26
2569,-350,-141,1054,-34,30,-57
2570,-338,-119,1094,-97,77,-112
2571,-341,-91,1138,-97,85,-104
2572,-299,-123,1169,-54,19,-36
2573,-282,-134,1183,61,-61,-32
2574,-300,-140,1203,161,-181,-30
2575,-329,-114,1232,272,-200,-22
2576,-323,-90,1280,311,-112,-14
2577,-332,-98,1329,165,-48,9
2578,-319,-96,1364,-154,5,-16
2579,-338,-117,1398,-566,60,-12
2580,-355,-195,1400,-978,64,-12
2581,-361,-229,1423,-1316,46,-88
2582,-382,-167,1497,-1324,-145,-92
2583,-394,-123,1539,-650,-548,72
2584,-424,-151,1553,389,-897,289
2585,-467,-222,1541,1094,-1124,386
2586,-518,-243,1558,1059,-1198,361
2587,-509,-268,1554,405,-1163,203
2588,-494,-281,1582,-204,-1161,-24
2589,-483,-246,1561,-534,-1360,-133
2590,-487,-244,1532,-695,-1688,-211
2591,-509,-197,1499,-591,-2001,-206
2592,-498,-201,1460,-150,-2321,-141
2593,-510,-204,1426,344,-2558,-81
2594,-475,-243,1418,637,-2725,-38
2595,-455,-268,1391,737,-2872,-81
2596,-469,-256,1374,544,-3005,-186
2597,-485,-218,1330,260,-3085,-313
2598,-446,-245,1316,57,-3157,-428
2599,-457,-199,1272,32,-3253,-526
2600,-469,-163,1275,104,-3409,-573
2601,-488,-107,1225,301,-3591,-460
2602,-432,-133,1176,423,-3888,-229
2603,-351,-206,1095,594,-4106,-253
2604,-319,-193,1017,466,-4231,-411
2605,-308,-164,903,61,-4356,-567
2606,-242,-132,809,-388,-4356,-737
2607,-190,-76,699,-609,-4259,-899
2608,-156,-65,574,-576,-4210,-1077
2609,-102,-60,428,-314,-4026,-1282
2610,-63,41,333,147,-3686,-1540
2611,-40,216,277,290,-3177,-1290
2612,35,276,256,202,-2628,-614
2613,130,251,318,344,-2048,-145
2614,180,200,346,612,-1618,162
2615,194,117,363,661,-1583,232
2616,161,54,352,505,-1620,214
2617,127,-21,367,337,-1604,99
2618,195,-100,368,153,-1452,-204
2619,106,59,431,77,-1255,-282
2620,110,75,531,235,-1263,9
2621,177,17,642,712,-1194,331
2622,195,-17,712,1391,-1329,396
2623,192,-41,686,1616,-1634,296
2624,212,-16,657,1401,-1825,236
2625,253,-19,610,1104,-1802,17
2626,253,65,581,719,-1722,-141
2627,287,151,525,280,-1475,-96
2628,310,138,497,75,-1151,46
2629,315,143,504,106,-800,97
2630,320,125,541,169,-479,189
2631,324,83,562,268,-224,261
2632,294,52,681,380,-73,210
2633,304,102,732,413,73,236
2634,352,148,824,395,120,285
2635,367,177,877,299,52,306
2636,388,212,904,73,-99,365
2637,375,195,900,-79,-175,404
2638,373,181,867,-232,-225,400
2639,368,195,872,-283,-239,374
2640,357,248,885,-191,-204,283
2641,366,344,887,-195,-177,396
2642,344,409,945,-228,-167,632
2643,372,452,973,-77,-141,861
2644,399,474,954,174,-212,1066
2645,412,479,941,380,-292,1195
2646,360,463,876,337,-407,1369
2647,346,456,836,225,-372,1517
2648,308,468,786,157,-288,1667
2649,273,472,725,126,-169,1800
2650,249,471,677,94,-42,2015
2651,227,463,666,106,50,2191
2652,231,412,626,171,134,2392
2653,234,369,576,296,179,2503
2654,184,353,541,434,224,2576
2655,160,323,507,518,362,2693
2656,153,258,484,571,509,2849
2657,135,226,466,624,609,2943
2658,100,194,462,673,761,2953
2659,86,148,469,700,901,3005
2660,118,112,490,743,1021,3029
2661,147,68,484,864,1144,3060
2662,111,1,454,1063,1183,3091
2663,45,-58,436,1217,1275,3124
2664,28,-162,432,1317,1472,3119
2665,-8,-229,447,1327,1767,3021
2666,-43,-245,469,1073,1993,2874
2667,-132,-235,524,917,2218,2771
2668,-79,-321,565,987,2544,2699
2669,-37,-438,587,1034,2878,2740
2670,-81,-573,628,899,3110,2640
2671,-146,-658,720,464,3214,2355
2672,-211,-683,753,-118,3286,2017
2673,-249,-653,848,-443,3243,1628
2674,-229,-604,911,-322,3220,1412
2675,-198,-640,961,239,3073,1322
2676,-104,-752,958,758,2845,1232
2677,-87,-829,921,895,2726,982
2678,-154,-777,919,516,2724,562
2679,-221,-721,938,-177,2901,267
2680,-291,-685,995,-544,3204,95
2681,-334,-665,1072,-540,3427,-20
2682,-368,-687,1184,-355,3548,-186
2683,-342,-749,1235,-173,3616,-358
2684,-342,-816,1288,-72,3421,-469
2685,-378,-812,1322,53,3036,-586
2686,-465,-811,1320,243,2687,-807
2687,-495,-815,1308,374,2372,-1047
2688,-526,-805,1295,592,2177,-1424
2689,-562,-762,1313,622,2130,-1823
2690,-582,-664,1357,421,2234,-2206
2691,-568,-565,1399,122,2362,-2454
2692,-539,-511,1437,-85,2362,-2651
2693,-518,-481,1412,-286,2120,-2747
2694,-542,-447,1368,-283,1673,-2809
2695,-551,-408,1309,-34,1284,-2899
2696,-524,-373,1259,299,966,-2903
2697,-542,-308,1209,714,745,-2979
2698,-508,-214,1207,932,616,-3020
2699,-465,-106,1200,1108,773,-3126
2700,-425,-15,1217,1096,976,-3229
2701,-410,63,1270,780,1126,-3317
2702,-390,186,1322,438,1194,-3323
2703,-398,224,1336,63,1101,-3315
2704,-314,282,1348,-234,860,-3001
2705,-315,343,1328,-50,646,-2749
2706,-274,300,1303,63,384,-2489
2707,-244,266,1253,182,185,-2264
2708,-291,302,1233,266,75,-2194
2709,-309,338,1218,217,169,-2131
2710,-270,343,1225,149,359,-2044
2711,-264,339,1246,-42,458,-1991
2712,-269,371,1273,-427,542,-1885
2713,-244,358,1250,-742,597,-1688
2714,-244,311,1237,-870,480,-1499
2715,-240,284,1173,-898,282,-1239
2716,-255,241,1145,-722,81,-989
2717,-271,202,1107,-359,-65,-780
2718,-304,173,1057,-11,-65,-633
2719,-327,147,1029,296,36,-520
2720,-351,107,1043,442,202,-463
2721,-353,91,1071,399,362,-456
2722,-323,46,1093,137,417,-428
2723,-297,30,1092,-107,351,-432
2724,-303,64,1071,-165,224,-415
2725,-297,76,1068,-17,73,-333
2726,-314,60,1057,229,-36,-245
2727,-318,41,1033,323,-114,-180
2728,-315,3,1023,305,-122,-122
2729,-299,-25,1000,200,-100,-71
2730,-282,-45,984,141,-128,-69
2731,-296,-35,983,132,-136,-100
2732,-291,-35,987,94,-126,-86
2733,-284,-53,996,42,-112,-86
2734,-297,-46,994,30,-85,-118
2735,-279,-32,988,28,-34,-143
2736,-268,-48,992,24,-3,-92
2737,-280,-47,991,53,-38,-83
2738,-276,-36,980,108,-69,-34
2739,-287,-41,970,202,-112,42
2740,-285,-50,969,237,-136,107
2741,-281,-57,954,290,-159,167
2742,-264,-79,948,257,-184,206
2743,-274,-77,937,190,-116,179
2744,-271,-84,940,18,11,142
2745,-270,-84,942,-136,142,150
2746,-285,-102,963,-150,183,115
2747,-297,-86,985,-76,157,89
2748,-311,-87,1012,-9,97,128
2749,-303,-102,1022,26,-15,199
2750,-309,-121,990,126,-102,214
2751,-301,-123,984,149,-169,206
2752,-296,-140,955,77,-141,167
2753,-279,-135,949,-93,-83,107
2754,-275,-117,949,-251,-13,15
2755,-264,-92,943,-394,62,-14
2756,-257,-99,965,-429,91,3
2757,-277,-81,976,-357,64,35
2758,-279,-89,967,-161,-1,99
2759,-267,-122,969,75,-89,185
2760,-273,-150,963,229,-155,185
2761,-275,-162,943,229,-165,146
2762,-283,-157,917,174,-110,97
2763,-295,-141,939,22,7,33
2764,-290,-118,952,-161,132,21
2765,-281,-113,949,-257,192,35
2766,-275,-110,963,-251,177,52
2767,-259,-114,986,-152,112,130
2768,-265,-148,955,-21,54,189
2769,-277,-159,954,83,-18,236
2770,-300,-196,947,94,-71,214
2771,-301,-189,954,22,-50,107
2772,-299,-187,934,-83,42,-49
2773,-305,-167,928,-220,89,-124
2774,-296,-158,945,-294,161,-184
2775,-286,-126,960,-214,185,-155
2776,-282,-120,975,-62,118,-90
2777,-292,-96,963,92,77,-34
2778,-280,-105,993,178,44,31
2779,-276,-149,972,151,-18,25
2780,-288,-151,974,-5,-38,-18
2781,-287,-140,945,-191,7,-86
2782,-284,-132,935,-310,75,-120
2783,-276,-132,951,-267,128,-122
2784,-272,-139,951,-101,165,-88
2785,-291,-122,985,110,151,-75
2786,-288,-115,996,284,136,-44
2787,-282,-103,1012,327,109,-10
2788,-279,-105,1013,266,69,-10
2789,-289,-95,992,106,48,-18
2790,-273,-121,986,-38,11,-4
2791,-281,-138,961,-122,-16,-61
2792,-310,-132,944,-197,-9,-124
2793,-332,-140,936,-249,67,-139
2794,-318,-105,951,-189,153,-120
2795,-292,-100,976,8,134,-92
2796,-298,-96,973,217,26,-38
2797,-308,-96,967,301,-38,17
2798,-304,-94,944,276,-38,60
2799,-289,-111,965,149,19,52
2800,-276,-112,966,-23,75,1
2801,-268,-123,955,-191,50,-36
2802,-288,-137,923,-255,60,-102
2803,-299,-109,936,-243,95,-104
2804,-287,-112,941,-150,155,-71
2805,-287,-111,956,-33,214,-57
2806,-290,-99,980,63,212,7
2807,-297,-113,994,157,191,52
2808,-299,-111,1015,143,151,85
2809,-306,-128,1030,61,112,48
2810,-293,-144,1002,-31,52,21
2811,-312,-153,970,-72,-30,-16
2812,-309,-147,958,-97,-42,-71
2813,-313,-132,963,-81,-16,-92
2814,-317,-119,952,3,-5,-86
2815,-307,-112,957,112,26,-38
2816,-285,-112,964,219,36,-1
2817,-289,-121,979,219,9,23
2818,-299,-129,975,151,15,39
2819,-296,-117,974,67,64,17
2820,-283,-126,980,-31,71,9
2821,-295,-142,997,-44,46,-4
2822,-317,-152,989,-34,-1,-26
2823,-324,-144,958,7,-3,-51
2824,-317,-144,957,63,15,-55
2825,-332,-144,961,120,23,-30
2826,-319,-133,974,182,48,-28
2827,-315,-144,989,178,71,-45
2828,-312,-134,1005,100,44,-61
2829,-302,-119,1011,30,-11,-96
2830,-306,-109,999,-15,-79,-106
2831,-298,-123,975,26,-141,-90
2832,-309,-130,936,110,-181,-88
2833,-310,-140,926,126,-175,-104
2834,-305,-123,949,130,-97,-133
2835,-290,-110,971,149,-26,-131
2836,-302,-107,967,147,1,-118
2837,-305,-98,958,169,-3,-120
2838,-308,-102,972,143,-22,-108
2839,-293,-91,982,79,-18,-120
2840,-290,-101,985,-68,-56,-90
2841,-288,-113,963,-136,-124,-92
2842,-304,-118,945,-105,-159,-124
2843,-310,-119,916,-99,-126,-129
2844,-297,-122,925,-54,-34,-143
2845,-294,-118,929,42,17,-161
2846,-305,-109,948,139,11,-143
2847,-284,-83,974,194,30,-90
2848,-280,-81,975,210,40,-42
2849,-274,-79,959,217,5,-8
2850,-279,-84,978,151,-7,23
2851,-285,-92,964,63,5,27
2852,-283,-111,954,-31,-16,17
2853,-282,-119,940,-58,-44,-12
2854,-297,-131,937,-50,-36,-69
2855,-287,-103,937,-64,5,-94
2856,-301,-96,931,-42,67,-98
2857,-274,-87,946,42,85,-18
2858,-282,-90,943,214,87,29
2859,-286,-90,960,270,83,42
2860,-298,-93,972,174,112,33
2861,-299,-105,971,-19,165,13
2862,-290,-94,984,-179,157,-4
2863,-288,-100,983,-181,83,-34
2864,-288,-106,966,-87,-13,-26
2865,-309,-118,917,53,-59,-14
2866,-293,-127,921,132,-1,7
2867,-298,-120,924,178,105,13
2868,-297,-98,933,157,179,11
2869,-295,-86,974,92,234,27
2870,-280,-95,999,40,249,60
2871,-287,-112,989,51,183,74
2872,-292,-119,984,59,110,50
2873,-313,-125,994,65,77,42
2874,-311,-132,982,65,48,13
2875,-318,-104,1010,59,52,3
2876,-308,-108,995,71,83,17
2877,-304,-121,1012,75,83,23
2878,-310,-112,986,44,81,7
2879,-307,-118,987,-66,103,5
2880,-309,-128,993,-158,153,-16
2881,-310,-118,1000,-202,155,-51
2882,-330,-113,1006,-232,118,-47
2883,-317,-100,1027,-134,81,-10
2884,-319,-114,1020,51,17,21
2885,-330,-136,1012,133,-58,23
2886,-323,-150,989,65,-77,-1
2887,-320,-147,973,-31,-93,-47
2888,-329,-128,954,-83,-63,-77
2889,-316,-110,957,-83,7,-90
2890,-319,-99,978,-83,54,-86
2891,-309,-94,987,-107,56,-57
2892,-304,-86,1003,-103,28,-30
2893,-295,-81,986,-56,-26,-8
2894,-298,-102,967,36,-120,29
2895,-312,-115,947,85,-165,58
2896,-313,-117,915,75,-112,48
2897,-317,-115,934,24,-24,25
2898,-310,-119,948,-58,69,-18
2899,-302,-117,944,-115,107,-40
2900,-303,-94,964,-68,69,-44
2901,-312,-90,982,-3,11,-10
2902,-300,-95,978,28,-9,5
2903,-296,-113,964,-19,-52,7
2904,-312,-116,947,-126,-91,33
2905,-315,-116,926,-120,-87,31
2906,-316,-114,927,-33,-81,37
2907,-329,-119,916,49,-40,56
2908,-308,-120,917,132,50,23
2909,-298,-126,940,130,97,-22
2910,-292,-107,944,63,116,-42
2911,-303,-104,987,-7,128,-51
2912,-309,-97,979,-44,112,-12
2913,-315,-98,982,-5,54,35
2914,-308,-128,982,61,-3,85
2915,-317,-153,977,98,-28,46
2916,-330,-158,958,20,-40,15
2917,-317,-150,966,-66,15,-42
2918,-302,-116,979,-62,62,-77
2919,-312,-108,982,1,46,-49
2920,-290,-121,979,42,5,-45
2921,-309,-117,979,20,-1,-44
2922,-307,-112,988,-62,36,-22
2923,-310,-123,998,-87,75,-24
2924,-313,-131,1010,-72,50,-24
2925,-324,-149,1007,-52,30,-47
2926,-331,-149,1001,-38,48,-85
2927,-320,-155,1015,-13,58,-98
2928,-318,-141,1024,14,58,-122
2929,-305,-91,1028,51,75,-75
2930,-287,-99,1060,196,97,-1
2931,-284,-99,1092,378,48,37
2932,-302,-113,1107,428,5,64
2933,-325,-152,1127,350,-9,52
2934,-323,-168,1153,180,-16,-4
2935,-313,-163,1166,26,-32,-81
2936,-299,-175,1193,-81,-59,-145
2937,-322,-142,1236,-46,-145,-165
2938,-319,-109,1270,190,-243,-114
2939,-324,-108,1325,540,-329,-57
2940,-319,-121,1346,651,-409,9
2941,-301,-138,1373,536,-421,33
2942,-314,-147,1416,319,-474,17
2943,-338,-172,1441,83,-552,-8
2944,-365,-158,1454,-40,-614,-42
2945,-377,-167,1471,-72,-724,-47
2946,-399,-163,1501,48,-860,-24
2947,-415,-156,1526,255,-1040,46
2948,-404,-165,1544,448,-1237,150
2949,-425,-193,1555,522,-1460,175
2950,-449,-177,1544,315,-1632,103
2951,-428,-193,1545,-60,-1802,81
2952,-410,-204,1520,-359,-1915,78
2953,-411,-211,1515,-439,-2181,74
2954,-418,-196,1473,-167,-2458,111
2955,-427,-195,1473,268,-2667,164
2956,-414,-201,1480,659,-2778,244
2957,-432,-215,1509,872,-2915,222
2958,-435,-156,1530,811,-2995,80
2959,-427,-126,1507,501,-3106,-18
2960,-399,-136,1447,83,-3350,-67
2961,-359,-141,1362,-298,-3599,-155
2962,-352,-96,1270,-501,-3860,-223
2963,-363,-43,1173,-525,-4173,-110
2964,-393,-61,1093,-275,-4431,37
2965,-414,-113,988,36,-4599,107
2966,-389,-173,827,130,-4624,52
2967,-335,-186,649,5,-4466,-86
2968,-272,-192,494,-302,-4013,-338
2969,-145,-142,402,-851,-3468,-629
2970,-72,-33,303,-1349,-3081,-893
2971,-25,90,247,-1300,-2841,-961
2972,32,240,184,-720,-2593,-592
2973,116,216,188,1,-2360,9
2974,189,114,211,813,-2069,353
2975,231,45,202,1323,-1854,439
2976,183,-23,239,1378,-1696,521
2977,170,-74,275,1210,-1446,417
2978,187,-100,323,950,-1145,128
2979,220,-62,374,598,-903,-196
2980,275,22,421,194,-712,-413
2981,270,150,480,-70,-565,-311
2982,334,185,561,-17,-556,-20
2983,356,159,601,454,-530,113
2984,351,106,617,813,-618,206
2985,355,46,655,733,-647,220
2986,351,32,670,520,-518,91
2987,317,41,715,247,-503,-26
2988,297,12,734,104,-460,-85
2989,254,63,813,298,-317,-165
2990,232,112,889,444,-218,11
2991,221,76,973,512,-251,218
2992,220,13,989,551,-350,257
2993,231,5,951,294,-556,206
2994,211,-7,912,7,-784,171
2995,220,-17,839,20,-895,56
2996,219,26,799,65,-862,-36
2997,227,40,774,112,-710,-55
2998,214,126,801,255,-442,-86
2999,223,193,884,255,-198,93
3000,277,194,959,130,50,228
3001,342,196,967,-95,150,279
3002,351,287,1002,-417,-175,539
3003,337,252,998,-382,-5,369
3004,378,307,987,-138,-274,710
3005,339,334,968,157,-401,869
3006,324,342,979,294,-378,1056
3007,338,350,1002,290,-257,1179
3008,339,360,1007,73,-220,1224
3009,346,369,1027,-255,-247,1318
3010,337,393,1003,-490,-347,1412
3011,314,401,946,-611,-515,1560
3012,321,385,892,-605,-634,1742
3013,269,384,814,-429,-653,1833
3014,229,390,766,-343,-563,1949
3015,232,364,723,-365,-403,2101
3016,236,346,687,-437,-251,2195
3017,202,365,656,-712,-116,2326
3018,190,358,609,-1019,28,2509
3019,185,321,561,-1243,144,2781
3020,150,242,528,-1238,107,3072
3021,106,168,455,-865,136,3160
3022,75,115,393,-531,243,3277
3023,29,41,379,-195,396,3433
3024,17,-56,356,159,710,3476
3025,70,-151,321,305,1071,3492
3026,93,-244,362,284,1302,3445
3027,80,-298,371,231,1409,3234
3028,54,-325,398,192,1491,3048
3029,41,-345,430,235,1556,2994
3030,30,-355,482,446,1710,2902
3031,-8,-420,520,696,1933,2851
3032,-26,-542,555,768,2093,2869
3033,-46,-673,575,704,2253,2724
3034,-102,-772,588,567,2300,2497
3035,-147,-860,598,544,2317,2181
3036,-211,-881,635,557,2370,1872
3037,-184,-890,685,710,2413,1601
3038,-198,-905,737,985,2609,1316
3039,-195,-932,811,1110,2798,1007
3040,-181,-933,862,944,3048,652
3041,-214,-930,928,639,3153,371
3042,-250,-930,956,368,3116,181
3043,-307,-926,1001,460,2915,-10
3044,-289,-976,999,874,2622,-157
3045,-296,-996,980,1391,2386,-401
3046,-351,-976,982,1626,2226,-743
3047,-380,-905,1002,1516,2382,-1129
3048,-412,-817,1057,1229,2737,-1489
3049,-419,-745,1147,1040,2923,-1729
3050,-488,-581,1253,669,2900,-2139
3051,-472,-651,1221,981,2984,-1997
3052,-399,-610,1255,395,2743,-2194
3053,-371,-630,1223,391,2398,-2331
3054,-382,-576,1186,536,1903,-2465
3055,-430,-491,1144,1018,1569,-2577
3056,-483,-413,1103,1633,1441,-2758
3057,-530,-278,1147,2055,1577,-3010
3058,-509,-118,1220,1860,1958,-3153
3059,-438,-21,1356,1188,2319,-3227
3060,-370,32,1386,309,2460,-3276
3061,-279,44,1430,-324,2265,-3147
3062,-253,61,1399,-318,1753,-2989
3063,-245,92,1330,173,1146,-2700
3064,-289,106,1252,1065,679,-2458
3065,-358,158,1232,1792,528,-2385
3066,-351,270,1282,1786,833,-2497
3067,-340,380,1359,1092,1390,-2598
3068,-297,384,1405,7,1802,-2577
3069,-203,343,1447,-1023,1855,-2366
3070,-248,305,1419,-1451,1491,-2210
3071,-305,281,1352,-1302,974,-1975
3072,-307,234,1265,-742,579,-1682
3073,-346,170,1207,-103,317,-1448
3074,-360,158,1191,258,230,-1354
3075,-355,158,1165,313,327,-1333
3076,-358,174,1190,75,495,-1282
3077,-341,158,1165,-351,685,-1249
3078,-305,151,1188,-540,761,-1208
3079,-304,131,1177,-423,655,-1120
3080,-295,152,1179,-189,462,-960
3081,-324,163,1187,171,280,-786
3082,-322,155,1183,417,109,-670
3083,-340,175,1165,382,38,-614
3084,-320,166,1148,79,42,-555
3085,-301,143,1130,-251,77,-499
3086,-301,111,1092,-587,77,-436
3087,-292,85,1068,-761,28,-340
3088,-302,53,1043,-654,-63,-235
3089,-339,36,1022,-296,-163,-116
3090,-336,0,996,91,-222,5
3091,-331,-45,975,376,-220,76
3092,-356,-37,989,462,-93,42
3093,-347,-47,1005,292,112,39
3094,-313,-52,1030,57,261,27
3095,-292,-55,1063,-87,202,-18
3096,-298,-51,1049,-87,-13,-20
3097,-317,-40,1022,30,-177,17
3098,-309,-75,1008,28,-274,117
3099,-306,-124,983,16,-315,150
3100,-311,-120,942,87,-345,107
3101,-324,-94,940,186,-347,93
3102,-336,-82,949,262,-192,70
3103,-325,-85,961,196,30,54
3104,-309,-129,994,1,161,29
3105,-293,-112,977,-175,165,-10
3106,-261,-90,998,-177,83,39
3107,-268,-84,992,8,-79,85
3108,-304,-75,969,235,-247,142
3109,-306,-56,962,383,-347,224
3110,-329,-66,961,372,-300,232
3111,-306,-85,968,139,-163,253
3112,-298,-109,945,-115,-81,232
3113,-296,-124,905,-322,-71,150
3114,-273,-138,902,-406,-20,146
3115,-270,-158,923,-216,25,164
3116,-298,-157,924,55,30,142
3117,-303,-150,923,210,48,134
3118,-315,-146,949,219,81,140
3119,-288,-139,986,225,91,181
3120,-298,-107,1021,317,93,156
3121,-307,-98,1021,278,71,185
3122,-299,-137,1018,120,19,179
3123,-292,-150,1002,-81,-63,109
3124,-285,-130,967,-232,-169,103
3125,-296,-106,952,-175,-225,150
3126,-280,-103,946,-77,-243,218
3127,-258,-134,930,51,-218,246
3128,-271,-129,904,137,-169,193
3129,-262,-140,904,173,-100,124
3130,-277,-150,909,106,38,52
3131,-291,-115,942,-56,167,9
3132,-272,-101,973,-202,192,68
3133,-279,-123,976,-177,132,87
3134,-278,-128,966,-77,40,85
3135,-291,-146,962,-34,-42,111
3136,-284,-132,962,26,-79,138
3137,-276,-132,941,233,-99,175
3138,-292,-163,922,387,-114,158
3139,-302,-150,920,393,-46,99
3140,-293,-159,937,278,79,33
3141,-284,-132,956,59,185,-32
3142,-284,-98,964,-91,261,-59
3143,-273,-81,980,-158,296,-16
3144,-262,-79,998,-87,253,35
3145,-267,-104,990,-27,140,87
3146,-268,-110,990,26,26,89
3147,-275,-110,970,85,-87,124
3148,-278,-153,956,110,-147,138
3149,-310,-139,930,59,-179,124
3150,-352,-142,942,40,-61,9
3151,-313,-136,916,-27,200,-36
3152,-292,-135,962,-68,247,-44
3153,-299,-108,977,-60,257,-53
3154,-297,-98,1006,1,267,-20
3155,-278,-97,1012,61,206,35
3156,-287,-106,1023,69,91,46
3157,-297,-106,1001,26,-13,42
3158,-294,-115,978,-46,-58,27
3159,-292,-115,961,-79,-73,1
3160,-323,-125,948,-76,-58,-26
3161,-317,-138,950,-103,-34,-47
3162,-320,-120,936,-44,7,-65
3163,-310,-112,939,32,38,-16
3164,-299,-125,946,139,58,27
3165,-308,-112,937,231,73,23
3166,-299,-92,971,194,109,17
3167,-290,-109,991,63,126,29
3168,-290,-111,995,-42,97,-4
3169,-276,-105,993,-130,13,-47
3170,-296,-93,979,-136,-61,-45
3171,-296,-120,969,-50,-118,-1
3172,-300,-129,945,89,-106,-10
3173,-312,-131,933,171,-40,-32
3174,-309,-129,953,171,38,-8
3175,-300,-98,965,167,116,21
3176,-288,-115,977,217,144,7
3177,-275,-107,989,221,81,-14
3178,-297,-105,1000,92,7,-34
3179,-293,-90,1000,-103,-11,-69
3180,-298,-92,1003,-247,-36,-110
3181,-294,-80,990,-265,-65,-145
3182,-311,-84,972,-279,-93,-90
3183,-291,-100,955,-251,-108,25
3184,-317,-113,952,-83,-138,95
3185,-302,-127,921,169,-58,81
3186,-288,-140,935,247,-26,72
3187,-297,-134,955,192,-1,25
3188,-302,-108,964,63,73,-28
3189,-298,-89,970,-74,118,-44
3190,-300,-91,1003,-142,112,-32
3191,-284,-93,1016,-124,77,1
3192,-306,-113,990,-29,-7,35
3193,-308,-123,984,48,-69,58
3194,-301,-124,989,120,-61,64
3195,-305,-115,999,135,-65,52
3196,-295,-134,989,106,-97,31
3197,-310,-134,962,61,-91,-22
3198,-305,-133,957,-29,-36,-67
3199,-308,-115,967,-93,40,-85
3200,-296,-110,976,-113,77,-88
3201,-291,-101,984,-109,58,-79
3202,-276,-87,1021,-83,5,-44
3203,-280,-98,1016,-13,-99,3
3204,-287,-117,981,65,-204,-12
3205,-314,-122,938,3,-235,-30
3206,-305,-129,931,-103,-149,-42
3207,-289,-125,919,-146,-59,-69
3208,-281,-133,913,-142,-1,-77
3209,-299,-108,918,-81,60,-90
3210,-306,-94,956,-60,128,-44
3211,-292,-105,988,12,146,-8
3212,-295,-103,991,157,83,9
3213,-298,-120,1006,216,-58,27
3214,-310,-129,994,174,-134,-16
3215,-293,-125,976,5,-136,-49
3216,-290,-112,932,-163,-120,-86
3217,-292,-107,917,-218,-67,-114
3218,-307,-110,928,-195,25,-116
3219,-308,-106,924,-130,150,-120
3220,-287,-95,956,-91,214,-86
3221,-294,-81,976,12,181,-44
3222,-288,-73,987,120,109,3
3223,-274,-100,995,155,-1,27
3224,-275,-92,969,112,-108,33
3225,-288,-107,961,46,-188,37
3226,-285,-104,917,30,-171,37
3227,-296,-111,913,51,-83,35
3228,-312,-129,922,51,17,-8
3229,-305,-111,942,34,122,-28
3230,-296,-90,953,63,167,-26
3231,-300,-102,988,122,146,-6
3232,-288,-89,998,133,112,31
3233,-284,-91,993,120,62,52
3234,-278,-85,989,69,9,58
3235,-278,-84,988,-19,-46,87
3236,-295,-94,975,-7,-124,107
3237,-293,-109,949,26,-155,115
3238,-313,-139,928,38,-110,93
3239,-299,-162,930,-3,7,39
3240,-298,-140,909,-81,110,-26
3241,-315,-143,949,-111,175,-61
3242,-296,-105,982,-38,196,-34
3243,-285,-92,1000,118,130,-10
3244,-291,-95,1006,192,26,37
3245,-289,-109,1002,130,-46,64
3246,-285,-116,983,36,-67,54
3247,-271,-140,968,-70,-73,21
3248,-308,-138,945,-120,-69,-20
3249,-327,-140,925,-142,13,-83
3250,-309,-132,935,-126,150,-110
3251,-287,-123,962,-40,210,-104
3252,-284,-100,999,49,171,-67
3253,-289,-101,1013,130,105,-26
3254,-284,-98,1028,135,48,-8
3255,-283,-119,1018,34,-26,29
3256,-299,-126,1002,-70,-79,5
3257,-314,-134,981,-175,-79,-30
3258,-318,-142,944,-238,-48,-44
3259,-324,-171,956,-224,5,-85
3260,-321,-138,940,-161,60,-108
3261,-314,-129,946,-60,71,-86
3262,-306,-104,962,79,81,-86
3263,-295,-92,994,163,66,-61
3264,-277,-104,991,171,-16,-63
3265,-296,-95,988,28,-81,-100
3266,-291,-100,980,-201,-67,-122
3267,-282,-81,952,-327,-13,-104
3268,-289,-87,948,-294,-13,-59
3269,-295,-96,941,-115,-26,-6
3270,-298,-112,930,77,-5,39
3271,-304,-116,922,180,48,54
3272,-307,-101,962,173,99,42
3273,-308,-112,982,48,138,21
3274,-304,-108,1004,-99,132,-28
3275,-307,-109,1003,-234,67,-71
3276,-306,-100,975,-284,-18,-73
3277,-305,-103,963,-267,-56,-57
3278,-297,-109,953,-161,-75,-8
3279,-295,-119,943,5,-91,68
3280,-301,-134,926,151,-75,97
3281,-284,-135,925,237,-30,91
3282,-304,-129,939,196,34,64
3283,-290,-132,953,63,91,39
3284,-300,-122,954,-54,114,-1
3285,-286,-137,946,-120,95,-18
3286,-310,-138,934,-117,50,-47
3287,-307,-127,954,-64,28,-16
3288,-314,-122,950,57,30,25
3289,-313,-123,959,155,15,89
3290,-312,-141,960,231,30,91
3291,-310,-160,968,173,69,54
3292,-297,-159,982,3,99,7
3293,-313,-155,981,-148,118,-79
3294,-319,-137,997,-247,101,-104
3295,-311,-127,1008,-185,67,-116
3296,-321,-106,988,-54,-16,-88
3297,-311,-109,990,55,-81,-26
3298,-316,-128,970,128,-71,-32
3299,-307,-112,975,92,-52,-38
3300,-293,-124,971,30,-38,-51
3301,-296,-113,953,-13,-20,-83
3302,-295,-116,954,-76,-3,-98
3303,-298,-103,955,-111,32,-98
3304,-316,-103,957,-79,69,-86
3305,-308,-91,967,-27,75,-57
3306,-307,-101,975,38,67,-6
3307,-301,-120,969,135,42,-1
3308,-308,-110,977,128,9,-1
3309,-297,-112,981,49,7,-8
3310,-297,-104,980,-21,7,-14
3311,-299,-95,969,-64,-15,-10
3312,-304,-109,969,-68,-22,-18
3313,-302,-115,949,-66,3,-26
3314,-292,-121,941,-77,50,-40
3315,-290,-120,947,-77,85,-45
3316,-292,-105,974,-29,97,-10
3317,-293,-110,975,73,109,48
3318,-294,-108,1023,149,69,107
3319,-312,-125,1030,176,19,107
3320,-310,-158,1041,63,5,95
3321,-301,-189,1041,-52,25,31
3322,-286,-202,1044,-138,40,-38
3323,-278,-192,1056,-115,81,-98
3324,-285,-169,1105,-15,89,-86
3325,-279,-153,1153,171,109,-34
3326,-292,-151,1232,442,114,-10
3327,-300,-150,1302,514,79,-38
3328,-306,-143,1377,255,-1,3
3329,-308,-143,1416,-25,-89,11
3330,-331,-177,1448,-286,-208,23
3331,-342,-225,1443,-367,-347,23
3332,-343,-274,1454,-298,-526,21
3333,-363,-283,1468,-40,-759,-16
3334,-404,-268,1515,214,-917,-49
3335,-399,-230,1595,372,-925,-133
3336,-390,-219,1650,323,-964,-219
3337,-421,-193,1665,53,-1136,-219
3338,-403,-202,1686,-220,-1272,-155
3339,-427,-231,1687,-281,-1501,-114
3340,-460,-263,1660,-216,-1858,-98
3341,-489,-246,1642,-91,-2175,-110
3342,-481,-260,1595,139,-2382,-69
3343,-500,-280,1559,436,-2608,-63
3344,-519,-269,1546,647,-2790,-114
3345,-494,-271,1502,680,-2940,-223
3346,-479,-232,1456,522,-3054,-403
3347,-446,-166,1410,133,-3081,-510
3348,-406,-123,1369,-185,-3167,-471
3349,-365,-127,1284,-300,-3382,-378
3350,-375,-163,1191,-195,-3620,-395
3351,-382,-176,1130,-70,-3823,-450
3352,-384,-174,1052,-9,-3944,-567
3353,-375,-170,946,-29,-3987,-694
3354,-357,-181,892,-46,-3983,-774
3355,-338,-142,845,-52,-3956,-723
3356,-268,-117,790,-85,-3974,-528
3357,-179,-135,730,28,-4003,-524
3358,-188,-66,674,73,-3993,-549
3359,-135,-56,628,-29,-3987,-463
3360,-32,-92,531,-105,-3856,-483
3361,26,-59,440,-189,-3655,-573
3362,77,-54,329,-247,-3429,-616
3363,86,0,278,-199,-3161,-669
3364,112,73,252,-11,-2804,-653
3365,148,102,224,276,-2341,-567
3366,235,131,235,487,-1819,-383
3367,272,110,282,577,-1378,-90
3368,290,62,338,766,-1225,89
3369,276,42,361,907,-1155,115
3370,278,18,383,839,-983,185
3371,274,1,414,612,-743,111
3372,337,50,455,223,-589,95
3373,337,78,492,223,-554,97
3374,299,100,518,430,-542,124
3375,298,117,574,585,-481,246
3376,323,93,610,641,-372,310
3377,355,63,619,477,-315,279
3378,345,82,651,214,-331,257
3379,343,88,655,44,-364,244
3380,351,102,657,67,-298,195
3381,349,96,686,176,-231,249
3382,330,96,732,319,-235,283
3383,312,127,771,466,-138,304
3384,271,144,808,542,-67,404
3385,279,123,849,423,-18,542
3386,291,91,883,235,79,550
3387,311,102,909,-60,83,474
3388,305,135,957,-408,25,429
3389,323,165,978,-595,3,374
3390,348,207,987,-626,-65,439
3391,364,240,1004,-493,-198,589
3392,369,261,1023,-253,-329,779
3393,358,292,1022,147,-374,927
3394,358,306,1007,383,-409,1058
3395,330,335,1023,344,-462,1167
3396,329,345,966,128,-407,1265
3397,325,367,936,-76,-458,1402
3398,330,412,904,-87,-429,1509
3399,304,463,866,71,-425,1701
3400,338,490,860,237,-391,1974
3401,290,471,845,522,-438,2275
3402,295,470,816,581,-452,2494
3403,307,463,763,483,-401,2749
3404,276,397,696,301,-388,2976
3405,268,353,626,94,-376,3173
3406,224,289,520,147,-350,3294
3407,137,241,452,594,-218,3363
3408,118,169,392,1005,-11,3523
3409,55,92,373,1526,200,3626
3410,39,7,366,1966,452,3650
3411,23,-45,348,2143,671,3591
3412,19,-89,336,1960,845,3499
3413,4,-192,297,1573,1026,3460
3414,-11,-302,241,1110,1112,3374
3415,-51,-384,249,801,1276,3089
3416,-93,-403,195,583,1558,2855
3417,-143,-404,199,579,1937,2837
3418,-108,-459,266,796,2452,2800
3419,-61,-612,318,1280,3136,2843
3420,-87,-680,427,1614,3628,2828
3421,-155,-764,534,1569,3917,2669
3422,-217,-872,613,1397,4056,2410
3423,-268,-969,713,1116,3933,1824
3424,-322,-924,747,745,3814,1226
3425,-325,-934,810,292,3710,878
3426,-287,-928,858,210,3784,621
3427,-241,-920,897,485,3958,300
3428,-276,-944,968,667,3989,5
3429,-301,-942,1047,753,3933,-401
3430,-417,-829,1125,700,3761,-909
3431,-459,-766,1210,292,3577,-1194
3432,-480,-772,1300,-89,3595,-1483
3433,-452,-746,1375,-376,3581,-1743
3434,-449,-718,1421,-363,3364,-1813
3435,-503,-718,1446,91,2952,-1827
3436,-548,-675,1447,647,2560,-1934
3437,-608,-613,1456,1081,2370,-2231
3438,-599,-523,1502,1057,2341,-2545
3439,-589,-393,1558,575,2321,-2924
3440,-522,-253,1599,-132,2372,-3133
3441,-478,-186,1598,-611,2290,-3065
3442,-450,-189,1536,-673,1888,-2938
3443,-468,-149,1466,-281,1417,-2850
3444,-487,-104,1409,235,1075,-2743
3445,-491,-42,1396,632,958,-2717
3446,-475,41,1387,549,1128,-2756
3447,-450,111,1412,128,1357,-2751
3448,-353,138,1393,-265,1450,-2657
3449,-302,171,1360,-306,1314,-2540
3450,-255,203,1338,-54,1040,-2321
3451,-250,231,1325,364,900,-2147
3452,-250,246,1328,676,755,-1948
3453,-292,275,1335,764,685,-1856
3454,-324,324,1328,514,692,-1760
3455,-308,299,1324,89,737,-1659
3456,-302,287,1312,-284,767,-1559
3457,-288,261,1265,-556,712,-1436
3458,-301,244,1234,-587,550,-1286
3459,-314,188,1196,-429,292,-1079
3460,-321,148,1149,-66,67,-948
3461,-317,132,1113,174,-81,-878
3462,-305,146,1059,255,-95,-848
3463,-294,146,1068,253,17,-811
3464,-275,140,1037,137,118,-731
3465,-279,119,1059,-17,157,-637
3466,-264,92,1038,-77,175,-586
3467,-271,55,1032,-91,93,-493
3468,-281,16,1014,16,-46,-395
3469,-279,1,1001,165,-106,-340
3470,-300,13,985,303,-52,-364
3471,-325,25,978,299,56,-348
3472,-338,19,989,157,228,-266
3473,-327,-19,1007,51,360,-235
3474,-313,-46,1008,-42,335,-229
3475,-312,-57,993,-105,222,-227
3476,-316,-82,962,-54,69,-208
3477,-326,-82,944,49,-22,-202
3478,-311,-81,944,114,-11,-208
3479,-310,-75,954,167,11,-208
3480,-317,-72,942,210,38,-208
3481,-312,-66,948,284,105,-202
3482,-315,-76,983,313,155,-184
3483,-321,-83,987,245,155,-190
3484,-310,-72,993,200,124,-206
3485,-294,-60,997,202,69,-157
3486,-277,-55,1002,305,-24,-86
3487,-304,-80,973,448,-128,-42
3488,-309,-91,935,440,-138,-45
3489,-312,-102,920,337,-58,-63
3490,-312,-57,965,292,114,-126
3491,-314,-37,999,227,245,-83
3492,-317,-67,1018,159,263,-34
3493,-311,-92,1012,87,208,-90
3494,-322,-106,995,-70,48,-143
3495,-299,-96,952,-169,-61,-131
3496,-288,-79,954,-54,-134,-75
3497,-296,-71,919,217,-204,-22
3498,-296,-55,943,512,-167,-1
3499,-300,-40,955,583,-36,15
3500,-290,-48,985,456,114,89
3501,-282,-82,1002,356,267,78
3502,-275,-93,999,237,298,35
3503,-282,-104,1034,173,245,7
3504,-285,-92,1025,206,165,-16
3505,-299,-101,1019,249,48,-16
3506,-303,-77,1016,290,-28,-38
3507,-297,-55,1038,276,-22,1
3508,-295,-63,1044,223,-69,54
3509,-299,-65,1027,196,-134,58
3510,-284,-66,1011,130,-155,64
3511,-316,-75,998,77,-112,37
3512,-309,-101,976,8,-32,37
3513,-304,-121,972,-62,9,5
3514,-298,-118,959,-124,-15,-49
3515,-300,-97,970,-101,-24,-42
3516,-288,-113,981,-5,-22,-26
3517,-287,-99,988,130,-54,7
3518,-310,-98,966,239,-114,27
3519,-304,-98,987,303,-157,42
3520,-304,-115,989,301,-177,-26
3521,-323,-99,994,100,-143,-94
3522,-315,-101,989,-193,-77,-94
3523,-302,-111,998,-296,-32,-129
3524,-299,-94,961,-238,-91,-129
3525,-309,-84,957,-46,-181,-88
3526,-312,-101,940,110,-188,-49
3527,-283,-98,940,237,-163,-34
3528,-276,-84,936,350,-140,-42
3529,-279,-69,958,401,-138,-49
3530,-286,-56,940,376,-85,-63
3531,-269,-68,955,235,-50,-106
3532,-292,-48,975,49,-26,-188
3533,-274,-45,980,-204,-20,-180
3534,-273,-51,983,-284,-18,-174
3535,-272,-36,965,-234,-79,-124
3536,-291,-43,960,-72,-145,-49
3537,-300,-61,950,122,-145,11
3538,-304,-81,943,298,-126,33
3539,-301,-100,947,376,-108,37
3540,-295,-124,950,337,-59,-1
3541,-285,-123,946,231,15,-86
3542,-292,-66,995,91,77,-165
3543,-281,-40,1025,-52,83,-161
3544,-276,-25,1031,-50,46,-126
3545,-262,-16,1020,8,-79,-51
3546,-279,-25,1021,83,-222,17
3547,-291,-52,992,159,-347,89
3548,-295,-84,982,239,-429,140
3549,-299,-123,955,239,-413,103
3550,-296,-140,920,178,-309,-20
3551,-303,-128,934,20,-155,-149
3552,-309,-90,936,-177,15,-223
3553,-289,-74,972,-292,136,-231
3554,-280,-61,1001,-247,150,-258
3555,-273,-45,1001,-154,58,-233
3556,-261,-38,1006,-42,-52,-178
3557,-253,-36,980,92,-141,-106
3558,-266,-50,964,141,-227,-49
3559,-282,-56,963,96,-192,-40
3560,-273,-63,936,24,-71,-67
3561,-270,-70,946,-58,17,-73
3562,-276,-66,966,-97,77,-86
3563,-274,-62,984,-87,128,-88
3564,-269,-65,983,-54,99,-81
3565,-261,-47,997,16,17,-73
3566,-282,-65,988,59,-59,-79
3567,-279,-50,995,48,-95,-42
3568,-270,-56,969,42,-91,-32
3569,-273,-50,989,42,-87,-30
3570,-278,-54,970,-7,-75,-10
3571,-279,-73,972,-50,-34,-32
3572,-285,-75,968,-74,5,-75
3573,-276,-83,964,-120,7,-96
3574,-282,-60,973,-89,-3,-118
3575,-279,-54,970,-25,-24,-110
3576,-276,-38,974,10,-38,-44
3577,-270,-37,986,28,-18,13
3578,-262,-44,986,30,-18,31
3579,-272,-63,969,-1,-58,44
3580,-272,-62,959,-66,-75,39
3581,-273,-75,950,-85,-75,60
3582,-280,-76,956,-17,-75,54
3583,-283,-95,950,34,-63,37
3584,-261,-84,946,30,-7,-1
3585,-271,-77,945,10,67,-53
3586,-270,-47,986,-15,93,-71
3587,-262,-40,1013,7,79,-73
3588,-254,-43,1002,28,13,-65
3589,-270,-33,1000,-3,-40,-1
3590,-261,-46,979,-9,-44,72
3591,-262,-64,981,36,-24,72
3592,-253,-69,976,36,-38,74
3593,-288,-73,971,-23,-22,64
3594,-295,-66,960,-93,67,60
3595,-275,-70,979,-91,140,44
3596,-264,-90,985,-81,140,23
3597,-270,-84,993,-118,124,1
3598,-274,-86,999,-189,83,-20
3599,-272,-82,1003,-185,15,-16
3600,-274,-81,989,-54,-71,21
3601,-270,-84,977,108,-106,60
3602,-287,-85,975,169,-81,80
3603,-276,-101,959,126,-32,70
3604,-278,-101,964,26,25,31
3605,-268,-84,956,-87,85,-24
3606,-270,-71,986,-169,120,-30
3607,-273,-82,973,-159,128,-24
3608,-285,-85,976,-93,107,7
3609,-273,-83,1012,7,50,50
3610,-285,-87,1015,89,-15,31
3611,-282,-86,1018,67,-77,23
3612,-284,-103,981,1,-97,25
3613,-281,-101,978,-21,-79,3
3614,-282,-91,977,-34,-59,-24
3615,-281,-102,976,-48,-20,-38
3616,-278,-98,976,-60,15,-59
3617,-284,-81,971,-56,9,-83
3618,-272,-66,983,-42,-20,-73
3619,-261,-57,983,-33,-46,-40
3620,-263,-70,975,-15,-93,-20
3621,-264,-80,962,-5,-145,-1
3622,-272,-96,942,18,-153,-4
3623,-284,-87,923,10,-112,-24
3624,-288,-93,930,-36,-26,-34
3625,-279,-95,952,-54,99,-57
3626,-269,-75,974,-70,142,-59
3627,-258,-83,981,-60,134,-44
3628,-279,-83,1002,-21,103,-18
3629,-273,-90,993,7,48,1
3630,-280,-87,985,49,5,-12
3631,-283,-79,984,24,-42,-16
3632,-277,-91,983,5,-52,-32
3633,-270,-91,971,-15,-58,-51
3634,-286,-84,955,-50,-58,-77
3635,-289,-81,946,-83,-18,-69
3636,-272,-81,958,-74,32,-67
3637,-260,-77,954,-23,58,-30
3638,-272,-77,952,48,40,-8
3639,-258,-57,960,91,58,15
3640,-251,-73,982,124,48,11
3641,-263,-71,957,57,9,1
3642,-269,-57,967,-33,3,-8
3643,-268,-78,958,-70,-5,-14
3644,-261,-84,954,-76,-7,-36
3645,-288,-87,937,-56,5,-55
3646,-295,-69,943,-33,38,-47
3647,-275,-61,955,-5,93,-1
3648,-273,-70,969,71,114,21
3649,-265,-82,983,108,97,42
3650,-264,-70,988,57,69,42
3651,-269,-83,970,12,52,31
3652,-278,-72,974,-36,38,9
3653,-289,-68,976,-76,69,3
3654,-279,-77,992,-85,128,-6
3655,-288,-79,999,-64,122,15
3656,-291,-80,996,-27,89,39
3657,-284,-86,1000,-9,69,46
3658,-275,-98,998,-13,25,39
3659,-281,-92,983,-29,9,27
3660,-263,-107,975,-23,-9,9
3661,-279,-90,974,-1,-24,7
3662,-299,-82,972,32,-22,33
3663,-293,-86,968,63,38,58
3664,-288,-103,972,65,97,54
3665,-300,-88,999,7,118,39
3666,-296,-85,1015,-44,132,25
3667,-279,-90,1031,-34,120,9
3668,-277,-95,1039,16,38,31
3669,-290,-101,1022,59,-65,31
3670,-292,-87,1009,57,-120,11
3671,-296,-105,980,49,-128,3
3672,-305,-107,967,16,-112,-30
3673,-298,-110,938,-23,-73,-75
3674,-306,-115,957,-46,-30,-110
3675,-295,-71,991,-76,50,-108
3676,-271,-64,1013,-27,69,-75
3677,-265,-72,1024,79,5,-53
3678,-256,-60,1021,133,-87,-32
3679,-278,-63,1002,112,-128,-20
3680,-276,-80,1008,44,-159,-16
3681,-271,-78,967,-1,-169,-49
3682,-279,-81,954,-54,-159,-69
3683,-278,-76,966,-85,-124,-83
3684,-264,-61,970,-60,-79,-83
3685,-276,-50,953,-15,-87,-16
3686,-285,-67,962,65,-87,29
3687,-278,-86,982,122,-50,13
3688,-288,-74,974,53,-59,21
3689,-280,-70,981,-42,-69,39
3690,-273,-80,954,-1,-85,56
3691,-289,-105,955,71,-110,31
3692,-303,-98,935,51,-87,11
3693,-287,-92,946,-13,7,-10
3694,-288,-86,954,-85,52,-30
3695,-269,-68,971,-97,46,-65
3696,-256,-46,971,-60,26,-30
3697,-258,-72,953,38,-26,17
3698,-264,-69,982,155,-81,58
3699,-261,-77,962,202,-93,60
3700,-281,-79,969,147,-73,56
3701,-283,-82,970,40,-59,39
3702,-284,-70,968,-64,-26,29
3703,-265,-84,955,-91,5,3
3704,-250,-94,947,-87,-7,-1
3705,-271,-79,947,-81,-22,-14
3706,-271,-73,945,-48,11,23
3707,-271,-94,957,32,42,23
3708,-275,-94,954,63,54,39
3709,-273,-96,959,100,58,3
3710,-275,-80,955,85,58,-14
3711,-277,-83,969,-31,25,50
3712,-268,-85,960,-15,15,35
3713,-275,-84,950,51,-42,25
3714,-270,-93,925,169,-59,31
3715,-278,-105,942,212,-40,21
3716,-263,-104,934,143,30,-32
3717,-279,-87,945,38,120,-83
3718,-263,-66,953,-126,210,-85
3719,-252,-56,970,-159,243,-59
3720,-254,-56,977,-89,181,-36
3721,-266,-63,981,12,89,23
3722,-273,-88,979,108,44,56
3723,-263,-105,971,128,30,23
3724,-269,-91,954,100,28,13
3725,-270,-94,957,106,73,-8
3726,-266,-85,946,73,144,-42
3727,-271,-75,970,8,214,-53
3728,-275,-63,977,-62,300,-44
3729,-262,-57,1032,-91,329,5
3730,-268,-58,1050,-46,275,25
3731,-292,-66,1065,-34,163,42
3732,-295,-90,1062,-60,91,70
3733,-288,-120,1054,-87,48,50
3734,-279,-117,1037,-62,42,23
3735,-297,-132,1043,38,67,-4
3736,-313,-123,1060,139,136,-28
3737,-302,-120,1104,153,245,-16
3738,-289,-122,1171,151,288,-20
3739,-300,-120,1221,192,259,-40
3740,-268,-119,1285,225,269,-81
3741,-283,-117,1352,200,251,-71
3742,-292,-121,1437,198,185,-96
3743,-320,-92,1517,204,112,-124
3744,-352,-65,1593,200,-28,-143
3745,-402,-87,1664,34,-181,-65
3746,-415,-152,1716,-54,-311,27
3747,-416,-208,1716,-54,-466,1
3748,-433,-259,1740,-74,-630,-114
3749,-449,-227,1783,-158,-796,-309
3750,-468,-207,1870,-156,-1087,-370
3751,-482,-163,1951,-34,-1395,-540
3752,-501,-94,1985,-3,-1729,-549
3753,-523,-85,2013,-36,-2046,-376
3754,-506,-153,1972,-95,-2352,-338
3755,-541,-193,1936,-408,-2806,-239
3756,-561,-238,1812,-654,-3257,-241
3757,-564,-288,1736,-806,-3618,-286
3758,-628,-246,1667,-701,-3825,-530
3759,-594,-220,1583,-695,-3942,-725
3760,-606,-194,1500,-845,-4261,-682
3761,-588,-227,1348,-849,-4600,-694
3762,-571,-259,1168,-800,-4880,-817
