sequence,AccelerometerX,AccelerometerY,AccelerometerZ,GyroscopeX,GyroscopeY,GyroscopeZ
0,1,-6,1006,-1,-5,0
1,-9,-8,988,-1,1,0
2,-13,1,1001,-1,1,2
3,-8,-4,1031,-3,-3,-3
4,-3,0,1007,-1,-1,-3
5,8,-11,992,1,1,-3
6,-2,-11,1005,-1,-1,0
7,-2,-13,978,1,1,-1
8,2,-5,996,1,-1,-3
9,7,2,1005,5,3,0
10,4,-13,999,-1,-1,6
11,-8,-5,996,1,1,4
12,-15,-17,1011,3,1,-3
13,-6,-14,1000,1,1,-3
14,-12,-14,1007,-1,-5,2
15,-1,-12,1006,-3,-1,0
16,-6,-3,999,-3,-3,2
17,8,-9,1009,-1,-5,0
18,4,-3,1007,-1,-3,0
19,-1,-2,999,-1,-1,0
20,-19,-12,1002,-1,-1,0
21,-3,-12,1004,1,1,0
22,-8,-16,1008,-1,-1,-1
23,4,-12,992,-3,-1,-1
24,4,-4,997,1,1,0
25,-11,-1,1007,-1,-1,0
26,-7,-5,1008,-1,-1,0
27,4,-8,1010,-1,-3,0
28,0,-14,1007,1,-1,-3
29,-2,-17,1001,-1,-1,0
30,-11,-8,1009,1,-3,0
31,-3,-12,1007,1,1,2
32,-6,-3,1006,1,1,-3
33,-5,-3,1005,-3,-5,-3
34,2,-4,1008,-1,-1,-1
35,-2,-14,1013,1,3,4
36,-13,-13,1003,-1,-1,-1
37,0,-11,1004,-1,-1,-1
38,2,-8,1008,1,1,0
39,4,-7,1007,1,3,0
40,-6,-12,999,-1,-1,-3
41,-3,-17,1003,1,3,-3
42,-7,-12,1001,-1,1,-1
43,-3,-5,1005,1,1,-1
44,-1,-4,1017,1,1,-1
45,7,-9,1014,-3,-3,2
46,-7,-12,1011,-3,-3,0
47,-2,-8,997,1,3,-3
48,-2,-6,999,-3,-1,0
49,-3,-7,998,3,1,-1
50,-13,-9,989,1,-1,2
51,1,-3,1006,-1,-7,2
52,-5,-15,1014,1,-5,-19
53,1,-7,1011,1,-3,-1
54,20,11,995,-3,-3,-3
55,96,76,1005,3,-13,-273
56,119,82,1014,-7,-1,-988
57,16,38,998,8,-18,-1669
58,-89,-86,1023,-7,-9,-1628
59,-136,-94,987,-1,3,-939
60,-7,-5,1022,16,-20,-93
61,10,2,1015,10,-16,2
62,6,3,1008,3,-3,-1
63,2,-9,1000,3,-3,0
64,-6,-9,998,-9,3,0
65,-9,-7,1015,-11,17,0
66,2,-14,1030,-3,9,2
67,-4,-3,1002,3,1,-1
68,-2,-6,1010,3,-5,0
69,-12,-8,1016,1,-5,2
70,-3,-18,1017,-1,1,0
71,-3,-10,1000,-5,5,-3
72,4,-9,1002,-1,3,0
73,-5,-8,996,-3,-3,-3
74,-10,-8,1027,1,1,-1
75,4,5,1008,-3,-1,-1
76,-2,-9,1002,1,-7,-1
77,-3,-10,1009,3,-11,-1
78,-2,-11,1008,6,-5,0
79,-6,-11,993,6,-13,-3
80,-4,-7,1012,5,-5,2
81,-7,-4,1008,1,3,-1
82,-1,-8,1002,-5,5,0
83,416,-44,1007,-3,1,-105
84,325,-129,992,6,-18,-876
85,-246,425,1040,-1,-11,-785
86,-88,-37,992,18,-20,1221
87,-62,-112,1017,16,-44,774
88,-26,39,1050,26,-99,651
89,30,65,1075,55,-384,1149
90,-15,-48,966,-7,-739,1323
91,-64,21,967,46,-819,1352
92,-45,3,985,643,-69,858
93,-29,-2,1004,739,85,1170
94,-84,-15,1100,704,107,1254
95,-51,87,1061,921,187,1040
96,-49,-48,1117,-93,114,989
97,-110,36,1072,-503,-28,897
98,51,-4,1110,-359,-780,739
99,33,-11,1041,-326,-1196,895
100,-1,99,1140,-683,-1204,905
101,48,99,1178,-915,-940,665
102,42,129,1239,-937,-772,489
103,-4,75,1303,-843,-802,379
104,-36,79,1374,-923,-632,299
105,19,75,1393,-994,-161,321
106,52,92,1368,-980,159,383
107,84,82,1347,-828,15,428
108,44,80,1335,-781,-333,534
109,-17,-5,1229,-812,-595,586
110,192,88,1583,-423,-1044,975
111,-8,73,1493,-601,-58,737
112,38,44,1485,-242,442,653
113,62,47,1400,-99,728,538
114,59,-12,1315,1,610,440
115,72,-51,1312,-70,251,452
116,51,-75,1314,-462,390,514
117,-9,-87,1362,-925,1011,549
118,35,-94,1368,-1302,1982,651
119,-1,-51,1345,-1341,2357,924
120,-78,-12,1367,-1027,2261,1065
121,-81,34,1325,-746,2179,944
122,-58,5,1286,-371,1669,823
123,-70,-64,1287,-58,796,758
124,-68,-103,1325,-17,138,729
125,-8,-140,1309,-257,-544,731
126,-34,-133,1307,-109,-270,727
127,-15,-168,1343,-443,-659,700
128,-18,-187,1397,-464,-790,666
129,-67,-172,1436,-222,-477,532
130,-81,-176,1419,243,66,571
131,-57,-199,1413,786,700,645
132,13,-267,1379,1153,1353,670
133,55,-295,1316,1397,1468,614
134,86,-303,1177,1631,948,577
135,34,-266,1052,1776,167,647
136,4,-238,993,1725,-395,668
137,-7,-200,920,1501,-681,631
138,-42,-199,904,1321,-542,571
139,-63,-180,879,1274,97,641
140,-41,-200,890,1274,946,735
141,-3,-203,883,1405,1444,737
142,14,-211,817,1751,1214,713
143,19,-208,736,2047,150,735
144,15,-202,655,2086,-1483,692
145,24,-143,664,1985,-2802,655
146,-3,-74,632,1616,-3157,469
147,-37,-31,666,1239,-2686,276
148,-45,-36,684,885,-1450,256
149,-54,-70,670,790,-87,346
150,-16,-185,686,975,769,579
151,59,-40,634,1169,853,1081
152,126,45,656,1501,413,786
153,78,-25,529,1881,93,383
154,36,-38,455,2012,-450,385
155,36,22,380,1676,-770,352
156,-13,67,339,1085,-766,280
157,-53,102,348,549,-520,405
158,-47,136,376,258,-18,696
159,8,117,390,204,419,938
160,50,100,358,252,376,813
161,47,132,358,245,40,588
162,19,164,333,186,-231,401
163,90,166,280,114,-540,213
164,-30,157,280,-150,-966,-84
165,-72,130,283,-556,-821,-240
166,-111,139,377,-847,-554,-195
167,-78,149,424,-890,-214,-87
168,-58,161,421,-833,-34,-17
169,4,153,432,-775,146,-31
170,26,120,427,-757,257,-126
171,35,116,381,-831,101,-189
172,47,103,356,-1044,-83,-242
173,10,85,332,-1376,-401,-300
174,-29,59,345,-1812,-712,-193
175,-46,33,399,-2167,-772,26
176,-21,48,450,-2357,-739,223
177,-2,27,455,-2470,-640,356
178,42,17,478,-2480,-532,311
179,62,-8,537,-2482,-413,208
180,76,-72,521,-2437,-138,176
181,130,-150,488,-2492,122,104
182,197,-160,487,-2634,105,-84
183,183,-190,487,-2902,-100,-150
184,167,-186,502,-3160,-391,-101
185,150,-158,582,-3341,-604,-56
186,143,-219,661,-3464,-647,-27
187,89,-309,742,-3492,-399,-56
188,73,-335,860,-3492,-161,0
189,86,-307,946,-3421,357,67
190,52,-363,997,-3253,985,-3
191,55,-406,1039,-2888,1530,161
192,230,-404,1001,-3009,987,86
193,121,-432,1065,-3308,515,-138
194,60,-446,1184,-3689,230,-68
195,67,-469,1365,-3921,-143,-162
196,15,-484,1563,-3751,-155,-152
197,-16,-505,1755,-3410,171,-115
198,-27,-532,1931,-2886,665,-60
199,16,-559,1990,-2349,1189,79
200,32,-575,2025,-1921,1437,90
201,31,-584,2044,-1640,1239,8
202,0,-561,2048,-1441,960,-140
203,-34,-503,2048,-1373,939,-292
204,-56,-490,2048,-1064,954,-507
205,-110,-536,2048,-640,776,-636
206,-163,-562,2048,-101,708,-621
207,-194,-586,2048,419,661,-507
208,-196,-607,2048,997,446,-226
209,-140,-580,2048,1526,93,-62
210,-138,-592,1951,1924,-229,-60
211,-92,-585,1833,2184,-515,-17
212,-64,-546,1741,2311,-587,-39
213,-52,-525,1683,2393,-546,-91
214,-56,-474,1560,2710,-83,-128
215,-68,-500,1632,2526,-413,-111
216,-40,-470,1519,2985,323,-132
217,-71,-452,1467,3294,610,-138
218,-105,-456,1386,3610,665,2
219,-83,-431,1298,3942,556,120
220,-47,-366,1174,4165,317,139
221,-27,-347,1081,4301,28,88
222,-30,-323,969,4268,-288,20
223,15,-320,831,4087,-571,-17
224,10,-237,818,3897,-831,-91
225,50,-252,788,3786,-1020,-232
226,36,-211,727,3753,-1034,-398
227,51,-171,694,3805,-866,-486
228,33,-159,622,3921,-698,-542
229,25,-188,561,3983,-421,-542
230,50,-133,479,3903,-167,-507
231,79,-83,416,3776,-15,-537
232,92,-38,346,3608,34,-658
233,94,-5,283,3362,-44,-828
234,66,7,233,3059,-145,-976
235,50,70,191,2714,-313,-1050
236,41,87,176,2380,-362,-1119
237,-25,83,152,2157,-249,-1173
238,-71,65,122,1876,-93,-898
239,-83,89,97,1487,64,-500
240,-77,138,64,1094,429,-207
241,-46,155,62,772,796,-35
242,-33,153,47,417,1214,40
243,-44,158,29,10,1609,24
244,-39,166,27,-384,1751,-35
245,-28,178,30,-781,1526,-84
246,-35,160,31,-1171,976,-160
247,-75,124,92,-1595,335,-222
248,-120,109,132,-2046,-175,-125
249,-114,107,197,-2396,-380,73
250,-117,107,219,-2677,-247,266
251,-121,92,287,-2880,54,442
252,-58,77,315,-3009,511,518
253,-4,49,327,-3107,862,366
254,35,-3,341,-3212,909,81
255,-23,-65,347,-3380,819,-183
256,-97,-134,410,-3581,706,-222
257,-143,-217,513,-3790,511,190
258,-153,-243,628,-4066,470,786
259,-57,-275,745,-4210,552,1014
260,11,-303,849,-4204,618,799
261,36,-332,936,-4120,360,563
262,49,-341,1007,-3888,-36,430
263,70,-366,1024,-3722,-28,284
264,91,-417,1073,-3685,218,86
265,32,-486,1143,-3847,468,79
266,4,-501,1221,-4031,513,217
267,18,-439,1361,-4074,286,243
268,42,-482,1478,-3919,-5,122
269,33,-496,1614,-3607,-440,36
270,-3,-520,1767,-3199,-626,-25
271,-18,-530,1854,-2800,-122,-78
272,-36,-525,1855,-2451,544,-109
273,-7,-508,1934,-2138,980,-209
274,-28,-499,1950,-1896,1083,-357
275,-84,-497,2009,-1722,849,-357
276,-100,-500,2048,-1572,405,-316
277,-91,-502,2048,-1370,-54,-359
278,-92,-509,2048,-995,-532,-437
279,-92,-534,2048,-462,-866,-416
280,-82,-539,2048,174,-880,-357
281,-31,-539,2048,825,-446,-310
282,30,-553,2048,1340,23,-349
283,62,-584,1960,1667,222,-453
284,71,-545,1854,1846,93,-500
285,72,-511,1780,2022,-184,-587
286,65,-483,1694,2235,-386,-759
287,29,-478,1594,2401,-546,-888
288,29,-443,1526,2579,-854,-976
289,39,-417,1481,2860,-1118,-1103
290,43,-392,1432,3173,-1141,-1209
291,51,-394,1353,3473,-936,-1292
292,32,-382,1275,3602,-606,-1351
293,33,-375,1213,3633,-255,-1353
294,39,-368,1154,3637,-100,-1250
295,57,-321,1088,3600,-186,-1152
296,72,-287,1017,3557,-475,-1169
297,55,-267,966,3553,-849,-1199
298,75,-263,943,3585,-1157,-1318
299,73,-235,893,3620,-1284,-1441
300,79,-141,836,3698,-1278,-1599
301,79,-170,785,3799,-1120,-1792
302,62,-175,716,3831,-731,-2072
303,39,-177,610,3673,-331,-2251
304,7,-140,541,3434,-48,-2212
305,-45,-99,481,3157,-36,-2031
306,-84,-71,443,2872,-186,-1724
307,-87,-22,408,2647,-268,-1402
308,-97,7,392,2430,-186,-1160
309,-112,42,320,2229,-46,-1052
310,-116,48,282,2010,93,-917
311,-125,75,249,1714,155,-796
312,-129,91,237,1430,259,-736
313,-139,90,197,1149,374,-705
314,-163,85,154,805,452,-580
315,-164,123,145,440,509,-394
316,-142,128,133,167,605,-285
317,-154,120,133,-48,663,-220
318,-152,103,147,-281,665,-156
319,-162,111,168,-517,749,-125
320,-169,78,177,-753,890,-115
321,-164,52,192,-956,833,-74
322,-154,56,211,-1165,550,-21
323,-143,66,232,-1355,198,24
324,-154,60,253,-1544,-124,75
325,-171,58,261,-1833,-329,104
326,-187,6,317,-2201,-302,184
327,-170,-15,365,-2523,-122,313
328,-126,-43,421,-2744,122,434
329,-86,-65,455,-2878,368,491
330,-40,-101,515,-2958,392,497
331,19,-134,542,-3011,191,458
332,61,-157,584,-3058,-216,366
333,76,-204,609,-3185,-716,305
334,43,-239,667,-3411,-1030,315
335,-7,-251,781,-3669,-913,360
336,-21,-276,891,-3890,-145,370
337,13,-309,987,-4013,845,426
338,50,-320,1067,-3999,1427,504
339,91,-322,1169,-3740,1538,434
340,118,-325,1223,-3392,1319,243
341,78,-400,1243,-3095,978,24
342,51,-432,1309,-2951,716,-238
343,43,-447,1342,-3035,581,-500
344,0,-422,1387,-3218,526,-656
345,-106,-426,1465,-3380,517,-664
346,-212,-439,1597,-3490,714,-431
347,-232,-429,1762,-3318,1067,-191
348,-222,-404,1815,-2898,1343,-76
349,-234,-422,1858,-2228,1148,30
350,-216,-422,1854,-1542,577,174
351,-197,-409,1836,-1068,69,274
352,-149,-461,1812,-874,-192,284
353,-108,-476,1823,-984,-233,249
354,-98,-507,1891,-1142,-266,229
355,-79,-486,2009,-1064,-497,327
356,-111,-519,2048,-658,-608,438
357,-81,-524,2048,-23,-487,581
358,-22,-535,2042,626,-282,694
359,51,-523,1994,1133,-208,709
360,72,-509,1858,1549,-327,610
361,96,-492,1741,1881,-608,454
362,89,-491,1650,2008,-792,286
363,75,-457,1583,1991,-829,106
364,47,-452,1535,1981,-727,-42
365,36,-455,1517,2048,-507,-109
366,14,-432,1547,2251,-122,-209
367,-40,-430,1498,2551,341,-306
368,-58,-441,1427,2930,521,-173
369,-40,-418,1364,3256,403,34
370,-4,-386,1257,3485,173,137
371,0,-347,1163,3610,-147,143
372,7,-339,1059,3616,-491,110
373,8,-303,957,3493,-755,36
374,-14,-292,911,3313,-952,-52
375,-13,-245,845,3104,-1005,-121
376,-36,-209,825,2930,-862,-193
377,-69,-192,796,2821,-388,-226
378,-64,-157,788,2850,155,-242
379,-61,-139,656,2993,640,-138
380,-78,-144,728,2923,556,-216
381,-43,-128,601,3008,482,-52
382,-46,-110,517,2887,200,24
383,-38,-63,458,2659,-67,88
384,-41,-53,423,2387,-204,141
385,-51,-29,379,2135,-247,161
386,-50,-2,353,1866,-163,229
387,-51,23,312,1604,25,319
388,-41,41,287,1381,347,397
389,-27,52,235,1169,755,479
390,2,66,250,938,1056,510
391,16,78,221,774,1230,454
392,21,70,201,571,1232,342
393,7,62,191,321,1103,231
394,-8,60,193,46,870,153
395,-47,53,219,-210,571,106
396,-68,54,256,-458,316,112
397,-66,42,273,-620,161,112
398,-57,52,299,-724,-15,96
399,-35,71,296,-767,-157,51
400,-22,82,306,-796,-317,-35
401,-38,103,298,-869,-511,-113
402,-64,88,297,-1033,-597,-152
403,-88,-8,356,-1722,-522,-105
404,-72,50,306,-1329,-565,-177
405,-68,-32,403,-2119,-548,49
406,-81,-57,499,-2380,-565,127
407,-84,-63,592,-2476,-511,264
408,-49,-84,662,-2439,-183,333
409,15,-82,698,-2339,187,258
410,56,-99,715,-2318,251,133
411,58,-141,746,-2345,-46,-19
412,43,-177,769,-2449,-501,-162
413,35,-211,776,-2605,-942,-244
414,13,-222,805,-2753,-1280,-193
415,23,-216,862,-2929,-1440,-15
416,7,-264,939,-3060,-1147,61
417,27,-294,1027,-3128,-579,83
418,36,-323,1108,-3138,140,65
419,75,-317,1170,-3017,564,18
420,85,-300,1193,-2829,566,-44
421,64,-305,1220,-2615,640,-199
422,6,-370,1256,-2527,866,-382
423,-51,-399,1317,-2783,1109,-445
424,-100,-415,1435,-3081,1208,-369
425,-117,-420,1553,-3195,1060,-222
426,-142,-430,1716,-3154,903,-103
427,-143,-429,1843,-2886,1007,-142
428,-179,-453,1982,-2486,1177,-171
429,-198,-490,2048,-1945,1228,-209
430,-241,-486,2048,-1327,1163,-191
431,-265,-500,2048,-771,933,-64
432,-233,-520,2014,-285,626,84
433,-175,-487,1963,48,122,211
434,-171,-490,1909,214,-427,231
435,-172,-478,1879,364,-913,243
436,-169,-471,1889,557,-1091,256
437,-170,-478,1888,848,-897,209
438,-157,-470,1866,1215,-436,141
439,-140,-464,1798,1649,69,106
440,-138,-473,1708,2087,302,151
441,-145,-467,1636,2399,310,208
442,-155,-462,1563,2614,153,325
443,-148,-419,1495,2788,-85,499
444,-137,-392,1385,2907,-278,567
445,-112,-371,1294,2952,-554,602
446,-95,-343,1230,2872,-718,583
447,-90,-317,1176,2772,-807,516
448,-103,-315,1159,2741,-827,461
449,-120,-292,1145,2776,-712,532
450,-92,-266,1087,2934,-552,618
451,-89,-253,1030,3124,-409,653
452,-110,-257,967,3223,-278,784
453,-95,-234,920,3290,-266,1006
454,-46,-203,846,3331,-309,1120
455,-30,-177,779,3331,-487,1215
456,-41,-166,720,3257,-716,1260
457,-21,-137,651,3102,-768,1270
458,-11,-118,593,2936,-751,1290
459,-9,-95,539,2782,-755,1340
460,-10,-42,478,2639,-813,1372
461,-34,-36,450,2452,-858,1411
462,-47,-14,398,2305,-849,1536
463,-31,24,341,2192,-737,1668
464,7,54,264,2057,-595,1702
465,40,21,196,1839,-518,1688
466,58,34,156,1594,-440,1661
467,58,30,107,1288,-372,1659
468,73,45,75,952,-311,1672
469,118,70,62,624,-302,1588
470,116,90,52,340,-268,1342
471,108,87,57,106,-229,1165
472,93,103,69,-111,-134,969
473,101,95,78,-374,87,766
474,112,107,88,-576,282,541
475,124,117,96,-800,368,278
476,103,97,102,-1115,314,22
477,69,58,116,-1443,267,-125
478,36,22,169,-1810,296,-171
479,35,-24,239,-2140,253,-138
480,41,-62,317,-2331,157,-115
481,51,-86,371,-2497,-3,-35
482,108,-111,417,-2558,-300,0
483,181,-123,496,-2501,-610,-134
484,197,-146,529,-2398,-983,-302
485,187,-187,571,-2437,-1253,-392
486,184,-224,633,-2652,-1235,-492
487,169,-220,713,-3007,-784,-527
488,145,-264,775,-3357,-130,-498
489,112,-301,929,-3476,470,-449
490,83,-301,1057,-3427,937,-371
491,56,-290,1134,-3271,1120,-330
492,36,-279,1197,-3064,1077,-292
493,28,-297,1243,-2929,896,-285
494,-10,-345,1303,-2997,722,-308
495,-23,-396,1404,-3238,521,-230
496,-31,-419,1548,-3529,191,-148
497,-84,-369,1729,-3661,-30,41
498,-115,-338,1905,-3462,40,215
499,-115,-343,2024,-2958,230,352
500,-68,-378,2048,-2306,179,407
501,-126,-403,2048,-1829,1,422
502,-167,-416,2048,-1595,-323,530
503,-182,-418,2048,-1339,-755,743
504,-147,-380,2048,-1118,-897,1036
505,-83,-377,2048,-911,-763,1198
506,-77,-399,2048,-695,-585,1262
507,-95,-420,2048,-406,-438,1413
508,-69,-425,2048,1,-177,1477
509,-32,-418,2048,571,91,1393
510,-2,-424,2008,1241,196,1293
511,6,-449,1897,1829,323,1129
512,16,-469,1786,2247,286,985
513,10,-478,1674,2436,32,940
514,14,-449,1581,2450,-311,897
515,25,-401,1478,2417,-663,856
516,11,-368,1412,2411,-833,768
517,16,-357,1406,2475,-747,661
518,25,-333,1366,2614,-542,467
519,-19,-315,1319,2856,-397,346
520,-43,-316,1283,3182,-341,288
521,-31,-284,1197,3479,-263,227
522,-27,-283,1131,3686,-97,149
523,-28,-264,1005,3792,-22,174
524,8,-242,921,3766,-184,256
525,-9,-206,857,3630,-263,333
526,-38,-217,798,3419,-257,354
527,-65,-217,772,3161,-280,555
528,-66,-180,753,3005,-438,831
529,-19,-130,711,2958,-536,1000
530,34,-74,652,3014,-599,1012
531,61,-63,575,3155,-716,883
532,55,-52,515,3223,-784,743
533,48,-29,439,3173,-741,665
534,48,-70,391,3003,-647,577
535,19,-42,341,2655,-518,639
536,21,24,330,2299,-186,747
537,59,63,293,2079,384,715
538,69,60,227,1948,714,706
539,67,68,173,1782,679,731
540,84,79,131,1546,499,688
541,100,92,113,1276,384,555
542,123,77,119,1044,310,333
543,108,71,61,757,255,106
544,90,39,49,417,136,-46
545,82,26,34,10,-97,-42
546,68,22,43,-402,-268,59
547,64,25,93,-802,-407,200
548,64,80,128,-1158,-192,262
549,41,88,189,-1271,290,231
550,48,70,243,-1195,693,338
551,53,70,256,-1179,1038,395
552,92,43,255,-1249,1079,420
553,82,7,273,-1552,845,424
554,82,-58,284,-2066,458,500
555,82,-92,332,-2638,-13,588
556,100,-98,369,-3302,-550,778
557,128,-75,496,-3814,-782,803
558,146,-96,674,-4011,-735,596
559,69,-132,835,-3972,-458,547
560,-3,-191,933,-3745,42,532
561,22,-254,981,-3408,521,528
562,36,-243,996,-3243,618,663
563,66,-264,974,-3285,341,813
564,126,-297,1016,-3458,46,891
565,185,-288,1088,-3800,-237,872
566,215,-331,1188,-4156,-192,612
567,193,-368,1331,-4376,-28,245
568,141,-386,1488,-4425,-42,-95
569,11,-406,1648,-4240,-108,-318
570,-80,-390,1749,-3804,-38,-265
571,-103,-372,1792,-3226,116,-64
572,-86,-354,1812,-2660,413,108
573,-13,-366,1778,-2234,691,180
574,21,-374,1823,-2074,702,166
575,6,-359,1876,-2130,550,59
576,-13,-364,1965,-2169,380,-60
577,-71,-385,2008,-2070,146,-142
578,-122,-378,2048,-1896,-153,-31
579,-104,-375,2048,-1427,-509,102
580,-71,-383,2048,-734,-622,229
581,-50,-416,2048,-1,-563,256
582,-24,-457,2016,577,-538,288
583,-4,-482,1935,958,-542,389
584,51,-470,1846,1233,-446,374
585,67,-481,1784,1407,-304,280
586,76,-476,1733,1618,-263,159
587,59,-480,1695,1903,-356,57
588,36,-443,1640,2196,-431,-3
589,39,-421,1564,2594,-516,-101
590,28,-398,1482,2944,-497,-199
591,0,-398,1380,3186,-393,-294
592,-16,-383,1311,3352,-360,-218
593,-6,-360,1211,3473,-382,-130
594,-2,-340,1098,3497,-253,-126
595,-14,-328,1030,3458,-79,-101
596,-25,-282,957,3323,9,36
597,3,-257,906,3174,-71,133
598,-12,-217,851,3130,-288,200
599,-9,-210,805,3104,-583,215
600,7,-193,725,3135,-835,198
601,20,-190,644,3155,-1050,233
602,6,-175,554,3110,-1194,301
603,30,-127,480,2977,-1155,348
604,67,-85,411,2811,-1056,311
605,69,-6,354,2604,-835,291
606,61,-38,287,2368,-423,264
607,34,-47,238,2106,7,338
608,40,2,206,1831,257,463
609,59,30,163,1600,300,547
610,92,58,136,1401,310,532
611,113,58,122,1215,251,458
612,149,64,104,1030,165,262
613,158,74,95,823,157,-128
614,139,39,61,557,109,-455
615,77,8,76,241,-16,-548
616,59,-7,95,-175,-93,-375
617,64,20,142,-558,15,-306
618,61,23,188,-800,169,-332
619,32,4,208,-927,261,-279
620,-6,-11,246,-1058,441,-85
621,41,16,239,-1214,651,79
622,98,9,234,-1423,851,51
623,112,-24,240,-1753,817,-62
624,95,-66,295,-2140,612,-164
625,88,-110,378,-2531,501,-253
626,96,-114,471,-2867,435,-347
627,93,-144,572,-3078,417,-453
628,87,-165,669,-3144,343,-443
629,110,-205,783,-3101,368,-507
630,109,-241,892,-3054,503,-464
631,90,-247,957,-2951,816,-472
632,68,-287,1000,-2863,1019,-560
633,38,-298,1057,-2916,1025,-517
634,32,-281,1104,-2931,911,-419
635,72,-271,1163,-2914,923,-464
636,83,-278,1243,-2929,1122,-671
637,61,-305,1348,-2865,1198,-966
638,7,-325,1473,-2736,1071,-1148
639,-104,-365,1568,-2626,948,-1080
640,-100,-312,1784,-2441,1038,-580
641,-131,-357,1685,-2580,958,-781
642,-123,-317,1835,-2179,1009,-484
643,-141,-332,1860,-1943,767,-341
644,-111,-319,1894,-1845,542,-259
645,-80,-282,1945,-1830,362,-294
646,-56,-285,2015,-1365,-24,-523
647,-57,-262,1968,-1669,163,-382
648,-82,-292,2048,-1029,-7,-667
649,-108,-331,2048,-533,304,-824
650,-188,-414,2048,-5,722,-681
651,-211,-425,2048,551,993,-205
652,-135,-400,2031,1055,1167,81
653,-102,-429,1939,1469,1048,94
654,-88,-429,1812,1709,601,34
655,-72,-418,1697,1850,-50,-27
656,-37,-402,1583,1983,-804,-113
657,-7,-397,1530,2141,-1382,-238
658,-70,-377,1415,2452,-1042,-234
659,-58,-410,1472,2262,-1456,-308
660,-32,-333,1362,2754,-333,-228
661,-26,-328,1303,3118,343,-263
662,-27,-332,1206,3432,685,-152
663,5,-325,1103,3626,751,-140
664,23,-279,995,3575,575,-164
665,-5,-219,949,3426,308,-220
666,-33,-195,887,3252,50,-318
667,-19,-194,827,3098,-136,-449
668,-45,-159,794,2944,-300,-533
669,-62,-146,754,2891,-438,-544
670,-83,-130,718,2905,-507,-525
671,-129,-123,677,2952,-450,-378
672,-114,-127,608,2987,-327,-148
673,-47,-74,517,2973,-265,-7
674,1,-49,433,2868,-229,-15
675,14,-32,358,2651,-245,-142
676,58,18,276,2333,-288,-398
677,105,61,213,2008,-354,-744
678,85,78,165,1686,-464,-1166
679,-10,29,97,1327,-616,-1378
680,-109,-26,64,920,-778,-1179
681,-153,-42,14,459,-786,-644
682,-127,23,89,30,-636,-72
683,-77,81,96,-238,-171,290
684,-15,82,100,-421,441,370
685,40,60,99,-605,929,225
686,100,73,120,-779,1085,-91
687,164,69,104,-906,909,-513
688,167,43,132,-1019,511,-1058
689,94,-27,175,-1236,87,-1482
690,-18,-84,219,-1589,-165,-1517
691,-70,-128,284,-2031,-319,-1240
692,-36,-104,378,-2408,-251,-902
693,28,-72,478,-2607,30,-806
694,50,-96,555,-2570,290,-970
695,61,-131,602,-2451,407,-1187
696,59,-153,612,-2339,306,-1431
697,8,-208,638,-2390,32,-1478
698,-46,-267,657,-2646,-434,-1181
699,-87,-295,727,-3058,-911,-421
700,11,-238,799,-3486,-1198,352
701,111,-224,934,-3826,-1145,606
702,139,-239,1078,-4021,-831,436
703,98,-277,1236,-3898,-513,65
704,57,-349,1399,-3503,-448,-191
705,-21,-356,1442,-3068,-395,-175
706,-52,-334,1503,-2666,-210,124
707,22,-344,1540,-2414,273,454
708,127,-354,1589,-2308,775,499
709,221,-326,1625,-2240,1046,276
710,237,-312,1665,-2146,901,-103
711,216,-284,1712,-2056,425,-554
712,151,-311,1789,-1982,58,-988
713,21,-327,1918,-1857,-120,-1314
714,-121,-370,2048,-1636,-44,-1166
715,-138,-349,2048,-1166,333,-779
716,-85,-322,2048,-447,667,-453
717,-28,-320,2025,233,862,-371
718,25,-326,1938,670,741,-437
719,48,-318,1869,872,331,-539
720,94,-314,1806,991,-243,-726
721,101,-313,1773,1102,-768,-1031
722,80,-337,1741,1172,-991,-1341
723,34,-361,1717,1295,-892,-1466
724,-39,-383,1732,1532,-538,-1332
725,-69,-369,1695,1903,-38,-910
726,15,-368,1617,2327,441,-523
727,95,-340,1492,2666,599,-388
728,134,-318,1362,2899,433,-423
729,151,-317,1268,3004,9,-541
730,146,-291,1185,2907,-503,-697
731,133,-275,1130,2672,-847,-837
732,141,-249,1100,2463,-1028,-988
733,134,-232,1086,2358,-1077,-1156
734,84,-246,1083,2311,-977,-1214
735,55,-217,1110,2409,-673,-1179
736,64,-206,1076,2684,-270,-1111
737,67,-190,1025,3010,30,-1070
738,77,-193,923,3233,148,-1058
739,84,-193,811,3311,73,-1068
740,99,-168,730,3221,-91,-1099
741,81,-123,646,3020,-267,-1121
742,43,-93,588,2741,-431,-1115
743,26,-49,547,2448,-575,-1128
744,-15,-37,503,2200,-612,-1126
745,-54,-40,479,1975,-526,-1085
746,-89,-38,455,1748,-302,-953
747,-119,-38,427,1510,64,-734
748,-91,4,397,1387,282,-529
749,-53,29,332,1364,300,-421
750,-56,23,279,1332,189,-384
751,-55,68,230,1225,48,-412
752,-38,34,188,997,28,-451
753,-42,40,165,668,5,-470
754,-59,53,160,313,144,-496
755,-69,55,166,-9,364,-542
756,-64,46,164,-363,489,-607
757,-51,39,195,-744,409,-710
758,-59,65,233,-1066,204,-867
759,-53,49,232,-1234,-77,-1042
760,-51,31,249,-1300,-450,-1119
761,-83,13,247,-1406,-778,-1119
762,-104,-10,199,-1615,-1017,-945
763,-114,-36,218,-1953,-1095,-542
764,-77,-18,273,-2421,-960,-35
765,-2,20,347,-2853,-464,247
766,52,-10,429,-3226,364,231
767,83,-77,534,-3552,1148,67
768,140,-118,659,-3802,1716,-261
769,124,-150,791,-3931,1911,-724
770,66,-208,901,-3959,1708,-1083
771,-54,-267,1009,-3935,1317,-1132
772,-148,-299,1131,-3853,849,-785
773,-134,-309,1212,-3701,532,-226
774,-66,-303,1306,-3552,505,311
775,23,-304,1369,-3425,595,612
776,98,-315,1433,-3302,724,559
777,121,-307,1512,-3140,778,256
778,130,-299,1611,-2580,552,-451
779,146,-306,1577,-2892,681,-87
780,122,-344,1688,-2361,431,-783
781,52,-374,1799,-2246,355,-1037
782,-39,-388,1909,-2130,523,-1119
783,-143,-418,1994,-1974,890,-896
784,-153,-411,2048,-1689,1210,-425
785,-97,-414,2048,-1287,1470,-66
786,-49,-394,2048,-763,1521,-29
787,-15,-375,2033,-152,1130,-111
788,5,-383,1937,448,347,-169
789,25,-401,1859,887,-532,-240
790,35,-407,1809,1061,-1071,-392
791,44,-398,1748,1147,-1294,-644
792,25,-395,1722,1309,-1245,-845
793,-50,-417,1690,1514,-743,-927
794,-72,-402,1654,1788,-59,-718
795,-29,-357,1588,2209,503,-408
796,25,-354,1471,2690,929,-271
797,77,-343,1351,2977,1052,-277
798,103,-323,1236,3026,755,-287
799,100,-275,1161,2983,220,-322
800,93,-245,1108,2911,-233,-455
801,95,-243,1048,2813,-622,-607
802,68,-225,1032,2682,-946,-722
803,72,-221,1047,2612,-954,-867
804,57,-179,1050,2758,-518,-1142
805,33,-161,1002,3057,230,-1400
806,-2,-172,907,3284,882,-1458
807,-13,-156,832,3332,1216,-1382
808,-20,-150,745,3207,1316,-1281
809,-25,-152,696,3061,1192,-1109
810,-42,-122,637,2854,798,-835
811,-40,-63,589,2610,376,-626
812,-34,1,484,2381,-46,-517
813,-59,-13,467,2155,-431,-474
814,-95,14,450,1866,-642,-431
815,-145,18,424,1506,-659,-339
816,-159,23,387,1153,-384,-250
817,-170,32,359,811,25,-121
818,-168,52,363,545,257,43
819,-131,37,353,459,302,133
820,-107,45,327,487,58,309
821,-85,61,282,543,-241,377
822,-74,65,244,561,-632,397
823,-84,63,217,434,-931,368
824,-79,77,191,192,-1073,319
825,-94,55,185,-126,-1046,290
826,-62,-65,177,-464,-843,290
827,-91,35,207,-826,-515,301
828,-94,34,247,-1103,-317,348
829,-78,39,266,-1290,-276,448
830,-68,25,268,-1425,-333,491
831,-40,11,304,-1550,-571,483
832,-41,-13,303,-1753,-852,489
833,-39,-35,352,-1976,-1003,458
834,-21,-84,413,-2251,-1007,416
835,-33,-139,457,-2591,-983,458
836,-22,-171,529,-2888,-870,569
837,36,-171,662,-2980,-708,682
838,52,-181,719,-2892,-690,805
839,83,-202,762,-2685,-854,942
840,92,-211,815,-2494,-956,1034
841,152,-250,848,-2533,-884,1067
842,193,-255,878,-2726,-724,999
843,207,-266,928,-3089,-536,823
844,242,-304,996,-3472,-165,561
845,246,-331,1141,-3790,17,399
846,185,-343,1294,-3876,169,250
847,89,-346,1447,-3685,491,110
848,51,-354,1524,-3298,730,241
849,71,-397,1601,-2878,882,432
850,121,-417,1602,-2595,1015,448
851,149,-425,1621,-2441,892,393
852,154,-416,1637,-2410,474,264
853,147,-418,1785,-2480,-54,-162
854,147,-404,1710,-2464,95,53
855,73,-457,1934,-2398,46,-339
856,-38,-485,2048,-2187,398,-291
857,-67,-456,2048,-1724,567,77
858,-88,-445,2048,-1015,663,391
859,-68,-477,2048,-320,753,631
860,-17,-480,2018,190,732,821
861,49,-460,1912,479,546,846
862,70,-461,1874,686,185,733
863,83,-470,1813,848,-128,530
864,77,-483,1807,1055,-231,327
865,73,-458,1765,1401,-79,124
866,68,-466,1696,1858,220,-109
867,35,-473,1593,2245,509,-187
868,43,-443,1517,2547,702,-167
869,46,-418,1421,2842,816,-177
870,60,-422,1328,3108,775,-195
871,68,-409,1213,3249,655,-232
872,63,-367,1132,3200,483,-304
873,60,-322,1076,3077,280,-384
874,60,-298,1029,2979,107,-511
875,50,-283,975,2963,23,-625
876,34,-276,930,2973,-28,-709
877,8,-253,919,3002,46,-761
878,-9,-216,840,3055,286,-761
879,-16,-203,804,3129,532,-753
880,-26,-192,742,3174,753,-740
881,-41,-189,677,3124,730,-613
882,-33,-152,627,2958,548,-425
883,-38,-117,576,2756,349,-277
884,-57,-89,552,2583,155,-146
885,-55,-63,513,2397,89,-44
886,-42,-53,498,2249,97,12
887,-35,-31,467,2168,155,34
888,-37,-14,437,2114,314,2
889,-51,-11,390,2049,409,-21
890,-64,10,348,1952,327,55
891,-61,11,284,1811,196,125
892,-46,25,235,1629,19,209
893,-49,62,204,1333,-153,290
894,-68,31,170,1010,-184,336
895,-65,25,172,672,-222,512
896,-38,38,147,356,-337,676
897,-30,48,133,104,-464,719
898,-12,77,154,-95,-536,631
899,-23,84,139,-275,-645,569
900,-32,81,144,-509,-671,510
901,-31,72,143,-847,-407,385
902,-23,56,148,-1285,-44,274
903,-42,0,181,-1751,163,176
904,-34,-17,253,-2246,163,217
905,-15,-24,336,-2660,-11,274
906,6,-43,426,-2874,-235,307
907,10,-84,487,-2949,-395,266
908,57,-130,569,-2974,-546,166
909,52,-170,623,-3027,-739,26
910,41,-199,711,-3066,-843,-125
911,39,-220,762,-3111,-825,-189
912,60,-214,835,-3132,-737,-91
913,61,-222,886,-3189,-513,125
914,95,-253,955,-3287,-87,278
915,143,-278,1067,-3462,394,200
916,166,-291,1185,-3675,638,0
917,144,-314,1325,-3783,548,-339
918,89,-336,1442,-3767,134,-677
919,-20,-378,1573,-3707,-233,-779
920,-98,-387,1746,-3607,-286,-486
921,-101,-392,1888,-3306,36,-119
922,-74,-380,1944,-2759,413,88
923,-12,-378,1947,-2171,419,297
924,48,-375,1955,-1671,58,336
925,52,-380,1970,-1390,-433,182
926,34,-385,1991,-1232,-839,2
927,18,-406,2028,-1091,-985,-150
928,43,-418,2048,-941,-727,-263
929,47,-409,2048,-666,-212,-335
930,57,-427,2048,-197,374,-386
931,60,-438,2048,432,776,-417
932,43,-470,2040,1071,890,-353
933,67,-482,1951,1596,685,-201
934,95,-442,1723,2182,230,-152
935,81,-467,1846,1948,435,-130
936,101,-429,1609,2360,48,-199
937,98,-412,1517,2481,-89,-271
938,87,-401,1426,2577,-106,-343
939,77,-388,1388,2672,108,-421
940,64,-357,1317,2768,523,-505
941,57,-340,1244,2944,919,-541
942,47,-312,1173,3116,1148,-578
943,20,-293,1122,3229,1163,-613
944,7,-283,1042,3327,1044,-623
945,-20,-274,987,3377,884,-613
946,-37,-252,914,3342,737,-584
947,-42,-239,857,3252,616,-533
948,-50,-207,813,3151,487,-445
949,-41,-179,807,3071,560,-429
950,-59,-159,760,3004,778,-410
951,-55,-137,726,2948,1023,-359
952,-50,-110,695,2877,1118,-314
953,-69,-77,630,2829,1001,-281
954,-107,-68,582,2805,726,-201
955,-118,-56,507,2770,441,-68
956,-122,-44,481,2643,249,79
957,-139,-15,386,2436,138,202
958,-125,19,353,2161,187,278
959,-105,26,309,1858,294,356
960,-100,29,272,1553,316,416
961,-87,52,210,1043,259,370
962,-75,39,249,1274,317,405
963,-86,51,167,879,62,385
964,-85,46,140,708,-177,448
965,-101,33,125,483,-317,563
966,-108,36,107,250,-403,696
967,-105,41,94,-56,-311,823
968,-97,54,70,-443,-100,883
969,-57,66,95,-841,23,916
970,-52,49,98,-1242,7,866
971,-25,46,143,-1560,-67,750
972,-1,42,186,-1753,-184,559
973,-16,15,202,-1908,-386,368
974,-50,-32,238,-2111,-602,321
975,-66,-40,293,-2408,-737,430
976,-72,-38,335,-2759,-763,577
977,-58,-76,389,-3076,-645,661
978,-34,-156,503,-3439,-472,749
979,11,-161,618,-3716,-393,805
980,48,-169,700,-3767,-554,741
981,89,-201,782,-3583,-946,651
982,76,-240,845,-3380,-1251,622
983,68,-263,895,-3302,-1382,688
984,83,-276,940,-3341,-1231,766
985,100,-316,987,-3494,-737,709
986,126,-350,1076,-3781,-298,604
987,138,-371,1194,-4076,-186,495
988,107,-379,1329,-4281,-161,354
989,101,-373,1492,-4345,-126,151
990,27,-328,1631,-4099,-175,12
991,-64,-395,1739,-3607,-274,81
992,-96,-432,1824,-3166,-251,411
993,-74,-419,1881,-2898,-9,674
994,-61,-423,1936,-2738,220,852
995,-26,-435,1992,-2554,251,858
996,13,-390,1995,-2355,83,749
997,27,-452,2048,-2154,-208,629
998,-1,-494,2048,-1904,-466,510
999,-20,-531,2048,-1464,-657,434
1000,-21,-497,2048,-802,-806,391
1001,-43,-516,2048,20,-749,372
1002,-51,-562,2048,799,-608,510
1003,-13,-559,2048,1397,-333,760
1004,28,-536,1974,1918,-73,879
1005,84,-541,1849,2321,-95,825
1006,95,-499,1718,2543,-309,770
1007,74,-479,1608,2651,-493,694
1008,47,-442,1529,2723,-474,659
1009,6,-446,1441,2737,-181,596
1010,8,-434,1376,2717,212,600
1011,21,-397,1336,2795,515,581
1012,-35,-394,1288,3006,681,510
1013,-105,-400,1258,3350,651,663
1014,-196,-400,1216,3700,702,1122
1015,-188,-365,1126,4049,784,1729
1016,-135,-341,1029,4356,712,2196
1017,-44,-290,876,4467,513,2467
1018,-27,-260,734,4395,171,2401
1019,-50,-255,647,4043,-198,2514
1020,-87,-211,594,3559,-415,2749
1021,-51,-178,556,3118,-335,2848
1022,13,-129,547,2852,-190,2875
1023,67,-99,538,2690,-134,2711
1024,94,-62,500,2707,-331,2444
1025,62,-13,469,2957,-825,2161
1026,50,-37,446,3354,-1364,2051
1027,41,-56,369,3561,-1558,1987
1028,50,-85,313,3362,-1419,1889
1029,75,-4,236,2885,-808,1805
1030,90,55,191,2373,23,1583
1031,101,75,120,1817,614,1393
1032,135,70,132,1274,761,1217
1033,143,48,154,707,573,915
1034,107,45,188,274,54,635
1035,56,31,220,-50,-483,542
1036,25,55,250,-304,-726,516
1037,27,65,259,-425,-593,366
1038,33,70,264,-447,-300,155
1039,17,49,242,-455,32,-9
1040,-19,24,210,-515,216,83
1041,-2,64,198,-697,323,211
1042,14,94,176,-906,421,186
1043,-13,54,159,-1236,435,149
1044,-15,18,170,-1734,378,176
1045,20,21,235,-2275,144,209
1046,24,23,327,-2713,-190,120
1047,5,2,434,-3033,-323,86
1048,-51,-72,484,-3293,-231,219
1049,-13,-85,584,-3523,-112,471
1050,75,-126,672,-3695,73,495
1051,106,-175,767,-3828,200,370
1052,98,-233,863,-3925,179,235
1053,138,-277,950,-4013,32,63
1054,121,-318,1069,-4091,-145,-117
1055,79,-327,1151,-4045,-286,-101
1056,83,-321,1225,-3839,-126,-35
1057,69,-312,1310,-3613,413,-68
1058,10,-331,1408,-3478,941,14
1059,-25,-366,1510,-3326,1308,88
1060,-2,-383,1563,-3138,1331,59
1061,35,-357,1591,-2970,950,51
1062,55,-328,1604,-2763,316,18
1063,68,-318,1627,-2625,-235,-66
1064,68,-318,1705,-2582,-397,-242
1065,17,-307,1812,-2601,-204,-462
1066,-100,-341,1945,-2582,351,-501
1067,-148,-335,2009,-2423,773,-410
1068,-158,-378,2048,-2111,915,-248
1069,-185,-397,2048,-1562,603,-150
1070,-176,-381,2048,-814,7,49
1071,-146,-375,2048,0,-491,245
1072,-100,-428,2048,559,-515,260
1073,-44,-469,1959,883,-364,186
1074,-15,-477,1902,1084,-366,163
1075,-28,-477,1880,1315,-388,73
1076,-76,-485,1806,1577,-370,49
1077,-96,-443,1693,2329,-276,295
1078,-125,-492,1760,1924,-300,137
1079,-45,-419,1601,2760,-253,293
1080,-60,-421,1479,3149,-265,219
1081,-61,-397,1379,3395,-352,229
1082,-64,-380,1267,3506,-317,198
1083,-44,-352,1187,3514,-311,192
1084,-31,-280,1092,3475,-352,98
1085,-21,-281,1013,3457,-386,-44
1086,-30,-270,932,3465,-370,-123
1087,-44,-256,885,3412,-364,-142
1088,-101,-272,837,3291,-261,-31
1089,-127,-247,832,3198,-132,270
1090,-64,-206,790,3254,21,473
1091,-49,-167,713,3412,97,547
1092,-72,-167,602,3475,114,629
1093,-46,-145,541,3434,-73,754
1094,-26,-113,461,3344,-263,813
1095,-6,-55,370,3151,-339,829
1096,8,-9,300,2926,-210,799
1097,53,-14,253,2674,-138,733
1098,75,-9,189,2364,-149,596
1099,104,31,143,1957,-128,481
1100,110,49,103,1563,-237,368
1101,96,49,92,1262,-306,200
1102,56,32,101,901,-212,145
1103,60,-2,100,512,-9,151
1104,33,1,98,121,245,215
1105,49,23,107,-224,523,305
1106,78,24,93,-519,649,321
1107,90,8,99,-869,528,299
1108,104,-15,75,-1160,196,260
1109,94,-13,95,-1474,-331,252
1110,35,-2,142,-1793,-645,270
1111,-69,152,188,-2029,-544,379
1112,-2,22,213,-2203,-91,545
1113,4,24,250,-2287,468,614
1114,10,-45,283,-2529,882,696
1115,65,-91,356,-2875,1060,657
1116,99,-159,427,-3308,954,549
1117,136,-195,527,-3755,548,508
1118,166,-228,659,-4086,66,372
1119,145,-256,779,-4281,-302,176
1120,106,-276,951,-4296,-341,133
1121,77,-265,1079,-4089,204,71
1122,53,-306,1186,-3847,1060,-31
1123,68,-345,1262,-3523,1560,-109
1124,65,-374,1320,-3269,1517,-185
1125,52,-390,1383,-3085,1089,-375
1126,2,-370,1439,-2892,599,-505
1127,-54,-388,1493,-2755,394,-482
1128,-39,-376,1571,-2714,407,-423
1129,-36,-343,1646,-2718,521,-513
1130,-67,-357,1735,-2646,525,-597
1131,-139,-403,1855,-2443,358,-621
1132,-216,-381,1927,-2175,107,-542
1133,-224,-351,1972,-1755,-167,-400
1134,-193,-313,1968,-1156,-489,-263
1135,-160,-343,1941,-626,-608,-164
1136,-121,-373,1886,-328,-517,-136
1137,-91,-390,1886,-283,-341,-105
1138,-75,-393,1895,-251,-245,-64
1139,-70,-412,1933,-185,-136,-78
1140,-76,-404,1990,49,-81,-89
1141,-109,-421,1973,565,-89,-60
1142,-117,-445,1919,1211,-110,16
1143,-102,-453,1831,1749,-153,110
1144,-63,-428,1734,2209,-329,135
1145,-43,-431,1623,2627,-556,125
1146,-55,-418,1524,2918,-724,151
1147,-53,-398,1397,3063,-649,137
1148,-17,-376,1296,3088,-526,129
1149,-15,-359,1247,3024,-434,122
1150,-40,-336,1173,2913,-380,194
1151,-40,-305,1123,2881,-378,233
1152,-23,-269,1094,2928,-296,227
1153,0,-243,1011,3051,-235,143
1154,0,-239,959,3159,-337,57
1155,-13,-229,876,3188,-479,-13
1156,-50,-213,794,3088,-546,-39
1157,-46,-185,748,2913,-620,2
1158,-35,-136,686,2715,-569,69
1159,-4,-82,634,2549,-532,124
1160,19,-61,527,2208,-194,49
1161,-1,-65,576,2399,-358,94
1162,7,-61,527,2032,-99,30
1163,-55,-66,540,1866,-48,141
1164,-59,-48,532,1745,56,327
1165,-33,-11,514,1706,261,477
1166,12,-13,448,1719,400,497
1167,30,-21,369,1657,292,528
1168,42,-18,341,1530,107,491
1169,13,-41,305,1340,13,446
1170,11,-36,239,1032,-48,530
1171,14,0,225,653,-17,620
1172,44,23,202,358,232,672
1173,56,37,198,141,390,731
1174,64,31,196,-62,493,723
1175,51,25,199,-287,499,711
1176,50,27,199,-457,419,700
1177,49,5,173,-650,316,661
1178,49,0,158,-968,167,620
1179,42,-5,182,-1371,54,588
1180,68,-31,221,-1779,-61,612
1181,82,-61,273,-2158,-75,575
1182,128,-90,325,-2525,-63,518
1183,136,-122,412,-2816,-167,424
1184,128,-142,494,-3044,-378,362
1185,110,-192,606,-3150,-571,286
1186,71,-233,680,-3232,-604,325
1187,58,-256,763,-3390,-487,403
1188,73,-275,864,-3486,-179,456
1189,152,-314,921,-3457,67,454
1190,238,-350,964,-3306,60,309
1191,264,-371,1012,-3128,-317,149
1192,209,-363,1039,-3021,-671,0
1193,125,-326,1104,-2943,-696,-35
1194,47,-338,1193,-2873,-380,-85
1195,21,-342,1232,-2818,153,-62
1196,5,-356,1287,-2769,577,28
1197,20,-341,1347,-2707,571,94
1198,8,-339,1424,-2679,298,57
1199,-13,-346,1460,-2636,-63,61
1200,1,-347,1524,-2572,-388,137
1201,5,-339,1606,-2509,-380,155
1202,5,-340,1707,-2500,-73,161
1203,-11,-346,1790,-2375,388,61
1204,-36,-361,1880,-2222,622,-42
1205,-55,-433,1963,-1959,616,-91
1206,-50,-445,2008,-1650,462,-42
1207,-57,-478,2042,-1287,257,-39
1208,-50,-506,2048,-900,-122,18
1209,-44,-506,2026,-369,-477,122
1210,-42,-524,1978,137,-534,268
1211,4,-520,1930,579,-290,309
1212,47,-520,1838,993,7,227
1213,69,-513,1780,1415,52,167
1214,65,-520,1706,1723,3,63
1215,43,-514,1629,1963,-46,-5
1216,49,-500,1584,2180,-83,-64
1217,30,-478,1512,2395,-89,-169
1218,14,-475,1434,2649,-97,-230
1219,15,-449,1371,2879,-73,-289
1220,-4,-437,1302,2991,-83,-291
1221,-5,-412,1253,3102,-124,-291
1222,-19,-397,1190,3244,-177,-312
1223,-45,-398,1118,3336,-259,-228
1224,-57,-386,1055,3338,-319,-60
1225,-36,-350,992,3323,-298,22
1226,-10,-324,926,3301,-360,53
1227,1,-307,840,3293,-530,102
1228,9,-278,777,3278,-751,178
1229,-18,-248,686,3114,-811,233
1230,-12,-216,642,2914,-737,286
1231,-11,-164,585,2770,-589,352
1232,7,-136,535,2664,-421,389
1233,24,-143,474,2588,-300,395
1234,26,-100,415,2405,-368,446
1235,56,-59,342,2157,-477,442
1236,48,-39,293,1895,-520,383
1237,34,-7,263,1575,-589,434
1238,15,5,240,1260,-446,428
1239,8,5,213,985,-183,422
1240,35,43,194,821,15,409
1241,67,59,169,719,36,307
1242,36,45,143,577,-101,303
1243,55,51,130,401,-196,297
1244,62,66,136,141,-95,200
1245,68,35,143,-111,50,135
1246,71,6,167,-291,161,30
1247,50,-22,154,-560,233,45
1248,49,-22,162,-898,259,155
1249,76,-14,204,-1234,394,223
1250,106,-29,242,-1451,601,165
1251,107,-46,300,-1660,714,106
1252,100,-63,369,-1869,706,-5
1253,90,-113,417,-2088,636,-113
1254,83,-172,486,-2345,423,-160
1255,86,-147,582,-2634,66,-64
1256,61,-131,647,-2853,-3,4
1257,74,-203,697,-2923,341,28
1258,88,-229,776,-3017,710,53
1259,44,-275,857,-3168,991,92
1260,43,-297,953,-3205,1097,114
1261,77,-276,1032,-3127,1044,22
1262,68,-275,1076,-3015,806,-70
1263,24,-325,1108,-2881,480,-103
1264,39,-375,1189,-2797,331,-60
1265,57,-385,1233,-2740,597,-39
1266,74,-370,1278,-2642,1120,-58
1267,72,-365,1326,-2595,1630,-207
1268,27,-378,1419,-2646,1942,-394
1269,-57,-411,1532,-2644,2009,-558
1270,-129,-419,1656,-2605,1868,-535
1271,-136,-399,1726,-2394,1448,-460
1272,-144,-379,1813,-2093,913,-416
1273,-158,-383,1895,-1773,601,-396
1274,-191,-414,1951,-1506,607,-335
1275,-185,-414,1987,-1156,780,-296
1276,-149,-448,1986,-748,841,-292
1277,-146,-487,1991,-373,708,-255
1278,-106,-490,1962,-58,411,-207
1279,-104,-514,1929,266,148,-259
1280,-111,-520,1880,604,-75,-187
1281,-87,-502,1848,975,-181,-185
1282,-72,-481,1789,1323,-231,-214
1283,-66,-490,1707,1678,-184,-261
1284,-67,-500,1631,2030,-208,-275
1285,-52,-477,1540,2297,-345,-242
1286,-34,-438,1459,2506,-427,-271
1287,-10,-423,1364,2680,-495,-316
1288,18,-416,1286,2789,-524,-384
1289,31,-403,1231,2791,-522,-460
1290,21,-376,1201,2744,-604,-523
1291,-14,-385,1162,2692,-739,-564
1292,-17,-348,1125,2768,-911,-492
1293,-3,-323,1086,2955,-884,-476
1294,33,-302,1008,3157,-753,-509
1295,38,-285,920,3321,-679,-533
1296,69,-275,828,3403,-642,-599
1297,91,-217,764,3317,-591,-763
1298,75,-206,700,3137,-577,-929
1299,36,-189,658,2942,-626,-933
1300,9,-176,626,2782,-647,-888
1301,9,-137,597,2633,-552,-781
1302,1,-84,573,2537,-413,-728
1303,0,-29,539,2532,-216,-718
1304,14,-16,482,2629,44,-750
1305,-8,-13,432,2707,173,-802
1306,-20,-8,369,2682,185,-828
1307,-45,-29,303,2543,181,-824
1308,-63,-27,253,2252,149,-751
1309,-90,-11,191,1858,130,-570
1310,-74,18,163,1403,32,-291
1311,-50,72,122,969,-85,-189
1312,-41,78,92,573,-155,-160
1313,-53,83,94,170,-231,-41
1314,-46,128,91,-250,-87,18
1315,4,96,140,-613,210,-60
1316,28,98,162,-882,401,-203
1317,4,74,216,-1123,536,-337
1318,-44,47,230,-1324,685,-445
1319,-77,24,256,-1556,794,-455
1320,-70,17,296,-1793,847,-367
1321,-63,1,298,-2015,903,-320
1322,-83,-27,305,-2185,1021,-289
1323,-106,-53,341,-2343,1146,-207
1324,-92,-66,368,-2339,1347,-169
1325,-121,-75,360,-2318,1722,-105
1326,-108,-120,391,-2404,2069,-54
1327,-66,-181,394,-2650,2116,-99
1328,-59,-210,462,-3072,1843,-166
1329,-114,-246,601,-3644,1499,-164
1330,-184,-293,769,-4226,1491,-138
1331,-181,-316,988,-4677,1866,-119
1332,-171,-398,1231,-4906,2230,-251
1333,-239,-462,1437,-4976,2173,-376
1334,-251,-479,1637,-4736,1622,-347
1335,-222,-475,1773,-4107,864,-191
1336,-164,-482,1866,-3410,271,-74
1337,-128,-439,1917,-2869,-216,-89
1338,-102,-429,1895,-2408,-327,-251
1339,-39,-470,1889,-2115,-351,-482
1340,-17,-496,1924,-2007,-434,-664
1341,-85,-508,2004,-2025,-337,-728
1342,-119,-509,2048,-1877,-173,-671
1343,-118,-509,2048,-1591,-99,-531
1344,-122,-507,2048,-1216,-202,-476
1345,-75,-498,2048,-666,-632,-470
1346,-45,-489,2048,12,-1181,-542
1347,-43,-503,2005,618,-1620,-646
1348,-54,-498,1917,981,-1548,-847
1349,-62,-516,1852,1217,-1132,-914
1350,-18,-484,1797,1469,-823,-851
1351,39,-483,1706,1762,-585,-951
1352,15,-534,1668,2024,-546,-1101
1353,-24,-506,1625,2260,-675,-1041
1354,-3,-452,1583,2643,-870,-1021
1355,15,-434,1511,3014,-999,-1132
1356,5,-411,1415,3278,-1030,-1296
1357,-5,-410,1327,3465,-1009,-1441
1358,-14,-407,1232,3604,-1028,-1447
1359,-21,-375,1144,3649,-1013,-1433
1360,1,-328,1047,3604,-843,-1486
1361,-7,-297,967,3565,-614,-1546
1362,-43,-313,893,3504,-431,-1480
1363,-54,-261,849,3362,-308,-1251
1364,4,-216,795,3315,-218,-1187
1365,4,-160,722,3321,-245,-1193
1366,8,-138,624,3366,-220,-1335
1367,18,-159,581,3360,-214,-1503
1368,-2,-107,522,3200,-222,-1683
1369,-60,-91,458,3012,-59,-1900
1370,-157,-94,393,2774,132,-1775
1371,-261,-131,347,2428,368,-1226
1372,-229,-48,310,2069,495,-458
1373,-139,46,292,1864,696,-21
1374,-85,82,221,1711,853,81
1375,-74,85,164,1467,1028,-13
1376,-33,81,178,1188,1093,-269
1377,-36,78,165,987,960,-511
1378,-45,87,141,789,642,-632
1379,-60,50,108,571,362,-832
1380,-63,34,95,219,87,-972
1381,-73,13,98,-154,-210,-1017
1382,-92,-24,105,-492,-399,-1052
1383,-157,-47,122,-826,-456,-867
1384,-197,-49,117,-1138,-370,-419
1385,-142,6,170,-1423,-183,43
1386,-54,50,179,-1666,140,165
1387,-8,24,164,-1832,261,16
1388,0,-9,191,-2035,38,-173
1389,7,-28,208,-2304,-327,-464
1390,-38,-95,207,-2566,-802,-652
1391,-75,-173,224,-2951,-1372,-496
1392,-176,-238,370,-3574,-2087,8
1393,-222,-286,597,-4224,-2067,772
1394,-168,-238,792,-4757,-593,1473
1395,58,-257,968,-4761,1099,1405
1396,227,-324,1158,-4361,1915,795
1397,217,-310,1266,-3752,1663,200
1398,188,-275,1272,-2931,704,-353
1399,101,-349,1267,-2412,-145,-746
1400,-27,-424,1285,-2566,-378,-900
1401,-125,-440,1391,-3060,-179,-626
1402,-111,-376,1503,-3404,38,-113
1403,-88,-357,1609,-3535,480,225
1404,-62,-333,1716,-3498,941,325
1405,-32,-389,1862,-3248,1194,211
1406,-44,-407,1964,-2849,1066,131
1407,-42,-435,1983,-2369,601,88
1408,-35,-425,2000,-1927,36,4
1409,-72,-438,1985,-1586,-329,-31
1410,-97,-475,1972,-1326,-511,83
1411,-101,-462,2001,-1121,-511,247
1412,-60,-475,2023,-929,-280,303
1413,-18,-470,2032,-636,3,295
1414,23,-470,2008,-236,163,204
1415,60,-476,2007,264,89,28
1416,58,-461,1930,788,-167,-236
1417,17,-486,1843,1301,-515,-494
1418,29,-472,1753,1688,-862,-593
1419,65,-460,1648,2022,-1122,-666
1420,68,-451,1544,2264,-1263,-708
1421,51,-470,1465,2416,-1253,-701
1422,69,-475,1412,2483,-1202,-474
1423,110,-419,1362,2577,-999,-318
1424,145,-398,1288,2733,-538,-431
1425,150,-405,1239,2944,-149,-554
1426,168,-377,1166,3110,97,-716
1427,174,-356,1074,3266,214,-939
1428,160,-343,999,3383,181,-1179
1429,92,-351,935,3424,85,-1394
1430,43,-369,893,3334,-1,-1371
1431,39,-316,846,3157,-118,-1132
1432,25,-260,803,3036,-85,-970
1433,24,-224,765,3045,62,-914
1434,35,-188,718,3004,337,-900
1435,32,-155,668,2942,556,-900
1436,34,-136,628,2862,673,-933
1437,69,-99,573,2747,712,-1050
1438,66,-65,514,2641,653,-1279
1439,-3,-81,479,2512,513,-1445
1440,-73,-74,441,2319,419,-1355
1441,-103,-86,408,2088,480,-1146
1442,-120,-65,377,1870,552,-802
1443,-98,-22,378,1690,603,-503
1444,-78,-11,336,1586,733,-445
1445,-75,12,298,1469,798,-460
1446,-87,30,240,1329,718,-488
1447,-71,54,220,1248,507,-539
1448,-64,48,176,1161,235,-558
1449,-83,58,127,959,-52,-601
1450,-124,75,127,672,-292,-671
1451,-186,71,72,-43,75,-103
1452,-180,52,113,332,-255,-527
1453,-126,82,96,-378,462,108
1454,-50,73,109,-783,677,172
1455,-21,54,107,-1203,624,122
1456,-15,45,124,-1584,360,-25
1457,-27,11,160,-1943,-65,-119
1458,-81,-29,193,-2285,-433,-140
1459,-108,-70,232,-2699,-610,-7
1460,-89,-98,248,-3109,-452,215
1461,-74,-127,265,-3466,24,403
1462,-58,-146,344,-3793,599,540
1463,-56,-142,458,-4078,1296,608
1464,-91,-188,594,-4316,2392,403
1465,-91,-251,758,-4455,3423,106
1466,-120,-300,944,-4423,4005,-195
1467,-170,-369,1118,-4279,3991,-609
1468,-312,-447,1236,-4199,3458,-785
1469,-414,-455,1432,-4291,2747,-587
1470,-408,-507,1566,-4216,1923,-267
1471,-363,-492,1709,-3912,913,350
1472,-269,-467,1787,-3470,208,530
1473,-203,-489,1847,-3011,-280,436
1474,-192,-468,1896,-2591,-626,295
1475,-193,-434,1900,-2185,-880,213
1476,-170,-423,1919,-1806,-804,49
1477,-164,-403,1885,-1509,-470,-236
1478,-212,-421,1909,-1316,-149,-482
1479,-308,-451,1954,-1212,194,-449
1480,-346,-452,1991,-1070,442,-115
1481,-269,-441,2048,-714,614,108
1482,-222,-437,2048,-259,593,61
1483,-236,-452,2048,288,304,-83
1484,-218,-457,1997,786,-311,-111
1485,-186,-450,1942,1254,-1040,-162
1486,-142,-429,1833,1629,-1561,-308
1487,-163,-462,1748,1916,-1864,-462
1488,-260,-540,1673,2038,-1899,-259
1489,-220,-472,1626,2065,-1716,317
1490,-97,-419,1573,2252,-1349,590
1491,2,-380,1503,2625,-1034,555
1492,22,-377,1420,3038,-872,321
1493,33,-379,1334,3301,-874,57
1494,24,-365,1248,3403,-954,-162
1495,21,-333,1164,3432,-1108,-320
1496,37,-318,1086,3409,-1251,-482
1497,53,-303,1009,3323,-1393,-611
1498,26,-266,953,3211,-1442,-619
1499,0,-248,914,3102,-1147,-558
1500,-8,-220,884,2981,-550,-414
1501,12,-194,813,2858,167,-289
1502,53,-189,762,2694,782,-205
1503,62,-165,719,2506,1218,-167
1504,49,-158,643,2325,1482,-166
1505,37,-140,606,2155,1587,-232
1506,-13,-121,574,1926,1524,-238
1507,-63,-109,554,1696,1366,-169
1508,-102,-78,544,1463,1249,-105
1509,-110,-42,556,1397,1099,-78
1510,-121,28,559,1498,898,-83
1511,-126,29,522,1702,741,-87
1512,-145,13,467,1850,663,-78
1513,-148,12,389,1807,538,-93
1514,-154,31,331,1653,423,-76
1515,-146,29,287,1465,288,-60
1516,-142,39,289,1237,220,-44
1517,-152,23,227,971,144,-7
1518,-137,32,208,733,-101,59
1519,-129,53,173,516,-491,114
1520,-128,52,146,293,-915,120
1521,-130,69,143,61,-1259,69
1522,-135,47,107,-191,-1485,40
1523,-152,42,121,-472,-1618,90
1524,-140,49,100,-794,-1561,186
1525,-117,42,101,-1156,-1323,260
1526,-94,31,108,-1558,-1067,311
1527,-79,-24,113,-1986,-911,350
1528,-45,-51,162,-2377,-905,352
1529,13,-88,218,-2695,-1181,366
1530,36,-108,293,-2919,-1589,272
1531,26,-166,393,-3125,-1989,182
1532,-26,-158,479,-3355,-2140,233
1533,-62,-194,569,-3455,-1798,342
1534,-55,-251,658,-3531,-972,497
1535,10,-284,725,-3671,-163,584
1536,52,-292,813,-3755,198,555
1537,90,-330,884,-3857,93,463
1538,144,-334,965,-3984,-444,350
1539,135,-342,1052,-4044,-1145,200
1540,73,-363,1148,-4029,-1618,198
1541,3,-412,1277,-3914,-1581,432
1542,-13,-455,1412,-3832,-929,680
1543,27,-468,1539,-3787,-101,833
1544,92,-458,1592,-3673,485,842
1545,176,-463,1643,-3478,472,762
1546,219,-484,1733,-3265,73,518
1547,225,-528,1783,-3017,-515,184
1548,171,-554,1872,-2712,-1069,-85
1549,93,-568,1977,-2466,-1327,-232
1550,26,-553,2048,-2144,-1032,-205
1551,7,-558,2048,-1029,517,131
1552,-15,-552,2048,-1656,-337,-64
1553,45,-551,2048,-533,1118,221
1554,89,-555,2032,-152,1282,112
1555,91,-545,1986,178,960,-7
1556,80,-550,1911,483,411,-148
1557,77,-527,1890,760,-183,-269
1558,90,-548,1843,991,-487,-466
1559,39,-571,1826,1168,-565,-580
1560,-3,-568,1820,1405,-466,-507
1561,-9,-536,1769,1811,-155,-355
1562,19,-514,1722,2350,181,-246
1563,38,-530,1645,2848,431,-226
1564,56,-504,1513,3243,562,-201
1565,67,-495,1397,3467,649,-220
1566,85,-487,1301,3563,507,-257
1567,79,-460,1200,3526,237,-312
1568,83,-421,1117,3450,-99,-361
1569,78,-393,1042,3329,-415,-388
1570,83,-356,1008,3190,-546,-458
1571,82,-342,984,3045,-472,-519
1572,70,-323,991,2983,-282,-601
1573,52,-291,976,3038,-7,-664
1574,36,-259,940,3280,321,-703
1575,24,-255,869,3557,648,-671
1576,41,-238,795,3702,888,-621
1577,55,-212,715,3745,901,-587
1578,45,-192,627,3666,767,-574
1579,19,-155,579,3489,579,-556
1580,6,-104,513,3241,339,-480
1581,-37,-43,490,2989,163,-441
1582,-80,-9,456,2690,71,-449
1583,-105,14,404,2463,77,-414
1584,-119,30,391,2264,181,-287
1585,-120,33,333,2081,329,-140
1586,-107,58,307,1864,413,-17
1587,-85,58,271,1649,417,65
1588,-84,56,226,1422,358,149
1589,-51,40,202,1143,216,241
1590,-33,33,160,852,26,313
1591,-24,44,153,536,-206,348
1592,10,51,112,262,-388,334
1593,23,35,113,-41,-522,313
1594,-12,25,94,-392,-583,297
1595,-24,32,131,-755,-497,292
1596,-8,36,155,-1003,-298,301
1597,5,48,164,-1160,-151,284
1598,12,44,165,-1302,-143,241
1599,18,33,182,-1455,-212,219
1600,42,6,205,-1615,-288,131
1601,52,4,248,-1814,-323,42
1602,50,-28,286,-2031,-251,-105
1603,36,-48,336,-2283,-179,-218
1604,29,-87,411,-2519,54,-343
1605,-7,-112,498,-2820,435,-343
1606,-3,-147,583,-3031,755,-376
1607,-12,-193,680,-3152,972,-345
1608,-5,-242,763,-3236,907,-267
1609,-11,-269,849,-3283,550,-193
1610,-8,-260,891,-3296,-18,-148
1611,-4,-264,889,-3326,-681,-37
1612,-6,-260,930,-3466,-1265,122
1613,11,-290,1009,-3689,-1581,268
1614,-10,-351,1107,-3961,-1563,522
1615,12,-394,1268,-4212,-1302,776
1616,73,-431,1429,-4371,-696,877
1617,103,-443,1605,-4324,-136,911
1618,137,-436,1739,-3990,171,764
1619,134,-443,1801,-3468,169,499
1620,113,-478,1858,-2960,-145,379
1621,125,-519,1885,-2599,-526,288
1622,121,-472,1878,-2341,-800,174
1623,127,-535,1967,-2152,-989,153
1624,103,-507,2016,-1884,-1097,182
1625,83,-484,2040,-1503,-1026,221
1626,97,-510,2048,-1072,-737,208
1627,111,-430,2048,-656,-362,192
1628,90,-418,2048,-128,200,-103
1629,68,-474,1975,440,603,-263
1630,79,-500,1942,807,866,-339
1631,69,-480,1900,1071,1089,-478
1632,76,-484,1824,1368,1265,-662
1633,92,-490,1780,1711,1380,-894
1634,13,-528,1736,2006,1423,-1042
1635,-69,-516,1672,2286,1327,-917
1636,-86,-509,1619,2612,1091,-554
1637,-48,-473,1532,2948,769,-154
1638,6,-429,1442,3200,501,0
1639,16,-404,1342,3348,300,-46
1640,26,-384,1281,3438,85,-105
1641,38,-369,1203,3477,-77,-199
1642,40,-354,1135,3545,-220,-271
1643,62,-337,1085,3592,-298,-332
1644,72,-311,1021,3620,-255,-470
1645,79,-277,985,3680,-167,-597
1646,72,-280,922,3713,-81,-656
1647,68,-251,896,3737,83,-738
1648,58,-210,858,3733,194,-740
1649,25,-187,793,3710,341,-751
1650,39,-178,769,3659,460,-767
1651,36,-163,688,3583,503,-767
1652,22,-135,662,3417,316,-695
1653,-14,-85,594,3223,79,-638
1654,-55,-74,550,3092,-114,-529
1655,-83,-35,482,2942,-280,-289
1656,-91,6,430,2747,-415,-74
1657,-125,34,376,2508,-499,77
1658,-130,61,330,2251,-538,227
1659,-145,74,274,1999,-581,401
1660,-153,81,233,1700,-554,618
1661,-113,84,220,1436,-452,782
1662,-45,94,207,1223,-409,911
1663,20,104,173,1094,-520,950
1664,55,100,123,975,-684,881
1665,98,80,69,768,-862,770
1666,121,58,67,436,-1044,629
1667,133,54,59,-15,-1270,432
1668,134,55,105,-537,-1464,299
1669,103,61,142,-962,-1567,295
1670,77,54,169,-1226,-1577,342
1671,61,64,205,-1402,-1501,436
1672,58,50,212,-1568,-1165,586
1673,65,66,244,-1755,-583,719
1674,82,37,266,-1906,67,704
1675,112,-14,272,-2124,454,694
1676,133,-49,313,-2433,478,786
1677,155,-63,334,-2773,235,963
1678,187,-84,341,-3095,-93,1102
1679,226,-125,411,-3371,-386,1114
1680,195,-134,484,-3634,-587,1086
1681,138,-141,570,-3902,-423,989
1682,93,-183,664,-4113,194,846
1683,39,-246,744,-4322,858,885
1684,43,-270,815,-4523,1345,1131
1685,122,-268,960,-4597,1601,1297
1686,183,-299,1046,-4548,1687,1235
1687,192,-351,1137,-4417,1618,991
1688,159,-386,1235,-4421,1396,731
1689,112,-420,1366,-4556,1167,471
1690,81,-457,1522,-4601,1099,110
1691,-19,-507,1700,-4517,909,-25
1692,-140,-504,1857,-4255,722,225
1693,-117,-526,1985,-3705,581,629
1694,-60,-492,2048,-3023,450,1028
1695,-19,-504,2048,-2507,517,1063
1696,15,-505,2048,-2070,618,922
1697,-19,-509,2048,-1388,542,432
1698,-1,-492,2048,-1726,618,688
1699,-62,-524,2048,-988,253,278
1700,-139,-577,2048,-603,11,333
1701,-207,-606,2048,-285,34,555
1702,-165,-590,2048,129,112,856
1703,-117,-577,2048,762,286,932
1704,-98,-567,2033,1452,235,877
1705,-94,-565,1913,2073,66,866
1706,-75,-572,1780,2477,-95,885
1707,-45,-546,1656,2731,-323,889
1708,-42,-531,1551,2852,-536,909
1709,-43,-492,1491,2872,-712,958
1710,-34,-469,1393,2870,-772,1018
1711,-34,-431,1350,2913,-755,1067
1712,-46,-417,1306,2954,-595,1098
1713,-39,-392,1265,3047,-278,1096
1714,-33,-379,1190,3223,-79,1098
1715,-27,-357,1141,3426,-124,1118
1716,-20,-350,1040,3633,-370,1213
1717,-9,-336,947,3760,-720,1303
1718,0,-311,834,3760,-1069,1383
1719,5,-276,759,3657,-1337,1448
1720,19,-241,676,3418,-1352,1446
1721,22,-192,608,3116,-1222,1395
1722,-12,-184,575,2827,-893,1422
1723,-12,-176,552,2645,-563,1588
1724,17,-121,514,2467,-272,1678
1725,64,-99,529,2377,-89,1594
1726,52,-78,521,2387,-11,1518
1727,40,-46,502,2450,-108,1438
1728,7,-57,469,2555,-237,1350
1729,13,-44,414,2547,-329,1356
1730,22,-3,361,2459,-294,1297
1731,40,7,293,2276,-126,1211
1732,30,-4,262,1963,36,1188
1733,52,29,212,1633,21,1155
1734,67,42,188,1315,-11,1131
1735,51,26,151,1000,-165,1153
1736,61,17,123,672,-393,1227
1737,94,19,114,330,-517,1213
1738,134,44,91,36,-661,1145
1739,152,47,89,-238,-708,1000
1740,157,51,97,-543,-610,833
1741,157,46,126,-884,-349,633
1742,152,17,159,-1257,13,450
1743,155,-7,191,-1658,310,327
1744,128,-31,236,-2023,450,231
1745,115,-51,278,-2343,413,292
1746,107,-32,332,-2609,345,422
1747,126,-25,408,-2804,232,483
1748,122,-39,453,-2963,194,493
1749,131,-68,537,-3062,415,389
1750,134,-118,591,-3127,753,227
1751,126,-209,635,-3287,1105,36
1752,100,-254,751,-3642,1394,-68
1753,110,-314,850,-3941,1401,-85
1754,120,-321,979,-4023,974,-82
1755,106,-341,1066,-3847,433,-154
1756,91,-379,1091,-3519,-188,-214
1757,70,-419,1128,-3125,-684,-199
1758,81,-401,1109,-3232,-643,-244
1759,53,-393,1181,-3201,-366,-132
1760,32,-403,1205,-3382,398,-117
1761,67,-433,1294,-3470,1052,-128
1762,121,-449,1356,-3394,1128,-136
1763,125,-470,1395,-3154,761,-240
1764,104,-477,1430,-2912,284,-300
1765,70,-448,1461,-2625,-42,-279
1766,11,-469,1527,-2443,1,-320
1767,-5,-491,1595,-2443,329,-353
1768,-4,-489,1653,-2427,667,-388
1769,-17,-500,1752,-2353,851,-414
1770,-57,-447,1860,-2144,1060,-498
1771,-103,-467,1943,-1781,1134,-509
1772,-157,-518,2048,-1482,935,-445
1773,-169,-494,2048,-1033,642,-398
1774,-168,-502,2048,-408,257,-414
1775,-179,-555,2048,231,-304,-353
1776,-160,-571,2025,750,-778,-246
1777,-121,-555,1971,1131,-1054,-232
1778,-105,-546,1906,1493,-1034,-224
1779,-101,-580,1814,1860,-798,-212
1780,-78,-549,1746,2157,-601,-125
1781,-57,-543,1664,2422,-446,-103
1782,-64,-533,1591,2645,-405,-68
1783,-71,-507,1509,2864,-364,0
1784,-64,-476,1432,3094,-220,71
1785,-36,-445,1355,3315,-61,81
1786,-38,-442,1294,3465,9,22
1787,-72,-457,1245,3536,-11,49
1788,-104,-401,1174,3565,-116,237
1789,-51,-374,1126,3686,-329,317
1790,-75,-370,1061,3702,-487,389
1791,-90,-313,982,3619,-630,532
1792,-77,-279,924,3547,-595,637
1793,-74,-257,853,3518,-601,840
1794,-89,-222,779,3455,-628,1059
1795,-84,-202,725,3385,-513,1229
1796,-61,-167,682,3268,-259,1377
1797,-20,-123,627,3166,-61,1504
1798,-3,-88,561,3123,28,1551
1799,-26,-92,514,2965,46,1559
1800,-23,-95,461,2707,54,1637
1801,13,-38,456,2502,-20,1665
1802,35,-2,432,2313,-83,1618
1803,35,-7,385,2174,-75,1518
1804,35,-31,367,2020,-71,1463
1805,82,-37,367,1817,-102,1454
1806,128,-18,338,1602,-116,1342
1807,173,-20,309,1411,-192,1147
1808,172,-29,268,1207,-304,973
1809,181,-58,265,942,-444,770
1810,174,-85,231,659,-472,604
1811,149,-77,186,428,-724,618
1812,144,-36,171,254,-823,633
1813,135,-40,161,114,-612,602
1814,101,-27,122,-52,-267,709
1815,108,-10,120,-220,319,799
1816,151,10,90,-449,790,766
1817,166,15,70,-744,993,674
1818,166,12,92,-1129,917,551
1819,164,14,93,-1519,759,438
1820,154,-13,125,-1920,526,352
1821,145,-32,167,-2338,212,293
1822,92,-63,241,-2806,-26,194
1823,19,-113,346,-3269,-144,268
1824,12,-129,461,-3607,7,368
1825,75,-134,546,-3865,103,465
1826,165,-128,619,-4004,-75,485
1827,229,-200,692,-3955,-552,381
1828,246,-230,826,-3935,-974,325
1829,205,-266,899,-3949,-868,200
1830,168,-312,979,-3986,-386,14
1831,117,-360,1065,-4107,374,-195
1832,66,-426,1180,-4267,1044,-189
1833,78,-469,1309,-4291,1364,53
1834,103,-476,1415,-4248,1439,153
1835,130,-524,1601,-3871,901,-244
1836,143,-478,1504,-4111,1284,53
1837,60,-549,1679,-3693,331,-431
1838,-6,-588,1799,-3619,-56,-408
1839,-16,-554,1876,-3400,-102,-298
1840,-36,-544,1897,-2961,85,-218
1841,-20,-530,1953,-2451,173,-128
1842,-15,-529,1980,-1869,458,-210
1843,-40,-559,1975,-1416,521,-203
1844,-50,-555,1985,-1076,304,-164
1845,-57,-564,1980,-787,32,-179
1846,-54,-558,1972,-572,-122,-130
1847,-44,-574,1972,-328,-159,-66
1848,-7,-559,1978,-31,-169,-54
1849,-19,-577,1996,342,-142,-123
1850,-40,-601,1998,815,-124,-132
1851,-21,-597,1932,1397,-159,-93
1852,5,-583,1823,1998,-247,-76
1853,48,-595,1709,2479,-339,-72
1854,77,-593,1618,2766,-417,-148
1855,89,-571,1542,2930,-474,-279
1856,104,-557,1468,3049,-558,-353
1857,102,-543,1417,3137,-626,-458
1858,66,-553,1370,3213,-669,-544
1859,47,-517,1327,3323,-604,-556
1860,47,-489,1286,3531,-556,-578
1861,44,-463,1212,3748,-644,-488
1862,66,-438,1138,3963,-749,-460
1863,47,-405,1063,4127,-784,-443
1864,30,-399,996,4178,-786,-355
1865,36,-372,938,4125,-761,-289
1866,53,-330,879,4092,-716,-281
1867,61,-269,800,4053,-667,-283
1868,31,-238,710,4026,-618,-222
1869,34,-196,635,3940,-501,-70
1870,41,-135,569,3737,-278,-19
1871,51,-82,501,3551,36,-50
1872,39,-78,461,3340,202,-46
1873,14,-61,416,2996,189,30
1874,-2,-27,382,2678,153,63
1875,-3,22,349,2393,56,141
1876,25,36,300,2168,-91,239
1877,33,76,242,1979,-261,264
1878,49,70,210,1797,-394,241
1879,55,62,176,1576,-470,272
1880,64,85,164,1317,-446,286
1881,56,90,134,1020,-235,215
1882,56,77,134,744,-19,153
1883,53,97,134,526,167,147
1884,71,118,141,367,392,182
1885,98,132,135,211,702,108
1886,103,96,138,37,802,-44
1887,72,91,138,-177,560,-66
1888,10,84,132,-459,230,-5
1889,-12,110,141,-832,-15,83
1890,-18,141,168,-1226,-17,98
1891,-48,94,183,-1584,106,163
1892,-47,99,210,-1883,263,356
1893,-13,47,238,-2127,526,518
1894,40,28,262,-2361,687,626
1895,84,27,291,-2549,564,661
1896,94,-5,303,-2744,278,616
1897,53,-46,355,-3000,-67,645
1898,69,-139,409,-3685,-130,799
1899,38,-93,378,-3328,-159,715
1900,110,-173,452,-4099,-198,852
1901,134,-252,499,-4562,-345,958
1902,161,-311,599,-4908,-458,973
1903,227,-313,716,-5187,-497,874
1904,240,-347,856,-5244,-454,672
1905,185,-418,1051,-5101,-272,422
1906,146,-465,1169,-4890,177,233
1907,151,-528,1254,-4594,628,108
1908,156,-563,1318,-4355,843,51
1909,176,-610,1381,-4148,880,42
1910,175,-662,1454,-4021,812,-7
1911,177,-691,1501,-3980,708,-101
1912,197,-692,1595,-3900,571,-205
1913,170,-678,1732,-3767,530,-412
1914,64,-675,1815,-3574,706,-636
1915,47,-646,1890,-3125,899,-630
1916,48,-622,1938,-2504,1116,-501
1917,89,-663,1924,-1894,1304,-437
1918,114,-658,1931,-1402,1274,-466
1919,102,-678,1909,-1144,1052,-558
1920,62,-666,1911,-976,677,-652
1921,44,-673,1948,-799,243,-724
1922,32,-640,1946,-476,-77,-728
1923,28,-638,1953,-25,-114,-707
1924,32,-636,1924,506,62,-671
1925,52,-653,1903,1059,192,-607
1926,50,-662,1843,1516,235,-570
1927,79,-640,1767,1907,126,-533
1928,107,-641,1686,2266,-20,-599
1929,128,-613,1587,2555,-181,-744
1930,118,-605,1493,2758,-358,-894
1931,120,-603,1394,2846,-528,-994
1932,82,-583,1346,2875,-534,-1068
1933,54,-544,1287,2877,-405,-1056
1934,27,-508,1274,2961,-233,-960
1935,34,-463,1216,3125,-46,-818
1936,51,-432,1171,3328,189,-757
1937,94,-368,1026,3633,325,-771
1938,77,-407,1095,3516,339,-744
1939,56,-359,914,3575,-73,-900
1940,58,-331,849,3401,-311,-900
1941,81,-363,988,3674,151,-871
1942,55,-293,813,3188,-403,-962
1943,52,-253,769,3006,-528,-951
1944,41,-214,737,2901,-608,-892
1945,67,-207,694,2825,-606,-892
1946,80,-167,663,2739,-589,-945
1947,84,-130,630,2680,-550,-1029
1948,79,-110,601,2668,-425,-1158
1949,52,-95,583,2666,-216,-1273
1950,-3,-110,523,2612,60,-1201
1951,-33,-87,502,2565,140,-916
1952,-12,-60,481,2504,269,-660
1953,21,-20,428,2436,380,-535
1954,20,-13,385,2297,448,-490
1955,18,-25,320,2112,388,-462
1956,16,-2,271,1916,194,-460
1957,41,17,236,1692,15,-515
1958,33,41,190,1487,-132,-626
1959,-8,35,152,1237,-222,-748
1960,-58,48,117,940,-351,-687
1961,-88,73,82,639,-374,-486
1962,-76,80,72,317,-177,-255
1963,-41,88,41,-56,153,-162
1964,-8,78,6,-498,333,-123
1965,47,34,-29,-927,87,-121
1966,60,48,-20,-1367,-278,-251
1967,-15,12,37,-1941,-667,-427
1968,-95,-9,76,-2703,-997,-132
1969,-122,-41,149,-3338,-1054,241
1970,-38,-56,280,-3759,-1022,454
1971,11,-114,369,-3914,-866,536
1972,59,-173,421,-3943,-698,606
1973,96,-200,477,-3965,-483,629
1974,176,-233,556,-3988,-157,571
1975,258,-273,632,-4058,97,366
1976,249,-317,731,-4099,173,127
1977,171,-393,842,-4107,323,-5
1978,128,-453,939,-4117,812,-39
1979,118,-478,1070,-4049,1448,69
1980,164,-456,1224,-3984,2067,125
1981,176,-475,1342,-3849,2569,-17
1982,195,-518,1437,-3564,2429,-154
1983,194,-557,1536,-3300,1833,-228
1984,195,-539,1646,-3138,1235,-378
1985,210,-499,1709,-2961,913,-646
1986,162,-519,1777,-2697,698,-974
1987,68,-580,1862,-2474,774,-1181
1988,35,-567,1942,-2263,819,-1167
1989,22,-510,1993,-1867,982,-910
1990,3,-540,2026,-1304,1103,-664
1991,20,-519,2029,-843,1097,-419
1992,77,-505,2008,-519,983,-474
1993,113,-503,1986,-213,552,-623
1994,138,-513,1953,24,-102,-875
1995,129,-555,1926,237,-788,-1083
1996,30,-617,1915,313,-1110,-970
1997,-9,-563,1979,424,-948,-587
1998,76,-518,1989,832,-345,-306
1999,158,-547,1893,1434,263,-255
2000,227,-540,1795,1957,362,-298
2001,264,-536,1679,2348,142,-593
2002,239,-532,1571,2670,-423,-773
2003,202,-515,1468,2830,-858,-957
2004,167,-499,1374,2819,-1020,-1091
2005,102,-482,1318,2731,-927,-1107
2006,68,-456,1238,2627,-591,-906
2007,98,-440,1189,2623,-179,-656
2008,143,-405,1153,2701,267,-576
2009,174,-370,1113,2862,605,-601
2010,179,-373,1037,3131,704,-681
2011,166,-335,959,3303,622,-783
2012,160,-314,888,3377,388,-914
2013,147,-293,806,3323,128,-1070
2014,126,-268,747,3166,-101,-1257
2015,84,-212,705,2944,-253,-1339
2016,57,-216,659,2743,-282,-1398
2017,7,-181,644,2512,-227,-1269
2018,-45,-170,617,2254,15,-1121
2019,-48,-151,599,2037,189,-789
2020,-33,-78,597,1887,349,-541
2021,-6,-21,605,1930,505,-589
2022,-4,0,563,2162,399,-707
2023,-32,-18,479,2365,93,-716
2024,-48,-10,400,2410,-233,-708
2025,-16,-80,390,2338,-360,-761
2026,-42,25,288,2190,-349,-837
2027,-12,22,248,2006,-112,-953
2028,-19,-5,222,1701,259,-1097
2029,-43,-4,191,1344,468,-1085
2030,-46,14,169,1022,409,-896
2031,-69,4,155,721,230,-675
2032,-75,12,131,399,-7,-457
2033,-85,45,138,76,-227,-238
2034,-100,53,119,-236,-276,-119
2035,-91,55,107,-555,-114,-93
2036,-97,30,111,-900,79,-70
2037,-103,10,129,-1281,179,18
2038,-89,-32,142,-1635,155,192
2039,-35,-50,128,-1971,-15,399
2040,23,-76,132,-2285,-405,643
2041,57,-91,169,-2609,-1054,831
2042,48,-85,251,-2920,-1884,911
2043,14,-90,320,-3185,-2058,807
2044,-29,-136,441,-3531,-1540,749
2045,-34,-156,523,-3875,-310,633
2046,-19,-227,633,-4012,933,610
2047,57,-258,734,-4033,1622,786
2048,129,-278,861,-3924,1853,735
2049,187,-343,912,-3791,1540,622
2050,184,-392,1008,-3744,956,471
2051,195,-382,1077,-3816,382,235
2052,186,-410,1186,-3910,-147,20
2053,134,-439,1324,-4021,-483,-187
2054,56,-479,1478,-4025,-454,-322
2055,-15,-502,1621,-3828,-11,-134
2056,19,-522,1778,-3422,583,106
2057,100,-494,1856,-2885,1140,280
2058,153,-500,1844,-2293,1347,368
2059,185,-540,1862,-1840,1198,229
2060,211,-532,1888,-1697,894,-11
2061,220,-555,1911,-1678,558,-421
2062,128,-553,1932,-1687,-13,-591
2063,77,-535,1994,-1637,-536,-451
2064,44,-539,2048,-1344,-653,-273
2065,41,-556,2048,-926,-446,-117
2066,32,-535,2048,-318,42,-11
2067,68,-509,2048,338,480,112
2068,127,-529,2035,926,823,6
2069,170,-521,1944,1317,714,-70
2070,214,-542,1841,1598,421,-240
2071,210,-520,1762,1766,128,-458
2072,201,-533,1715,1901,-114,-703
2073,179,-530,1645,1994,-257,-853
2074,167,-501,1586,2151,-265,-996
2075,158,-508,1560,2483,-188,-1128
2076,70,-519,1509,2938,-83,-1082
2077,31,-482,1414,3469,11,-765
2078,76,-462,1313,3957,247,-580
2079,138,-457,1144,4205,509,-601
2080,159,-418,1023,4332,511,-632
2081,186,-385,914,4301,290,-699
2082,196,-349,839,4123,77,-833
2083,200,-307,775,3846,-85,-1054
2084,186,-251,765,3555,-181,-1306
2085,162,-228,741,3334,-198,-1603
2086,124,-188,723,3223,-132,-1882
2087,69,-174,714,3215,122,-2128
2088,-54,-167,725,3215,599,-2173
2089,-110,-207,658,3137,1118,-1890
2090,-118,-172,641,2992,1360,-1244
2091,-81,-79,592,2805,1501,-679
2092,-32,-29,502,2695,1620,-431
2093,-20,-8,419,2192,1343,-326
2094,-13,-37,456,2510,1573,-367
2095,-38,-5,401,1834,1026,-291
2096,-47,38,390,1576,569,-263
2097,-96,13,372,1416,163,-95
2098,-101,25,322,1313,-114,178
2099,-70,36,284,1221,-276,405
2100,-35,43,239,1149,-354,495
2101,-7,37,217,1069,-384,499
2102,0,55,192,914,-345,415
2103,7,54,165,654,-149,247
2104,8,61,131,379,50,69
2105,-4,53,110,110,42,-39
2106,-1,54,107,-193,-165,-60
2107,-34,43,90,-535,-386,-44
2108,-44,43,95,-892,-595,16
2109,-50,39,132,-1201,-708,81
2110,-56,37,125,-1502,-677,118
2111,-59,26,156,-1828,-610,155
2112,-57,5,199,-2170,-452,194
2113,-54,-24,267,-2531,-134,196
2114,-43,-62,320,-2887,196,223
2115,-54,-114,407,-3240,448,305
2116,-45,-146,475,-3574,648,434
2117,0,-137,588,-3719,673,477
2118,-6,-155,670,-3732,610,491
2119,-8,-194,698,-3730,470,516
2120,26,-259,782,-3756,257,469
2121,68,-278,904,-3922,134,375
2122,44,-302,1037,-4076,153,200
2123,27,-330,1177,-4023,294,63
2124,-3,-356,1266,-3898,737,-48
2125,-20,-384,1291,-3763,1169,-21
2126,0,-413,1351,-3517,1218,100
2127,25,-406,1430,-3334,1146,149
2128,19,-388,1462,-3236,972,63
2129,36,-420,1493,-3132,560,-76
2130,23,-475,1571,-3191,46,-205
2131,15,-478,1727,-3334,-427,-361
2132,-49,-488,1860,-3381,-534,-525
2133,-120,-512,1983,-3218,-364,-398
2134,-155,-511,2048,-2777,-227,-58
2135,-102,-501,2048,-2142,52,206
2136,-72,-514,2048,-1525,167,397
2137,-21,-477,2048,-800,183,352
2138,24,-539,2035,-148,-75,196
2139,32,-553,1974,274,-556,157
2140,61,-520,1882,494,-944,81
2141,80,-508,1850,721,-1171,-37
2142,78,-523,1826,957,-1110,-189
2143,52,-528,1781,1172,-745,-306
2144,36,-510,1744,1440,-306,-257
2145,60,-501,1725,1821,5,-156
2146,61,-452,1673,2280,284,-185
2147,64,-467,1580,2711,392,-238
2148,58,-477,1476,2977,228,-234
2149,53,-454,1390,3067,-7,-263
2150,39,-421,1298,3073,-226,-314
2151,59,-385,1234,3061,-417,-365
2152,61,-377,1154,2993,-464,-433
2153,43,-361,1108,2879,-403,-478
2154,60,-347,1104,2848,-315,-470
2155,41,-335,1127,2873,-30,-541
2156,7,-303,1091,3073,257,-539
2157,10,-309,1030,3377,411,-412
2158,30,-296,966,3563,419,-318
2159,35,-271,879,3643,286,-265
2160,53,-239,804,3670,79,-279
2161,53,-223,728,3623,-87,-312
2162,49,-175,662,3463,-210,-335
2163,53,-122,602,3244,-239,-380
2164,38,-104,572,3000,-112,-445
2165,24,-54,559,2744,233,-517
2166,18,-24,499,2555,659,-607
2167,17,-13,473,2420,898,-701
2168,16,17,440,2258,976,-855
2169,5,17,407,2161,980,-1072
2170,-23,5,365,2065,886,-1265
2171,-54,-8,333,1905,714,-1386
2172,-102,-17,307,1664,521,-1343
2173,-122,-24,279,1397,292,-1119
2174,-153,-55,248,1106,28,-710
2175,-144,-16,210,780,-380,-193
2176,-109,43,215,500,-501,75
2177,-104,56,169,321,-384,67
2178,-108,59,158,118,-138,69
2179,-97,59,137,-99,112,106
2180,-71,78,131,-347,212,112
2181,-46,50,144,-572,122,112
2182,-28,49,153,-793,-77,104
2183,-36,49,173,-1056,-304,42
2184,-74,15,159,-1353,-489,75
2185,-111,-36,201,-1679,-569,303
2186,-90,-10,242,-2033,-495,637
2187,-53,-21,266,-2336,-235,825
2188,10,-53,311,-2547,13,874
2189,64,-85,382,-2838,284,735
2190,108,-126,466,-3158,403,483
2191,129,-123,549,-3373,280,262
2192,175,-126,633,-3496,44,-113
2193,198,-120,697,-3537,-272,-601
2194,180,-172,747,-3529,-593,-1046
2195,132,-273,847,-3552,-770,-1498
2196,34,-381,917,-3812,-663,-1568
2197,-8,-311,1039,-4058,-661,-1281
2198,11,-367,1194,-4152,-501,-1044
2199,10,-355,1273,-4257,-79,-808
2200,103,-381,1435,-4347,493,-888
2201,196,-375,1603,-4166,782,-1318
2202,150,-376,1681,-3804,628,-1828
2203,43,-441,1741,-3242,-18,-2025
2204,-158,-493,1856,-2980,-716,-1742
2205,-271,-532,2002,-2838,-1186,-847
2206,-216,-495,2048,-2515,-1388,379
2207,-98,-429,2048,-2025,-1415,1213
2208,42,-394,2048,-1381,-1284,1260
2209,132,-413,2048,-785,-1290,829
2210,151,-469,2048,-345,-1509,420
2211,131,-451,2048,-119,-1794,264
2212,143,-436,2036,94,-1868,159
2213,167,-456,1987,291,-1645,59
2214,194,-474,1953,467,-1214,-21
2215,195,-475,1942,705,-661,-99
2216,161,-472,1900,1086,-54,-187
2217,152,-477,1850,1573,552,-220
2218,155,-466,1762,1963,1024,-167
2219,146,-486,1662,2303,1105,-132
2220,120,-475,1558,2530,942,-72
2221,107,-452,1473,2678,669,-33
2222,61,-441,1388,2778,415,55
2223,21,-418,1309,2846,304,219
2224,26,-388,1266,2906,560,383
2225,-6,-379,1232,2897,1241,448
2226,-38,-367,1207,2928,1935,561
2227,-94,-342,1167,2985,2247,920
2228,-105,-304,1062,3121,2196,1385
2229,-42,-285,956,3406,1731,1790
2230,8,-288,836,3600,894,2024
2231,51,-245,731,3631,-1,2075
2232,64,-205,606,3447,-780,2014
2233,66,-163,528,3123,-1302,1936
2234,90,-137,451,2768,-1415,1749
2235,103,-80,415,2401,-1294,1598
2236,120,-82,380,2071,-1015,1395
2237,150,-54,412,1854,-661,1083
2238,151,-3,387,1725,-376,711
2239,104,-21,368,1694,-241,403
2240,30,-19,335,1668,-257,258
2241,-30,-7,338,1565,-370,313
2242,-98,-20,313,1446,-399,542
2243,-97,-2,284,1317,-321,811
2244,-42,17,265,1205,-145,979
2245,18,20,235,1074,-24,1051
2246,68,17,212,926,5,989
2247,92,30,183,719,-108,840
2248,95,45,146,526,-440,694
2249,67,26,164,299,-724,561
2250,17,-4,159,-25,-827,518
2251,-36,-15,197,-453,-612,614
2252,-62,-7,232,-830,-257,840
2253,-42,20,265,-1097,183,1135
2254,16,16,272,-1238,571,1237
2255,76,33,306,-1334,706,1137
2256,90,34,309,-1463,745,887
2257,69,-8,332,-1642,765,586
2258,65,-66,335,-2021,771,262
2259,77,-67,375,-2519,509,-52
2260,0,-119,444,-3010,34,-244
2261,-117,-121,496,-3416,-513,32
2262,-174,-130,552,-3525,-944,688
2263,-158,-208,584,-3525,-1200,1442
2264,-68,-210,679,-3709,-1063,2360
2265,47,-264,756,-3992,-144,2596
2266,192,-303,855,-4240,706,2387
2267,266,-316,977,-4465,970,1944
2268,325,-440,1081,-4592,554,1290
2269,267,-465,1194,-4523,-563,879
2270,163,-508,1283,-4345,-1663,836
2271,89,-513,1412,-4101,-2048,961
2272,65,-518,1550,-3885,-1458,1038
2273,27,-535,1637,-3715,-300,1090
2274,74,-532,1664,-3332,485,1252
2275,141,-486,1704,-2844,831,1401
2276,201,-490,1715,-2386,960,1194
2277,243,-573,1748,-2101,755,842
2278,234,-573,1811,-2043,151,512
2279,168,-591,1895,-2045,-399,170
2280,87,-576,1997,-1924,-622,-83
2281,-10,-622,2048,-1627,-608,-111
2282,-62,-633,2048,-1209,-298,135
2283,-98,-620,2048,-623,183,497
2284,-61,-566,2048,203,417,895
2285,27,-537,2032,1020,507,959
2286,87,-572,1909,1614,355,811
2287,73,-597,1779,2016,-108,690
2288,60,-590,1692,2205,-423,686
2289,52,-566,1604,2330,-505,649
2290,61,-532,1541,2377,-243,528
2291,46,-510,1505,2399,105,418
2292,36,-477,1453,2557,265,364
2293,34,-495,1447,2854,206,342
2294,23,-442,1388,3229,73,315
2295,4,-445,1276,3569,-24,307
2296,-3,-433,1183,3805,-241,334
2297,1,-403,1089,3862,-481,374
2298,34,-364,996,3864,-679,426
2299,59,-350,905,3715,-810,430
2300,68,-294,829,3500,-913,383
2301,58,-263,787,3244,-874,370
2302,35,-253,765,2963,-671,346
2303,49,-239,764,2752,-366,338
2304,37,-227,754,2619,-108,409
2305,8,-208,743,2559,48,493
2306,38,-168,719,2629,97,463
2307,40,-139,681,2692,17,413
2308,14,-113,623,2758,-140,379
2309,-17,-110,565,2766,-311,434
2310,-19,-87,513,2709,-405,584
2311,11,-79,449,2594,-229,665
2312,30,-94,390,2348,-38,678
2313,-3,-81,347,2016,103,758
2314,9,-58,320,1647,282,958
2315,32,-12,296,1360,601,1038
2316,56,-11,278,1119,696,1084
2317,72,10,246,934,534,1081
2318,97,-11,213,793,181,997
2319,89,-24,182,635,-149,891
2320,90,2,157,416,-552,876
2321,128,-86,62,170,-751,883
2322,67,10,122,-119,-644,926
2323,87,-13,123,-429,-206,883
2324,115,-6,127,-865,214,842
2325,131,-47,148,-1299,493,741
2326,124,-38,194,-1672,649,700
2327,152,-43,253,-1935,702,588
2328,180,-31,261,-2084,661,303
2329,215,-104,266,-2152,360,-58
2330,196,-143,297,-2345,-149,-259
2331,198,-140,285,-2691,-485,-515
2332,155,-202,353,-3070,-706,-708
2333,50,-273,450,-3621,-474,-749
2334,-43,-296,554,-4353,331,-433
2335,-10,-256,702,-4926,1222,108
2336,79,-179,849,-4928,1886,356
2337,137,-195,928,-4595,2161,219
2338,59,-271,1019,-4183,2060,139
2339,-1,-387,1083,-3822,1528,79
2340,-54,-363,1134,-3767,759,-167
2341,-91,-365,1191,-3916,292,-249
2342,-91,-426,1297,-4060,26,-74
2343,-48,-509,1421,-4160,-42,90
2344,16,-570,1591,-4191,-101,139
2345,15,-589,1758,-4187,-196,26
2346,-19,-549,1875,-3810,-657,8
2347,-50,-540,1910,-2982,-987,114
2348,-89,-591,1934,-2287,-911,323
2349,-78,-611,1951,-1886,-493,491
2350,-16,-597,1963,-1664,-87,563
2351,39,-627,1967,-1433,9,579
2352,43,-643,1985,-1176,-231,545
2353,34,-658,1967,-875,-573,526
2354,30,-660,1997,-486,-753,510
2355,31,-646,1983,-97,-847,475
2356,17,-660,1948,387,-936,432
2357,4,-657,1891,899,-960,399
2358,22,-648,1824,1365,-880,417
2359,39,-620,1725,1789,-770,428
2360,50,-626,1620,2114,-649,405
2361,49,-608,1582,2381,-550,348
2362,70,-573,1529,2703,-372,161
2363,29,-587,1455,3016,-288,73
2364,4,-564,1383,3264,-329,98
2365,29,-516,1319,3461,-403,61
2366,19,-487,1238,3582,-462,-27
2367,14,-477,1135,3612,-489,-136
2368,24,-433,1082,3594,-452,-214
2369,9,-427,1008,3485,-296,-242
2370,-10,-382,976,3317,-159,-263
2371,-21,-364,936,3194,-138,-261
2372,-63,-365,907,3090,-313,-101
2373,-91,-316,860,3020,-474,215
2374,-76,-273,853,3031,-501,417
2375,-47,-225,806,3010,-325,543
2376,-38,-201,753,3022,-157,661
2377,-6,-188,705,3024,-124,735
2378,15,-151,661,2942,-237,758
2379,40,-139,614,2830,-345,797
2380,19,-140,609,2569,-331,786
2381,24,-130,585,2293,-425,803
2382,22,-102,580,2094,-546,961
2383,40,-74,550,1985,-558,991
2384,54,-65,536,1864,-552,944
2385,51,-69,496,1754,-540,895
2386,62,-50,448,1733,-581,862
2387,112,-64,398,1719,-606,747
2388,162,-34,297,1680,-548,557
2389,228,-33,252,1602,-554,182
2390,241,-16,193,1449,-519,-224
2391,197,-34,107,1240,-565,-548
2392,145,-2,64,940,-575,-626
2393,97,-32,39,545,-327,-738
2394,-26,-81,71,-39,-226,-605
2395,-104,-91,79,-543,-34,-97
2396,-70,-27,135,-783,384,331
2397,20,26,137,-924,989,502
2398,75,3,130,-1027,1294,543
2399,115,-9,94,-1250,1171,446
2400,147,-58,82,-1609,528,366
2401,133,-74,90,-2131,-239,338
2402,109,-54,145,-2683,-685,338
2403,48,-114,212,-3172,-704,389
2404,20,-105,254,-3652,-575,651
2405,96,-99,395,-3916,-329,760
2406,146,-152,520,-3978,13,688
2407,167,-229,598,-3986,169,670
2408,185,-269,709,-3941,-147,542
2409,160,-312,816,-3922,-772,514
2410,100,-360,883,-3931,-1364,690
2411,83,-428,956,-3873,-1442,946
2412,119,-473,1018,-3943,-989,1137
2413,176,-484,1103,-4136,-366,1282
2414,219,-498,1226,-4092,282,1233
2415,243,-523,1335,-3842,524,1047
2416,214,-489,1406,-3547,341,924
2417,159,-496,1502,-3199,42,936
2418,79,-582,1616,-2816,3,973
2419,105,-598,1673,-2521,110,991
2420,181,-596,1723,-2314,241,940
2421,208,-614,1795,-2232,77,819
2422,162,-579,1816,-2256,-419,725
2423,172,-575,1876,-2101,-972,711
2424,205,-592,1917,-1761,-1124,686
2425,257,-552,1949,-1367,-876,600
2426,296,-585,1980,-881,-415,364
2427,315,-601,1997,-367,-198,174
2428,262,-642,2024,86,-75,-58
2429,218,-657,2013,492,-85,-187
2430,235,-654,1970,848,-99,-249
2431,233,-660,1900,1127,-140,-339
2432,191,-652,1832,1260,-243,-261
2433,201,-616,1807,1463,-378,-277
2434,203,-582,1759,1774,-302,-345
2435,183,-593,1676,2174,-147,-464
2436,141,-573,1611,2573,-173,-458
2437,130,-540,1511,2979,-155,-404
2438,162,-521,1403,3303,-7,-419
2439,182,-501,1297,3383,163,-515
2440,123,-504,1203,3246,233,-531
2441,83,-483,1181,2959,216,-361
2442,101,-446,1136,2692,364,-287
2443,121,-404,1145,2553,458,-285
2444,148,-361,1146,2666,347,-363
2445,134,-368,1113,2922,185,-492
2446,116,-378,1014,3158,-132,-542
2447,78,-360,964,3231,-388,-519
2448,84,-311,901,3254,-464,-492
2449,123,-285,840,3307,-216,-568
2450,150,-284,742,3354,99,-722
2451,90,-318,646,3225,261,-669
2452,88,-248,605,2955,124,-476
2453,127,-193,579,2684,116,-535
2454,133,-151,575,2494,87,-648
2455,135,-154,538,2395,-120,-791
2456,109,-153,544,2440,-390,-1025
2457,-6,-164,497,2428,-567,-925
2458,-23,-107,458,2444,-563,-609
2459,51,-37,440,2479,-63,-539
2460,80,-42,357,2496,585,-599
2461,95,-58,266,2463,819,-623
2462,121,4,202,2297,743,-787
2463,154,34,164,2065,581,-1107
2464,1,-13,94,1754,286,-1240
2465,-121,-22,62,1303,-157,-828
2466,-92,55,57,887,-380,-382
2467,-58,130,59,453,-165,-148
2468,-64,112,56,74,360,-11
2469,-59,101,52,-213,815,131
2470,-35,77,66,-554,1007,276
2471,8,79,48,-969,968,354
2472,77,14,67,-1351,751,303
2473,85,-38,105,-1783,290,249
2474,60,-20,156,-2295,-233,315
2475,31,15,251,-2636,-419,379
2476,45,0,320,-2787,38,356
2477,73,-45,401,-2810,667,241
2478,28,-89,465,-2855,1013,84
2479,-35,-166,475,-3011,868,295
2480,-3,-171,577,-3207,612,592
2481,107,-191,646,-3344,610,618
2482,186,-237,711,-3412,665,469
2483,220,-298,738,-3381,548,198
2484,208,-349,780,-3392,247,-3
2485,161,-375,872,-3586,67,-111
2486,113,-400,1064,-3717,153,-148
2487,61,-462,1185,-3724,567,-76
2488,79,-448,1255,-3533,968,10
2489,145,-450,1326,-3222,1212,1
2490,118,-471,1402,-3078,1216,92
2491,70,-451,1516,-3113,1204,63
2492,69,-479,1617,-3148,1296,-117
2493,53,-493,1670,-3072,1009,-167
2494,25,-498,1733,-2924,485,-205
2495,-2,-413,1886,-2379,-425,182
2496,-12,-457,1797,-2752,-147,-52
2497,-7,-430,1943,-1959,-50,268
2498,27,-448,1937,-1640,298,389
2499,48,-449,1938,-1373,173,501
2500,77,-477,1934,-1195,-11,534
2501,112,-468,1930,-1101,-104,428
2502,104,-489,1970,-953,-214,249
2503,17,-525,1960,-787,-399,301
2504,-9,-498,1984,-470,-476,450
2505,17,-484,1979,8,-233,454
2506,30,-537,1945,608,17,399
2507,41,-573,1859,1098,-38,346
2508,48,-566,1765,1465,-382,333
2509,61,-554,1678,1776,-753,252
2510,66,-556,1579,2041,-952,129
2511,63,-540,1446,2207,-938,18
2512,60,-524,1350,2289,-837,-33
2513,41,-500,1282,2317,-712,-109
2514,28,-480,1254,2383,-698,-70
2515,-21,-467,1234,2537,-571,22
2516,-32,-430,1201,2778,-356,116
2517,-15,-404,1169,3076,-229,112
2518,-31,-406,1058,3299,-384,206
2519,-95,-387,994,3362,-724,305
2520,-74,-379,911,3358,-1097,469
2521,-54,-303,814,3307,-1323,618
2522,-35,-276,746,3196,-1423,754
2523,-1,-245,701,3026,-1212,891
2524,70,-210,659,2807,-741,944
2525,95,-215,660,2590,-384,844
2526,96,-216,640,2395,-364,741
2527,94,-215,623,2324,-569,670
2528,104,-201,582,2252,-823,643
2529,118,-195,542,2168,-927,473
2530,109,-173,489,2059,-948,350
2531,96,-153,444,1977,-917,340
2532,66,-157,410,1877,-737,370
2533,79,-117,332,1785,-354,458
2534,133,-114,260,1723,30,461
2535,171,-114,195,1545,325,350
2536,172,-123,164,1266,421,163
2537,140,-105,121,942,329,34
2538,111,-95,122,658,216,-54
2539,94,-19,139,449,24,-48
2540,63,-12,121,268,28,-167
2541,18,-57,113,172,194,-201
2542,33,-38,107,-2,263,-105
2543,34,-6,119,-217,321,-50
2544,28,11,110,-443,464,38
2545,-8,-22,120,-701,679,104
2546,-28,6,121,-1002,796,245
2547,22,-125,214,-1246,737,317
2548,49,-43,115,-1558,513,385
2549,52,-82,195,-2105,298,469
2550,72,-85,268,-2742,167,479
2551,90,-95,373,-3181,95,444
2552,122,-161,455,-3429,65,403
2553,120,-217,553,-3640,-102,387
2554,90,-273,617,-3902,-233,442
2555,62,-313,750,-4037,-196,538
2556,107,-351,880,-4049,114,596
2557,146,-369,1001,-3947,567,536
2558,132,-428,1079,-3664,847,422
2559,119,-477,1132,-3496,966,364
2560,119,-505,1204,-3527,1146,323
2561,118,-540,1295,-3699,1054,383
2562,113,-510,1400,-3853,1030,346
2563,104,-503,1511,-3873,1198,211
2564,62,-518,1646,-3691,1257,77
2565,36,-530,1760,-3381,1032,-62
2566,17,-555,1845,-2926,466,-103
2567,-8,-555,1911,-2424,23,-11
2568,10,-583,1926,-1924,28,110
2569,72,-587,1912,-1525,411,151
2570,234,-588,1928,-945,855,-249
2571,170,-602,1921,-1199,849,12
2572,220,-605,1922,-820,524,-548
2573,186,-624,1937,-676,112,-849
2574,146,-645,1975,-453,-188,-1060
2575,126,-616,1956,-140,-425,-1072
2576,174,-614,1946,414,-720,-1033
2577,172,-642,1932,973,-798,-1124
2578,161,-613,1831,1543,-462,-1156
2579,206,-594,1732,2141,171,-1374
2580,239,-603,1584,2594,534,-1679
2581,197,-658,1473,2785,358,-1687
2582,185,-646,1403,2692,-63,-1607
2583,176,-550,1347,2606,-374,-1550
2584,150,-533,1298,2678,-397,-1619
2585,144,-526,1242,2733,-374,-1617
2586,163,-458,1210,2813,-421,-1624
2587,161,-431,1175,2965,-343,-1718
2588,194,-398,1137,3139,-104,-1898
2589,254,-368,1083,3334,224,-2240
2590,219,-346,1034,3475,431,-2691
2591,93,-429,983,3680,562,-2910
2592,-15,-516,902,3623,505,-2412
2593,21,-413,902,3387,192,-1796
2594,93,-262,853,3188,144,-1619
2595,126,-236,786,3147,284,-1833
2596,141,-233,743,3002,231,-2033
2597,146,-212,688,2815,-19,-2117
2598,168,-152,640,2627,-253,-2371
2599,161,-122,606,2387,-278,-2810
2600,34,-161,590,2194,-249,-3058
2601,-96,-198,561,2043,-331,-2626
2602,-109,-178,545,1906,-477,-1908
2603,-35,-106,556,1637,-524,-1412
2604,30,15,517,1367,-315,-1412
2605,88,59,466,1313,-126,-1582
2606,100,68,440,1432,-3,-1734
2607,127,89,392,1481,222,-2095
2608,128,102,343,1422,470,-2607
2609,33,94,318,1311,681,-2919
2610,-87,62,320,1270,808,-2771
2611,-157,56,336,1201,810,-2310
2612,-155,44,279,1059,864,-1853
2613,-117,36,267,828,759,-1392
2614,-72,53,286,389,587,-1166
2615,-29,99,293,-82,454,-1300
2616,26,84,305,-461,216,-1542
2617,17,79,362,-775,-188,-1828
2618,-18,82,397,-1015,-614,-2062
2619,-136,-6,417,-1154,-960,-2035
2620,-251,-23,433,-1322,-1263,-1392
2621,-271,-7,441,-1498,-1438,-423
2622,-188,25,493,-1664,-1243,290
2623,-80,10,535,-1861,-470,555
2624,1,0,575,-2019,362,438
2625,48,-11,587,-2096,940,202
2626,121,-44,601,-2051,1081,-91
2627,138,-63,655,-2060,855,-505
2628,112,-86,664,-2064,423,-902
2629,-1,-177,766,-2133,-93,-949
2630,-170,-242,739,-2412,-491,-207
2631,-144,-257,771,-2611,-700,747
2632,-32,-202,845,-2828,-614,1350
2633,82,-159,895,-3053,-87,1372
2634,158,-217,979,-3092,571,1100
2635,158,-224,1020,-3082,956,764
2636,144,-262,1046,-3019,927,536
2637,128,-284,1074,-2990,605,530
2638,169,-285,1107,-2986,200,526
2639,194,-333,1148,-2994,-9,426
2640,140,-369,1215,-2935,-183,356
2641,87,-363,1278,-2861,-237,491
2642,102,-375,1325,-2750,-112,491
2643,144,-382,1392,-2732,151,362
2644,191,-343,1434,-2689,472,129
2645,218,-388,1515,-2514,855,-208
2646,147,-441,1570,-2254,1069,-419
2647,122,-468,1601,-1967,991,-314
2648,154,-449,1694,-1627,814,-201
2649,153,-441,1741,-1324,640,-414
2650,133,-396,1758,-926,411,-763
2651,185,-412,1771,-502,347,-1076
2652,248,-423,1803,-127,378,-1601
2653,239,-396,1828,20,480,-2259
2654,165,-442,1833,172,858,-2986
2655,-55,-614,1918,231,1030,-3138
2656,-259,-596,2005,203,1064,-2275
2657,-220,-552,2048,600,940,-1066
2658,-112,-488,2048,1289,804,-171
2659,9,-443,1928,2014,651,200
2660,99,-412,1781,2590,337,157
2661,172,-419,1632,3016,-101,-82
2662,239,-430,1498,3260,-628,-345
2663,275,-424,1380,3305,-1144,-597
2664,306,-386,1282,3162,-1380,-869
2665,286,-371,1190,2901,-1315,-1197
2666,266,-348,1166,2727,-1040,-1412
2667,174,-400,1173,2617,-507,-1443
2668,100,-365,1185,2668,130,-1089
2669,120,-284,1172,2973,638,-669
2670,166,-250,1077,3385,1163,-558
2671,167,-267,955,3656,1358,-562
2672,169,-250,857,3764,1200,-564
2673,159,-220,748,3733,827,-591
2674,151,-180,673,3543,364,-652
2675,125,-157,622,3229,1,-773
2676,104,-132,567,2846,-202,-859
2677,88,-80,541,2529,-265,-931
2678,73,-76,522,2258,-245,-1005
2679,55,-70,547,2123,-108,-1121
2680,32,-83,542,2049,3,-1091
2681,-23,-66,545,2000,146,-970
2682,-29,-59,504,1955,450,-871
2683,-40,-54,453,1899,603,-744
2684,-41,-2,394,1824,657,-605
2685,-20,-1,344,1729,663,-558
2686,-9,0,297,1600,554,-552
2687,-28,22,256,1379,390,-576
2688,-36,13,219,1069,269,-619
2689,-51,25,218,707,36,-593
2690,-77,32,212,361,-239,-511
2691,-105,48,238,51,-472,-412
2692,-118,55,260,-166,-620,-316
2693,-151,54,278,-312,-554,-238
2694,-172,65,290,-422,-374,-82
2695,-176,71,290,-535,48,102
2696,-146,73,250,-627,405,137
2697,-110,69,239,-795,585,186
2698,-72,52,228,-1088,548,209
2699,-74,29,234,-1439,333,215
2700,-76,-5,270,-1832,69,274
2701,-58,-24,312,-2219,-226,372
2702,-13,-46,385,-2564,-413,415
2703,8,-56,450,-2812,-399,432
2704,10,-74,487,-2955,-272,530
2705,17,-115,583,-3080,-85,540
2706,40,-161,704,-3260,245,487
2707,57,-200,809,-3433,661,370
2708,51,-243,932,-3490,919,209
2709,62,-251,1016,-3463,831,200
2710,59,-214,1070,-3258,587,301
2711,76,-244,1092,-3023,405,436
2712,99,-266,1143,-2967,312,512
2713,128,-248,1216,-3127,315,432
2714,141,-275,1296,-3244,323,184
2715,151,-301,1383,-3303,292,-78
2716,148,-279,1486,-3264,159,-281
2717,135,-299,1630,-3051,308,-664
2718,90,-289,1687,-2644,753,-1115
2719,28,-313,1695,-2191,1231,-1466
2720,-84,-384,1723,-1929,1667,-1724
2721,-261,-427,1800,-2002,1921,-1400
2722,-247,-431,1812,-2095,1940,-699
2723,-160,-347,1907,-1906,1398,73
2724,-88,-336,1914,-1574,788,268
2725,-11,-362,1922,-1193,52,153
2726,17,-363,1931,-896,-827,49
2727,22,-350,1920,-549,-1544,-103
2728,42,-358,1867,-228,-1946,-302
2729,86,-359,1823,41,-2126,-541
2730,79,-374,1774,264,-1993,-808
2731,27,-413,1752,463,-1591,-931
2732,-36,-445,1779,758,-987,-693
2733,4,-430,1731,1254,-442,-140
2734,79,-402,1637,1846,-101,254
2735,140,-395,1523,2340,1,338
2736,178,-384,1426,2588,-134,282
2737,213,-354,1319,2688,-390,122
2738,202,-335,1251,2758,-735,-56
2739,177,-307,1172,2778,-968,-214
2740,161,-292,1130,2705,-993,-367
2741,158,-275,1096,2572,-726,-519
2742,161,-227,1135,2619,-286,-751
2743,168,-230,1111,2871,177,-1017
2744,162,-232,1088,3207,491,-1246
2745,138,-234,1007,3406,646,-1441
2746,113,-231,920,3490,562,-1541
2747,99,-211,854,3467,323,-1554
2748,67,-188,778,3338,32,-1468
2749,47,-182,730,3133,-186,-1339
2750,45,-129,713,2856,-218,-1261
2751,42,-116,664,2627,-132,-1224
2752,27,-91,677,2446,42,-1208
2753,0,-75,647,2295,274,-1208
2754,-20,-69,643,2192,396,-1132
2755,-28,-52,626,2151,417,-1041
2756,-38,-41,577,2170,325,-873
2757,-35,-38,540,2186,120,-624
2758,-34,-29,504,2203,-38,-447
2759,-34,-26,443,2104,-185,-326
2760,-23,-19,388,1975,-364,-189
2761,-29,-7,333,1778,-530,-56
2762,-33,23,270,1506,-573,40
2763,-49,17,223,1162,-563,172
2764,-38,33,209,836,-560,299
2765,-29,42,217,444,-476,362
2766,-23,52,216,41,-331,383
2767,-16,59,227,-263,-177,317
2768,-25,53,247,-490,-142,270
2769,-26,53,274,-689,-104,260
2770,-10,52,297,-914,-44,260
2771,0,42,284,-1193,-85,305
2772,-1,29,314,-1508,-120,344
2773,2,3,337,-1836,-104,327
2774,-9,1,383,-2228,-124,348
2775,-35,-18,452,-2592,-50,401
2776,-22,-52,521,-2840,62,450
2777,8,-61,615,-2974,44,545
2778,30,-82,663,-3004,-32,620
2779,59,-108,712,-3008,-132,690
2780,107,-134,847,-3187,-265,706
2781,100,-127,770,-3084,-261,737
2782,101,-156,901,-3342,36,606
2783,123,-215,1068,-3771,704,432
2784,128,-235,1191,-3883,841,358
2785,113,-186,970,-3566,431,501
2786,111,-252,1291,-3752,773,346
2787,91,-265,1393,-3422,554,432
2788,96,-276,1439,-3080,319,506
2789,72,-312,1544,-2787,128,567
2790,77,-305,1487,-2873,233,518
2791,95,-299,1578,-2664,19,643
2792,146,-299,1606,-2504,-26,608
2793,171,-303,1630,-2308,-118,499
2794,155,-311,1679,-2047,-220,350
2795,107,-308,1739,-1810,-120,194
2796,51,-316,1785,-1566,89,108
2797,2,-322,1817,-1334,333,100
2798,-18,-298,1827,-1135,560,108
2799,-16,-328,1842,-906,716,98
2800,-26,-335,1846,-713,759,124
2801,18,-354,1864,-439,644,168
2802,43,-359,1827,-56,403,180
2803,48,-391,1802,336,50,174
2804,48,-380,1804,707,-253,145
2805,39,-388,1731,1096,-351,139
2806,32,-387,1668,1477,-331,184
2807,42,-387,1612,1803,-220,251
2808,28,-378,1557,2028,-13,325
2809,31,-361,1457,2242,167,432
2810,57,-348,1385,2365,323,475
2811,84,-346,1321,2393,382,442
2812,103,-319,1277,2440,282,327
2813,109,-305,1243,2537,85,182
2814,95,-299,1188,2664,-167,73
2815,70,-287,1141,2766,-362,-5
2816,46,-272,1113,2840,-397,-27
2817,38,-252,1067,2901,-290,28
2818,31,-239,1006,2936,-3,65
2819,46,-222,950,2922,325,96
2820,42,-205,897,2850,550,149
2821,39,-195,837,2715,646,237
2822,51,-164,792,2574,646,303
2823,74,-132,775,2506,556,264
2824,92,-89,751,2539,444,137
2825,56,-80,713,2602,321,-39
2826,26,-83,638,2612,157,-119
2827,-2,-77,599,2498,-67,-50
2828,-28,-65,588,2336,-183,71
2829,-49,-54,539,2207,-102,180
2830,-56,-32,498,2063,105,366
2831,-62,-25,461,1916,439,520
2832,-17,-26,417,1781,640,653
2833,-12,2,345,1586,626,799
2834,22,17,284,1422,419,782
2835,48,38,232,1229,112,768
2836,24,35,198,979,-216,735
2837,41,62,185,674,-450,639
2838,10,49,171,346,-538,549
2839,-10,48,170,4,-401,518
2840,-25,54,177,-303,-17,479
2841,-38,52,205,-580,376,524
2842,-25,21,205,-865,606,624
2843,15,43,235,-1113,696,676
2844,51,71,264,-1256,618,579
2845,36,49,255,-1430,384,407
2846,12,9,289,-1717,134,206
2847,-18,-11,316,-2080,-114,73
2848,-32,-21,381,-2447,-452,43
2849,-77,-46,436,-2730,-663,1
2850,-70,-83,489,-2955,-704,61
2851,-72,-142,569,-3211,-663,286
2852,-12,-127,668,-3383,-626,549
2853,47,-139,746,-3420,-577,700
2854,88,-165,788,-3367,-581,868
2855,129,-174,801,-3396,-667,1014
2856,148,-219,851,-3558,-753,1051
2857,171,-259,929,-3898,-769,928
2858,164,-305,1038,-4361,-720,721
2859,142,-332,1184,-4695,-634,452
2860,52,-333,1376,-4728,-476,270
2861,-17,-343,1501,-4457,-104,333
2862,-29,-405,1619,-3992,355,565
2863,-55,-448,1704,-3590,761,862
2864,3,-456,1744,-3287,882,1153
2865,86,-439,1757,-2955,681,1215
2866,133,-384,1761,-2605,224,1088
2867,125,-427,1762,-2240,-259,870
2868,124,-487,1801,-2049,-593,626
2869,99,-496,1847,-2049,-698,409
2870,60,-498,1903,-1969,-618,342
2871,14,-492,1999,-1617,-378,391
2872,-24,-517,2048,-1072,153,438
2873,-43,-511,2048,-402,663,565
2874,-51,-533,2008,238,909,788
2875,-13,-523,1921,756,894,893
2876,31,-513,1827,1172,534,907
2877,59,-500,1712,1494,13,848
2878,76,-500,1635,1666,-405,756
2879,71,-501,1582,1733,-690,713
2880,77,-477,1550,1785,-739,649
2881,65,-478,1533,1926,-591,506
2882,40,-438,1501,2229,-341,381
2883,-6,-428,1468,2684,11,366
2884,-51,-461,1368,3055,372,512
2885,-23,-429,1291,3319,532,723
2886,2,-403,1225,3520,528,809
2887,6,-390,1127,3570,392,831
2888,14,-349,1035,3549,46,838
2889,13,-307,969,3463,-286,782
2890,-17,-293,928,3346,-540,784
2891,-55,-276,885,3156,-696,852
2892,-94,-245,860,2936,-632,1014
2893,-118,-212,822,2756,-380,1299
2894,-121,-198,795,2555,216,1581
2895,-51,-184,810,2469,882,1645
2896,19,-149,760,2522,907,1356
2897,1,-96,684,2844,526,1192
2898,-55,-89,606,3074,97,1133
2899,-67,-111,540,3139,-267,985
2900,-95,-127,542,2969,-470,936
2901,-127,-69,475,2615,-522,1188
2902,-92,-35,434,2426,-520,1411
2903,-63,-21,411,2270,-265,1442
2904,-47,-19,325,2033,40,1542
2905,-17,-7,296,1799,230,1626
2906,13,42,236,1553,411,1516
2907,47,37,212,1334,491,1348
2908,30,14,210,1041,560,1131
2909,17,14,166,680,536,899
2910,-1,34,166,360,366,793
2911,1,54,146,151,183,721
2912,6,40,145,-8,64,651
2913,-15,25,119,-207,-46,643
2914,-46,27,106,-480,-28,721
2915,-42,28,96,-787,138,922
2916,4,14,121,-1088,370,1032
2917,26,5,126,-1457,524,973
2918,36,-51,149,-1963,577,879
2919,31,-51,197,-2457,440,780
2920,16,-89,263,-2756,-46,743
2921,-5,-134,356,-2974,-448,870
2922,-2,-152,425,-3164,-618,942
2923,41,-176,474,-3279,-599,891
2924,69,-222,532,-3383,-491,784
2925,98,-277,638,-3531,-339,778
2926,120,-361,754,-3726,-173,829
2927,185,-385,781,-3982,-61,834
2928,245,-350,845,-4010,-296,725
2929,247,-360,942,-3967,-444,592
2930,209,-307,1032,-3904,-274,383
2931,106,-330,1127,-3787,261,161
2932,5,-391,1309,-3783,1095,-52
2933,-75,-450,1461,-3896,2146,-273
2934,-102,-478,1579,-4015,2556,-384
2935,-119,-496,1696,-3947,2046,-374
2936,-140,-521,1796,-3736,1148,-318
2937,-152,-469,1888,-3433,138,-117
2938,-147,-400,1924,-2845,-620,126
2939,-165,-415,1959,-2248,-765,116
2940,-162,-431,1978,-1842,-483,49
2941,-142,-458,2000,-1584,-32,28
2942,-95,-459,2004,-1344,190,40
2943,-74,-451,2043,-1045,146,20
2944,-65,-440,2048,-691,-5,-113
2945,-106,-510,2048,-234,-140,-238
2946,-131,-520,2048,186,-436,-99
2947,-87,-494,2001,559,-761,4
2948,-83,-523,1975,844,-942,-101
2949,-117,-533,1923,1156,-1067,-82
2950,-107,-511,1868,1490,-977,34
2951,-61,-480,1790,1875,-761,108
2952,-28,-484,1728,2266,-487,61
2953,-1,-482,1635,2674,-308,-35
2954,0,-448,1548,3084,-249,-150
2955,-35,-472,1449,3403,-218,-189
2956,-78,-499,1370,3598,-269,-56
2957,-111,-479,1323,3633,-423,206
2958,-76,-426,1259,3649,-604,383
2959,-53,-376,1150,3651,-745,391
2960,-30,-336,1039,3701,-960,376
2961,-13,-296,956,3723,-1091,344
2962,28,-246,855,3641,-944,270
2963,44,-229,785,3490,-702,110
2964,37,-242,758,3264,-501,1
2965,-62,-267,752,3024,-388,110
2966,-95,-223,748,2789,-208,399
2967,-57,-167,739,2719,-5,555
2968,-7,-114,724,2821,161,586
2969,16,-66,660,3030,179,508
2970,44,-65,596,3239,71,338
2971,70,-43,536,3324,-71,137
2972,37,-82,464,3217,-167,-166
2973,-72,-163,403,2844,-351,-119
2974,-121,-125,379,2367,-628,428
2975,-66,-52,402,1990,-661,729
2976,-22,13,375,1709,-517,876
2977,26,27,299,1639,-431,889
2978,67,31,249,1592,-311,803
2979,94,42,194,1440,-243,715
2980,127,31,136,1196,-294,547
2981,170,25,90,930,-479,258
2982,145,-2,63,643,-710,-44
2983,50,-73,34,266,-890,-46
2984,-24,-47,53,-226,-874,319
2985,20,53,88,-652,-364,555
2986,79,77,69,-877,315,538
2987,89,19,67,-1088,745,459
2988,99,6,93,-1433,890,333
2989,146,11,126,-1724,747,165
2990,147,-34,188,-2008,452,-52
2991,106,-61,235,-2312,167,-169
2992,111,-164,252,-2556,21,-246
2993,62,-218,345,-2929,-188,51
2994,69,-202,444,-3318,-394,311
2995,137,-170,522,-3429,-300,348
2996,179,-180,610,-3410,50,251
2997,205,-226,629,-3416,411,55
2998,251,-260,670,-3519,497,-175
2999,296,-271,754,-3670,382,-441
3000,297,-273,840,-3851,274,-714
3001,227,-305,957,-3945,329,-925
3002,124,-373,1070,-4019,548,-994
3003,49,-399,1178,-4094,862,-884
3004,59,-377,1327,-4019,1259,-798
3005,67,-353,1448,-3777,1595,-906
3006,46,-328,1511,-3527,1718,-1015
3007,35,-345,1565,-3113,1550,-1142
3008,57,-405,1610,-2795,1231,-1333
3009,-6,-474,1677,-2719,839,-1345
3010,-74,-498,1761,-2863,517,-1058
3011,-80,-410,1882,-2998,294,-800
3012,-114,-410,2011,-2945,208,-613
3013,-161,-456,2048,-2756,230,-378
3014,-125,-416,2048,-2261,294,-283
3015,-103,-398,2048,-1553,298,-279
3016,-63,-410,2048,-763,118,-314
3017,-27,-448,2048,-82,-175,-423
3018,6,-485,2048,387,-339,-531
3019,-5,-500,2048,733,-306,-640
3020,-29,-518,2031,1010,-153,-675
3021,-54,-518,1985,1264,73,-636
3022,-36,-508,1955,1561,267,-587
3023,-20,-491,1892,1957,413,-611
3024,29,-490,1802,2504,357,-666
3025,73,-457,1697,3010,155,-814
3026,92,-432,1610,3391,28,-1091
3027,78,-443,1477,3662,-30,-1429
3028,1,-474,1397,3760,3,-1562
3029,-34,-464,1313,3748,54,-1353
3030,-17,-439,1265,3737,351,-1181
3031,14,-381,1153,3666,753,-1107
3032,55,-336,1098,3701,857,-1082
3033,83,-310,1024,3805,737,-1107
3034,84,-349,966,3844,482,-1199
3035,58,-360,900,3811,120,-1083
3036,47,-318,839,3707,-218,-888
3037,98,-251,816,3610,-440,-876
3038,136,-205,779,3610,-534,-1054
3039,150,-186,709,3660,-546,-1289
3040,164,-155,641,3690,-608,-1550
3041,184,-110,553,3678,-616,-1884
3042,172,-94,504,3557,-518,-2285
3043,117,-88,462,3258,-388,-2589
3044,63,-59,430,2979,-159,-2730
3045,-13,-54,418,2748,89,-2685
3046,-81,-56,383,2418,273,-2326
3047,-100,17,381,2094,312,-1857
3048,-88,98,397,1922,380,-1503
3049,-58,103,374,1932,427,-1382
3050,-83,79,357,1948,327,-1359
3051,-120,56,310,1797,187,-1292
3052,-140,65,274,1600,105,-1203
3053,-135,68,247,1362,-17,-1050
3054,-117,68,222,1071,-204,-886
3055,-118,73,184,737,-399,-714
3056,-104,80,178,410,-524,-593
3057,-97,96,175,102,-602,-492
3058,-89,84,193,-183,-657,-443
3059,-72,103,246,-332,-755,-541
3060,-86,115,253,-451,-591,-628
3061,-132,77,243,-570,-409,-630
3062,-164,76,265,-808,-200,-468
3063,-156,55,246,-1140,26,-203
3064,-104,43,264,-1521,183,65
3065,-29,22,285,-1925,192,272
3066,22,28,362,-2306,126,293
3067,60,21,442,-2617,58,143
3068,74,-4,516,-2800,48,-103
3069,93,-17,570,-2912,95,-324
3070,112,0,667,-2972,128,-597
3071,67,-46,733,-2972,194,-896
3072,-11,-111,778,-3019,325,-1031
3073,-74,-183,848,-3148,448,-859
3074,-79,-199,911,-3381,511,-414
3075,-10,-183,961,-3554,577,-31
3076,64,-178,1027,-3660,646,186
3077,151,-170,1045,-3664,583,153
3078,157,-188,1125,-3531,407,-50
3079,120,-198,1155,-3455,179,-187
3080,100,-212,1219,-3377,-122,-269
3081,59,-231,1323,-3398,-132,-427
3082,-24,-239,1437,-3476,-7,-501
3083,-76,-265,1507,-3496,171,-414
3084,-90,-277,1617,-3459,398,-183
3085,-58,-272,1732,-3398,659,12
3086,-30,-258,1818,-3111,974,-21
3087,-14,-259,1877,-2685,1284,-169
3088,-21,-295,1906,-2283,1407,-394
3089,-2,-313,1942,-1957,1226,-568
3090,-19,-302,2002,-1683,853,-697
3091,-83,-353,2032,-1408,472,-763
3092,-130,-394,2048,-1207,9,-451
3093,-91,-359,2048,-912,-372,-126
3094,-61,-356,2048,-461,-341,-56
3095,-28,-393,2048,67,-179,-113
3096,9,-373,2048,698,-183,-80
3097,34,-385,1948,1348,-194,-167
3098,79,-404,1810,1881,-395,-205
3099,90,-415,1660,2192,-636,-294
3100,96,-397,1517,2389,-817,-441
3101,111,-384,1397,2534,-993,-580
3102,84,-389,1262,2604,-1058,-695
3103,47,-392,1134,2590,-1054,-693
3104,25,-356,1037,2567,-1015,-550
3105,1,-316,973,2631,-782,-375
3106,-17,-260,918,2719,-317,-218
3107,15,-212,846,2897,159,-164
3108,15,-176,799,3047,616,-300
3109,-24,-161,742,3022,898,-537
3110,-52,-161,682,2889,872,-681
3111,-90,-163,662,2682,599,-619
3112,-123,-173,659,2512,259,-421
3113,-150,-162,654,2321,17,-222
3114,-151,-138,624,2125,-194,-48
3115,-150,-119,624,2030,-374,73
3116,-154,-92,628,2090,-464,135
3117,-163,-77,571,2299,-433,174
3118,-141,-87,502,2551,-446,243
3119,-130,-96,380,2602,-565,370
3120,-98,-66,279,2483,-899,497
3121,-85,-63,188,2256,-1319,565
3122,-77,-38,117,1912,-1685,684
3123,-87,-19,44,1502,-1839,856
3124,-88,16,-4,1014,-1669,975
3125,-68,56,-47,406,-1319,1235
3126,-6,94,-82,-166,-628,1346
3127,45,98,-121,-863,292,1333
3128,78,45,-107,-1836,1001,1174
3129,102,-6,-14,-2949,1425,936
3130,140,-83,94,-4015,1548,676
3131,143,-101,263,-4949,1536,293
3132,112,-99,457,-5580,1472,-275
3133,-23,-206,662,-5894,1392,-679
3134,-159,-294,887,-5863,1321,-638
3135,-216,-310,1126,-5676,1226,-171
3136,-197,-293,1344,-5211,1587,219
3137,-168,-293,1453,-4623,2224,319
3138,-139,-305,1533,-3965,2562,444
3139,-84,-345,1593,-3498,2585,413
3140,-41,-408,1659,-3193,2272,190
3141,-23,-446,1730,-2941,1542,-68
3142,-44,-476,1806,-2650,638,-222
3143,-120,-474,1847,-2226,-229,-121
3144,-194,-452,1894,-1705,-890,213
3145,-180,-416,1889,-1066,-1097,590
3146,-120,-400,1861,-480,-886,725
3147,-80,-394,1799,-10,-737,834
3148,-68,-352,1736,361,-433,739
3149,-12,-373,1666,674,-329,467
3150,-21,-378,1613,826,-528,364
3151,-28,-369,1593,883,-706,215
3152,-42,-400,1588,965,-849,88
3153,-72,-366,1601,1070,-948,159
3154,-90,-337,1610,1375,-921,215
3155,-94,-354,1513,2133,-751,434
3156,-92,-356,1567,1777,-823,303
3157,-65,-335,1449,2438,-661,506
3158,-22,-327,1362,2699,-634,502
3159,6,-329,1251,2844,-714,458
3160,30,-333,1178,2906,-954,385
3161,44,-311,1075,2877,-1253,329
3162,72,-276,975,2731,-1538,233
3163,91,-244,908,2561,-1729,118
3164,87,-228,876,2408,-1815,16
3165,90,-215,827,2315,-1743,-74
3166,86,-197,813,2293,-1409,-171
3167,75,-177,757,2344,-874,-226
3168,82,-151,681,2436,-349,-242
3169,100,-136,622,2449,54,-242
3170,120,-94,530,2279,491,-320
3171,117,-118,565,2363,337,-259
3172,95,-121,516,2117,534,-404
3173,86,-128,455,1895,474,-449
3174,70,-113,414,1615,425,-499
3175,42,-89,396,1367,339,-568
3176,-2,-73,379,1194,218,-478
3177,-23,-50,366,1096,97,-320
3178,-27,-33,347,1026,95,-210
3179,-13,-12,305,930,198,-136
3180,-13,29,279,756,376,-158
3181,-4,64,246,475,558,-246
3182,-19,95,264,108,726,-355
3183,-44,97,257,-310,890,-478
3184,-83,70,275,-742,976,-494
3185,-101,73,312,-1144,864,-335
3186,-115,44,381,-1476,821,-212
3187,-132,34,418,-1744,856,-109
3188,-107,2,455,-1916,841,2
3189,-76,-3,503,-2133,794,81
3190,-42,-12,564,-2447,747,40
3191,11,-40,625,-2746,685,-76
3192,37,-70,684,-3056,454,-181
3193,30,-129,784,-3353,60,-308
3194,0,-160,951,-3582,-417,-333
3195,-44,-166,1096,-3666,-749,-255
3196,-67,-195,1241,-3506,-794,-99
3197,-67,-205,1379,-3215,-417,110
3198,-17,-207,1471,-2924,397,262
3199,8,-216,1547,-2707,1179,161
3200,13,-237,1589,-2457,1396,145
3201,24,-247,1651,-2248,1054,155
3202,21,-270,1708,-2199,558,18
3203,-8,-294,1769,-2254,42,-123
3204,-70,-310,1875,-2207,-382,-195
3205,-101,-347,1987,-1967,-513,-193
3206,-147,-382,2048,-1580,-356,-56
3207,-137,-373,2048,-906,-116,270
3208,-81,-395,2042,-107,155,452
3209,4,-408,1953,551,241,516
3210,49,-409,1827,1016,24,454
3211,82,-425,1718,1352,-556,370
3212,81,-407,1644,1590,-1224,309
3213,71,-373,1597,1789,-1690,270
3214,53,-352,1498,2022,-1868,229
3215,36,-340,1431,2299,-1815,235
3216,40,-320,1344,2561,-1444,270
3217,65,-304,1246,2799,-970,274
3218,102,-314,1135,3033,-655,237
3219,126,-314,1008,3135,-569,206
3220,140,-299,882,3113,-702,124
3221,142,-249,791,3049,-991,20
3222,126,-222,704,2957,-1229,-13
3223,99,-198,623,2850,-1321,-35
3224,101,-151,546,2670,-1311,-42
3225,81,-138,475,2465,-1179,-48
3226,49,-131,440,2209,-991,-37
3227,46,-108,370,1959,-755,-9
3228,23,-85,327,1725,-433,28
3229,27,-43,283,1494,-83,42
3230,46,-51,238,1328,210,12
3231,35,-35,221,1078,364,6
3232,41,-16,211,774,378,-25
3233,21,-2,225,504,415,-52
3234,11,7,216,213,521,-87
3235,-11,0,233,-96,614,-126
3236,-55,-4,262,-473,737,-93
3237,-91,1,287,-945,925,-15
3238,-93,2,336,-1377,1065,26
3239,-65,-15,437,-1660,1089,51
3240,-26,0,512,-1826,1038,-56
3241,-5,-45,540,-1898,870,-212
3242,-29,-100,601,-1980,540,-324
3243,-54,-115,647,-2238,218,-332
3244,-36,-98,707,-2469,-26,-281
3245,-34,-158,778,-2639,-93,-191
3246,-25,-186,857,-2902,-42,-46
3247,-24,-186,950,-3117,64,32
3248,-8,-202,1078,-3201,208,38
3249,-40,-227,1231,-3176,579,-19
3250,-79,-259,1368,-3107,1069,-68
3251,-93,-287,1494,-2969,1515,-105
3252,-98,-278,1592,-2803,1749,-111
3253,-69,-271,1662,-2402,1665,-154
3254,-102,-329,1739,-1974,1362,-251
3255,-130,-388,1758,-1746,874,-197
3256,-103,-395,1836,-1492,222,-87
3257,-123,-368,1875,-1221,-249,-44
3258,-151,-366,1866,-732,-456,16
3259,-151,-391,1863,-201,-474,114
3260,-123,-383,1831,213,-409,227
3261,-84,-361,1781,604,-228,286
3262,-54,-373,1711,979,-110,278
3263,-21,-368,1612,1258,-243,278
3264,14,-351,1528,1461,-577,264
3265,41,-345,1458,1592,-931,157
3266,48,-341,1381,1662,-1231,26
3267,47,-340,1316,1754,-1534,-17
3268,49,-344,1248,1904,-1792,-11
3269,33,-310,1175,2059,-1866,102
3270,38,-288,1108,2213,-1585,301
3271,75,-247,1034,2399,-1136,538
3272,146,-216,939,2596,-733,659
3273,210,-198,880,2709,-366,594
3274,212,-173,791,2705,-104,401
3275,198,-181,728,2555,3,202
3276,165,-158,674,2252,32,38
3277,147,-125,653,1992,-85,-52
3278,128,-106,632,1830,-190,-146
3279,109,-81,598,1723,-194,-263
3280,49,-83,562,1651,-61,-277
3281,18,-50,545,1596,138,-164
3282,32,-25,497,1578,474,-91
3283,35,-32,471,1527,812,-50
3284,40,-30,420,1432,860,-46
3285,54,-56,378,1203,683,-101
3286,43,-44,352,879,298,-144
3287,46,-3,332,584,-120,-140
3288,55,-17,327,381,-351,-142
3289,38,-12,316,219,-392,-95
3290,-25,-13,289,61,-185,127
3291,-43,9,271,-115,198,440
3292,-17,24,272,-346,786,602
3293,13,5,282,-793,1569,563
3294,25,-19,335,-1349,2147,418
3295,33,-21,404,-1857,2218,217
3296,38,-34,489,-2197,1757,75
3297,26,-39,557,-2332,1067,-27
3298,-22,-117,609,-2490,603,-101
3299,-61,-126,685,-2744,306,-23
3300,-63,-86,805,-2973,243,-11
3301,-87,-133,907,-3140,413,-103
3302,-98,-190,1030,-3223,649,-181
3303,-85,-217,1157,-3217,933,-232
3304,-62,-248,1269,-3197,1290,-332
3305,-44,-276,1392,-3084,1437,-435
3306,-54,-310,1525,-2935,1349,-595
3307,-100,-336,1621,-2742,980,-755
3308,-154,-366,1661,-2449,294,-716
3309,-171,-375,1761,-2025,-425,-535
3310,-182,-381,1817,-1680,-671,-404
3311,-157,-381,1843,-1310,-331,-322
3312,-113,-409,1835,-971,261,-330
3313,-71,-390,1839,-637,456,-373
3314,-73,-396,1792,-215,212,-367
3315,-62,-393,1724,244,-241,-351
3316,-52,-391,1696,578,-653,-371
3317,-81,-381,1653,797,-833,-408
3318,-101,-364,1625,998,-866,-365
3319,-78,-345,1592,1260,-808,-322
3320,-59,-332,1521,1547,-769,-275
3321,-52,-338,1464,1822,-808,-205
3322,-21,-321,1407,2004,-806,-160
3323,-19,-289,1356,2160,-815,-115
3324,15,-276,1283,2340,-808,-132
3325,26,-274,1220,2463,-776,-185
3326,22,-281,1140,2498,-784,-242
3327,31,-255,1072,2481,-854,-277
3328,29,-233,1008,2410,-946,-281
3329,5,-212,949,2350,-1032,-275
3330,-29,-204,888,2277,-1042,-160
3331,-28,-156,836,2240,-952,30
3332,-17,-111,782,2233,-714,92
3333,8,-99,717,2260,-479,73
3334,-6,-103,648,2250,-343,36
3335,1,-74,577,2156,-341,24
3336,4,-33,528,2037,-421,28
3337,5,-28,491,1955,-487,4
3338,14,-15,436,1793,-427,-13
3339,14,-6,394,1576,-335,-41
3340,22,4,371,1354,-302,-85
3341,20,-12,342,1059,-353,-113
3342,11,-9,335,764,-478,-85
3343,-6,-5,330,490,-454,-29
3344,-34,-23,341,203,-261,88
3345,-50,0,343,-109,44,282
3346,-26,14,331,-357,396,430
3347,27,8,313,-553,595,469
3348,40,-23,321,-795,606,471
3349,39,-8,325,-1111,558,444
3350,31,-36,332,-1459,665,407
3351,14,-15,352,-1871,915,381
3352,-3,-47,399,-2242,1187,413
3353,-10,-31,487,-2549,1491,444
3354,-32,-60,543,-2793,1720,399
3355,-53,-110,647,-3004,1737,424
3356,-75,-120,730,-3228,1626,524
3357,-45,-150,885,-3310,1689,458
3358,0,-168,986,-3281,1864,217
3359,-44,-246,1092,-3289,1958,1
3360,-74,-304,1216,-3283,1837,-128
3361,-98,-355,1328,-3244,1493,-238
3362,-131,-418,1448,-3205,995,-169
3363,-125,-412,1553,-3133,489,-91
3364,-128,-391,1647,-2965,196,-136
3365,-146,-412,1737,-2533,95,-95
3366,-164,-461,1813,-2078,265,-60
3367,-125,-457,1840,-1660,462,-27
3368,-118,-449,1893,-1164,480,-58
3369,-128,-428,1846,-662,372,-181
3370,-145,-442,1833,-100,-95,-216
3371,-165,-441,1757,285,-604,-95
3372,-122,-401,1722,545,-976,-7
3373,-77,-389,1681,750,-1138,-33
3374,-75,-391,1641,986,-1194,-89
3375,-76,-398,1604,1262,-1228,-95
3376,-49,-393,1553,1481,-1159,-60
3377,-28,-376,1477,1680,-1042,-54
3378,11,-364,1453,1895,-983,-101
3379,24,-366,1360,2115,-1032,-177
3380,15,-347,1309,2328,-1159,-173
3381,10,-339,1254,2527,-1110,-144
3382,25,-303,1198,2678,-923,-123
3383,42,-267,1120,2787,-728,-134
3384,49,-253,1042,2842,-604,-132
3385,67,-237,992,2815,-520,-132
3386,69,-204,944,2736,-575,-173
3387,84,-167,915,2652,-688,-267
3388,77,-140,859,2606,-815,-345
3389,54,-146,818,2561,-907,-365
3390,30,-132,800,2479,-872,-291
3391,47,-105,781,2410,-718,-218
3392,28,-80,733,2412,-493,-201
3393,42,-60,694,2442,-302,-189
3394,35,-31,640,2418,-190,-169
3395,36,-36,561,2350,-177,-164
3396,16,-16,522,2219,-267,-132
3397,-4,11,469,2045,-308,-95
3398,0,5,403,1764,-327,-72
3399,-22,17,377,1453,-421,4
3400,-29,43,336,1145,-499,40
3401,-34,73,304,852,-544,79
3402,-30,79,268,580,-569,153
3403,-46,98,255,240,-454,204
3404,-29,99,228,-107,-286,295
3405,1,96,220,-394,-177,360
3406,30,45,248,-750,-202,401
3407,61,45,272,-1225,-249,401
3408,57,86,304,-1664,-251,313
3409,40,57,353,-1949,-220,245
3410,-19,9,440,-2244,30,254
3411,-41,-8,498,-2584,485,307
3412,-27,-31,564,-2859,954,360
3413,1,-38,642,-3057,1155,407
3414,13,-79,728,-3205,1124,469
3415,39,-138,804,-3375,1058,458
3416,41,-166,898,-3601,1009,393
3417,70,-172,1032,-3719,1024,256
3418,41,-199,1173,-3670,1073,86
3419,-7,-236,1264,-3521,1138,26
3420,-23,-290,1375,-3295,1267,16
3421,-47,-327,1506,-3106,1462,40
3422,-46,-336,1577,-2850,1647,42
3423,-55,-381,1628,-2504,1610,16
3424,-47,-400,1669,-2217,1339,-11
3425,-45,-411,1724,-1939,888,-70
3426,-30,-422,1800,-1611,319,-136
3427,-59,-374,1799,-1139,-106,-175
3428,-99,-422,1784,-494,-448,-187
3429,-77,-415,1759,18,-608,-44
3430,-47,-383,1711,453,-415,-72
3431,0,-403,1648,863,-257,-93
3432,45,-395,1554,1180,-243,-54
3433,78,-373,1487,1393,-292,-109
3434,106,-360,1408,1547,-464,-193
3435,118,-320,1368,1674,-696,-255
3436,87,-314,1292,1760,-800,-367
3437,60,-313,1270,1771,-790,-425
3438,28,-287,1244,1783,-649,-394
3439,10,-247,1206,1869,-474,-300
3440,28,-214,1177,2070,-329,-246
3441,21,-205,1118,2293,-245,-228
3442,19,-202,1057,2477,-185,-169
3443,32,-175,1005,2627,-153,-165
3444,38,-166,898,2709,-181,-216
3445,15,-159,819,2654,-335,-285
3446,1,-122,755,2510,-524,-302
3447,0,-89,698,2353,-618,-316
3448,-20,-72,636,2232,-644,-380
3449,-54,-57,562,2094,-681,-343
3450,-57,-29,490,1926,-786,-261
3451,-49,11,438,1740,-884,-234
3452,-46,39,394,1582,-1011,-191
3453,-64,41,367,1383,-1126,-123
3454,-89,55,315,1129,-1042,18
3455,-92,58,271,896,-780,219
3456,-78,71,231,672,-481,448
3457,-46,73,189,316,-142,622
3458,1,43,155,-166,171,710
3459,38,54,161,-656,376,733
3460,48,2,162,-1150,423,747
3461,39,-34,244,-2334,276,848
3462,32,-12,219,-1725,329,792
3463,68,-55,318,-2856,263,846
3464,67,-85,399,-3383,278,776
3465,61,-140,504,-3813,292,661
3466,69,-196,625,-4113,337,553
3467,13,-220,759,-4311,396,452
3468,-2,-237,899,-4379,421,510
3469,7,-284,1035,-4311,653,551
3470,20,-305,1199,-4174,913,461
3471,-27,-358,1308,-3998,1097,295
3472,-44,-452,1400,-3779,1044,196
3473,-34,-501,1528,-3600,800,180
3474,-11,-531,1632,-3449,401,200
3475,1,-501,1742,-3193,132,92
3476,-15,-518,1837,-2721,122,-60
3477,-33,-562,1861,-2090,228,-95
3478,-16,-595,1890,-1479,255,-80
3479,-21,-569,1906,-1020,171,-9
3480,-40,-555,1882,-549,42,53
3481,-40,-555,1884,-88,-114,157
3482,-18,-505,1851,324,-228,210
3483,28,-506,1789,758,-259,110
3484,35,-522,1709,1113,-427,45
3485,8,-496,1649,1389,-757,49
3486,39,-459,1574,1682,-1069,51
3487,51,-450,1476,1982,-1214,26
3488,43,-455,1395,2227,-1255,24
3489,74,-426,1308,2383,-1212,14
3490,87,-403,1238,2531,-1112,20
3491,96,-377,1167,2670,-987,42
3492,135,-345,1101,2826,-849,2
3493,144,-319,987,2926,-743,-56
3494,150,-311,903,2949,-710,-128
3495,157,-278,832,2898,-712,-201
3496,129,-270,757,2801,-718,-230
3497,101,-270,697,2643,-669,-205
3498,107,-223,631,2377,-517,-60
3499,119,-162,571,2182,-327,2
3500,127,-145,537,2012,-167,-7
3501,145,-86,485,1867,-79,51
3502,154,-88,473,1738,1,55
3503,169,-58,453,1576,126,-27
3504,143,-60,416,1402,208,-80
3505,118,-52,413,1182,210,-70
3506,124,-25,401,848,151,-107
3507,129,-5,411,439,91,-191
3508,104,-2,443,25,-9,-312
3509,77,-18,497,-357,-75,-382
3510,47,-40,557,-691,-110,-359
3511,45,-25,632,-924,-261,-302
3512,46,-25,700,-1043,-376,-302
3513,33,-24,785,-996,-349,-349
3514,24,-43,835,-869,-181,-394
3515,7,-84,851,-803,34,-353
3516,6,-111,893,-842,286,-273
3517,25,-125,914,-904,411,-183
3518,30,-133,947,-961,353,-95
3519,38,-132,975,-1022,247,-76
3520,44,-125,1017,-1068,149,-191
3521,11,-155,1032,-1082,19,-257
3522,-7,-162,1079,-1101,-136,-214
3523,-15,-162,1119,-1103,-157,-167
3524,-7,-166,1153,-1057,-28,-150
3525,-11,-177,1180,-976,110,-158
3526,-2,-183,1170,-861,144,-128
3527,-5,-193,1180,-621,56,63
3528,1,-181,1179,-742,105,-66
3529,15,-178,1152,-494,5,147
3530,37,-174,1131,-396,85,149
3531,51,-190,1091,-340,194,141
3532,52,-226,1082,-355,259,129
3533,62,-230,1063,-453,267,143
3534,51,-217,1073,-555,276,147
3535,55,-212,1095,-609,233,153
3536,78,-198,1119,-523,134,133
3537,85,-191,1117,-367,54,88
3538,65,-209,1104,-170,1,45
3539,61,-192,1075,6,11,-1
3540,53,-203,1068,115,75,-42
3541,19,-217,1037,139,177,-13
3542,34,-210,1031,119,206,63
3543,58,-207,1022,113,200,112
3544,91,-211,1018,61,161,120
3545,91,-205,1009,25,44,104
3546,92,-186,1025,65,-60,73
3547,95,-203,1024,113,-118,43
3548,110,-198,1027,149,-140,-7
3549,95,-192,1004,195,-116,-78
3550,98,-188,1000,236,-79,-109
3551,87,-216,981,248,-52,-101
3552,76,-202,962,191,-58,-54
3553,85,-192,982,170,19,-17
3554,102,-163,981,176,134,-46
3555,106,-192,978,197,132,-58
3556,116,-182,974,205,34,-56
3557,113,-190,969,199,-75,-91
3558,111,-173,980,193,-165,-117
3559,95,-179,967,191,-204,-166
3560,102,-206,971,166,-233,-207
3561,79,-186,977,108,-267,-185
3562,78,-179,967,57,-233,-136
3563,92,-173,996,106,-161,-103
3564,102,-188,984,160,-50,-134
3565,95,-202,981,180,-5,-134
3566,94,-196,986,209,-56,-105
3567,98,-193,978,240,-79,-123
3568,112,-199,972,250,-126,-150
3569,123,-188,959,240,-179,-232
3570,110,-188,962,178,-241,-320
3571,108,-172,959,121,-374,-341
3572,90,-170,960,139,-476,-380
3573,93,-167,971,150,-466,-376
3574,98,-141,979,162,-446,-322
3575,94,-159,983,242,-313,-275
3576,88,-155,979,283,-52,-251
3577,110,-131,971,324,108,-242
3578,126,-137,966,387,103,-242
3579,148,-141,944,377,21,-308
3580,137,-149,928,289,-163,-349
3581,108,-142,931,162,-311,-308
3582,108,-153,950,47,-347,-281
3583,108,-156,954,-57,-231,-292
3584,103,-167,987,-117,-144,-261
3585,102,-153,1010,-111,-101,-187
3586,120,-140,1035,-10,-26,-195
3587,117,-147,1014,100,24,-236
3588,104,-165,1004,152,-58,-251
3589,90,-180,998,143,-159,-273
3590,94,-184,984,45,-185,-291
3591,102,-157,1001,-39,-229,-281
