sequence,AccelerometerX,AccelerometerY,AccelerometerZ,GyroscopeX,GyroscopeY,GyroscopeZ
0,-268,7,896,-627,-290,-56
1,-256,9,985,-549,-64,-123
2,-308,49,1071,-486,-77,-162
3,-296,34,1145,-488,-361,-115
4,-304,-7,1169,-584,-822,-74
5,-304,-41,1173,-768,-1302,-230
6,-321,-53,1132,-1016,-1472,-367
7,-295,-89,1080,-1109,-1413,-363
8,-298,-132,1074,-1229,-1150,-332
9,-270,-212,1074,-1381,-751,-281
10,-276,-237,1106,-1631,-351,-295
11,-281,-283,1153,-1713,-7,-306
12,-247,-317,1211,-1559,118,-316
13,-237,-347,1255,-1303,-66,-500
14,-279,-381,1272,-1020,-306,-687
15,-280,-421,1269,-895,-351,-941
16,-248,-421,1263,-1022,-154,-1488
17,-275,-416,1264,-988,-267,-1252
18,-237,-429,1261,-1109,10,-1652
19,-214,-423,1262,-1246,198,-1756
20,-236,-371,1288,-1447,425,-1795
21,-222,-359,1281,-1416,534,-1652
22,-216,-373,1273,-1006,518,-1445
23,-237,-414,1248,-711,409,-1383
24,-259,-411,1264,-717,303,-1463
25,-254,-388,1258,-963,243,-1636
26,-265,-337,1228,-1342,155,-1795
27,-287,-282,1125,-1649,180,-1830
28,-307,-320,1113,-1764,344,-1785
29,-267,-316,1066,-1471,469,-1732
30,-237,-292,1038,-1035,518,-1801
31,-281,-269,1025,-533,333,-1840
32,-300,-260,1022,-137,153,-1908
33,-280,-208,1005,37,50,-2006
34,-239,-176,1003,-100,18,-2095
35,-208,-120,980,-375,7,-2080
36,-203,-75,930,-774,53,-2023
37,-233,-86,908,-1154,151,-1902
38,-219,-71,885,-1121,288,-1783
39,-196,-36,821,-926,464,-1668
40,-191,-94,856,-752,575,-1517
41,-199,-104,848,-260,479,-1443
42,-186,-134,822,62,290,-1422
43,-181,-102,819,59,159,-1508
44,-217,-110,778,-90,245,-1640
45,-215,-96,781,-137,452,-1636
46,-214,-121,803,-141,587,-1660
47,-249,-110,776,25,807,-1551
48,-271,-148,808,170,823,-1519
49,-253,-173,852,240,708,-1681
50,-269,-172,837,404,483,-1816
51,-275,-172,815,457,227,-1992
52,-289,-147,795,424,182,-2176
53,-277,-128,781,359,307,-2238
54,-253,-67,784,291,454,-2215
55,-245,-41,776,437,596,-1937
56,-265,-48,790,664,587,-1568
57,-241,-42,787,746,464,-1336
58,-248,-54,816,474,510,-1224
59,-283,-81,812,74,466,-1138
60,-287,-115,822,-303,436,-1068
61,-262,-97,793,-377,421,-951
62,-216,-71,794,-330,259,-904
63,-216,-113,766,-18,83,-769
64,-254,-137,762,314,-11,-703
65,-274,-172,770,539,24,-693
66,-262,-148,771,490,98,-834
67,-249,-85,793,330,169,-888
68,-224,-48,820,168,225,-670
69,-219,-72,817,60,245,-482
70,-213,-90,833,76,243,-429
71,-222,-124,837,152,257,-463
72,-227,-124,839,195,216,-515
73,-217,-144,838,195,176,-601
74,-196,-132,809,98,210,-730
75,-208,-22,827,-26,153,-847
76,-225,-76,822,-33,96,-818
77,-238,-69,833,94,163,-486
78,-229,-84,886,260,237,-236
79,-240,-128,865,508,423,30
80,-214,-115,892,711,510,39
81,-211,-138,932,867,466,-49
82,-216,-140,945,1057,384,-9
83,-222,-151,946,1029,253,-95
84,-223,-139,959,838,104,-261
85,-234,-110,940,633,30,-418
86,-234,-69,964,439,-19,-371
87,-228,-65,931,430,-36,-193
88,-234,-52,921,541,-64,-27
89,-228,-68,892,670,65,86
90,-217,-86,911,890,212,168
91,-225,-133,961,998,198,219
92,-200,-135,975,750,108,102
93,-205,-109,945,494,120,-109
94,-228,-94,963,303,241,-177
95,-245,-65,943,109,428,-101
96,-246,-65,967,-72,618,96
97,-258,-105,982,-39,737,274
98,-259,-118,991,-49,764,367
99,-261,-109,985,99,651,364
100,-245,-148,970,322,407,352
101,-247,-157,990,599,128,241
102,-256,-165,982,541,5,55
103,-281,-148,945,390,-11,-142
104,-273,-140,942,260,149,-250
105,-303,-105,938,185,315,-238
106,-292,-91,957,205,503,-125
107,-258,-82,983,193,737,32
108,-250,-113,1011,170,727,182
109,-251,-109,1046,359,444,299
110,-291,-139,1034,605,14,295
111,-307,-144,1029,771,-406,184
112,-287,-144,990,830,-591,16
113,-284,-118,957,791,-597,-101
114,-273,-104,952,769,-460,-176
115,-257,-105,933,717,-238,-230
116,-244,-90,930,613,-64,-154
117,-260,-87,942,592,53,-39
118,-268,-91,966,695,40,127
119,-255,-90,1022,918,-169,209
120,-265,-97,1061,1183,-511,198
121,-269,-91,1032,1264,-784,127
122,-265,-80,1017,1264,-962,76
123,-298,-86,975,1094,-880,51
124,-265,-105,950,779,-626,96
125,-227,-114,914,498,-351,88
126,-214,-79,927,166,-77,84
127,-229,-65,943,0,124,164
128,-234,-66,1008,68,134,295
129,-253,-66,1067,205,-74,403
130,-248,-90,1085,312,-454,448
131,-251,-85,1069,445,-843,434
132,-233,-75,1006,474,-1097,354
133,-220,-66,977,432,-1175,250
134,-245,-85,901,310,-968,149
135,-203,-113,856,125,-534,116
136,-174,-104,802,57,-75,57
137,-169,-132,824,68,352,-52
138,-198,-84,870,246,667,-123
139,-219,-64,937,640,712,-92
140,-215,-24,994,1146,530,-78
141,-241,-31,1059,1551,188,-29
142,-249,-31,1087,1555,-200,-27
143,-231,1,1059,1328,-491,-121
144,-220,5,1015,1008,-605,-168
145,-228,-8,963,639,-550,-164
146,-225,-15,933,248,-341,-142
147,-233,-20,914,-61,-21,-127
148,-216,-44,920,-297,266,-86
149,-217,-42,946,-361,378,-62
150,-223,-34,975,-262,301,-43
151,-223,-29,975,-65,167,-4
152,-217,-30,1039,154,-56,-2
153,-215,4,1009,277,-263,-15
154,-213,-8,1005,316,-304,10
155,-216,-16,962,258,-243,28
156,-216,-37,936,176,-171,18
157,-204,-36,908,97,-3,14
158,-204,-45,924,45,163,4
159,-202,-34,977,39,286,-2
160,-225,-41,991,10,329,-25
161,-231,-26,1000,-10,298,-54
162,-219,11,1026,47,198,-64
163,-215,-6,1058,148,10,8
164,-233,-18,1021,177,-181,78
165,-231,-23,1014,160,-247,73
166,-214,-32,988,76,-161,16
167,-227,-46,964,-98,7,-29
168,-229,-32,933,-240,186,-47
169,-219,-53,953,-221,364,-51
170,-223,-45,957,-151,475,-33
171,-207,-46,988,-14,405,-41
172,-222,-26,1006,92,225,-41
173,-242,-45,1019,105,32,-39
174,-242,-21,1016,97,-75,-29
175,-229,-9,971,60,-42,-58
176,-244,-21,959,-24,51,-78
177,-237,-35,926,-88,190,-107
178,-243,-41,946,-158,395,-133
179,-239,-40,937,-112,301,-123
180,-235,-35,958,-162,423,-97
181,-246,-36,972,-69,374,-80
182,-216,-40,991,58,264,-49
183,-233,-27,1003,181,71,-27
184,-247,-23,993,232,-109,-51
185,-238,-17,953,246,-158,-54
186,-231,-13,939,252,-122,-47
187,-222,-24,928,217,-38,-15
188,-228,-12,925,140,81,-27
189,-239,-23,940,41,262,-90
190,-247,-13,967,-28,385,-115
191,-246,-21,982,-24,389,-99
192,-248,-13,988,37,301,-95
193,-253,5,1013,88,165,-107
194,-244,20,1009,164,-5,-47
195,-248,7,989,308,-128,18
196,-247,-3,979,383,-107,37
197,-222,-5,978,355,3,0
198,-227,8,1000,273,155,-41
199,-237,-2,1052,146,331,-49
200,-233,8,1092,21,475,-136
201,-255,49,1189,19,577,-209
202,-245,67,1300,176,522,-131
203,-264,77,1421,459,274,-45
204,-278,89,1466,730,-42,-17
205,-295,92,1529,898,-322,43
206,-268,94,1555,867,-509,108
207,-287,85,1568,730,-708,182
208,-308,80,1567,472,-822,242
209,-329,81,1603,181,-857,313
210,-357,64,1600,-63,-904,287
211,-353,58,1608,-213,-1038,221
212,-341,45,1568,-160,-1298,237
213,-346,30,1546,54,-1617,266
214,-346,17,1515,183,-1909,246
215,-319,32,1474,166,-2120,196
216,-303,30,1432,-4,-2253,147
217,-305,45,1403,-227,-2359,78
218,-301,42,1361,-576,-2447,30
219,-290,51,1295,-969,-2531,39
220,-276,28,1220,-1219,-2681,78
221,-265,32,1143,-1391,-2827,104
222,-239,-12,1057,-1492,-2904,145
223,-203,-27,948,-1297,-2978,151
224,-154,-33,867,-1088,-3089,131
225,-149,-57,757,-994,-3111,69
226,-118,-74,671,-1014,-2972,20
227,-91,-80,601,-1149,-2706,-60
228,-75,-110,518,-1321,-2384,-220
229,-53,-110,462,-1391,-2075,-359
230,-33,-86,441,-1395,-1769,-486
231,-25,-61,421,-1186,-1531,-506
232,33,-72,404,-537,-1525,-369
233,50,-84,357,392,-1802,-183
234,52,-92,340,1064,-2042,-49
235,63,-90,287,1260,-1952,-11
236,56,-95,247,1119,-1665,-54
237,78,-93,231,810,-1275,-131
238,110,-76,215,476,-884,-234
239,103,-52,213,156,-515,-359
240,100,-39,205,-174,-136,-437
241,98,-16,214,-471,282,-400
242,114,-3,229,-541,604,-293
243,112,-17,234,-305,766,-168
244,104,0,245,15,774,-4
245,97,-43,261,291,780,100
246,77,-69,250,490,856,127
247,66,-49,233,537,1012,88
248,30,-24,246,408,1393,8
249,4,-35,247,138,1895,30
250,-33,-64,286,-110,2311,112
251,-54,-75,321,-385,2669,149
252,-46,-86,385,-526,2991,166
253,-90,-93,429,-405,3092,143
254,-123,-60,481,-106,3126,145
255,-161,-47,517,334,3173,176
256,-202,-65,558,787,3145,188
257,-212,-98,592,1013,3134,143
258,-210,-101,625,822,3270,32
259,-237,-92,651,412,3555,-105
260,-268,-54,703,68,3825,-127
261,-298,-26,813,82,4130,-6
262,-349,-18,949,260,4292,49
263,-417,-14,1096,517,4337,24
264,-440,22,1238,947,4231,8
265,-478,36,1380,1599,3878,-43
266,-519,32,1517,2117,3333,-121
267,-533,80,1611,2351,2880,-218
268,-531,137,1710,2228,2778,-236
269,-503,193,1848,1898,2936,-140
270,-511,220,2003,1517,2995,74
271,-542,227,2048,1322,2897,260
272,-569,193,2048,1234,2589,289
273,-560,253,2048,1176,1952,18
274,-575,296,2048,1119,1098,-289
275,-588,325,2048,795,239,-427
276,-596,318,2048,250,-497,-388
277,-599,291,2048,-176,-1085,-267
278,-594,235,2048,-496,-1480,-107
279,-592,220,2048,-830,-1699,-49
280,-575,190,2048,-1129,-1824,-39
281,-553,152,2048,-1256,-1980,4
282,-558,134,1940,-1237,-2208,22
283,-554,113,1893,-1022,-2525,-13
284,-557,104,1834,-787,-2988,-74
285,-501,102,1719,-719,-3486,-185
286,-454,103,1594,-791,-3993,-320
287,-419,92,1429,-910,-4380,-427
288,-378,49,1292,-1155,-4595,-537
289,-319,33,1150,-1488,-4656,-763
290,-318,-22,1027,-1627,-4644,-1009
291,-308,-38,883,-1778,-4517,-1248
292,-326,-55,764,-1979,-4341,-1422
293,-308,-57,674,-1977,-4103,-1408
294,-275,-52,594,-1942,-3792,-1197
295,-223,-87,519,-1875,-3521,-959
296,-194,-135,527,-1906,-3511,-1021
297,-181,-149,431,-1981,-3640,-1451
298,-148,-124,300,-1975,-3736,-1752
299,-127,-100,172,-1744,-3613,-1824
300,-72,-56,105,-1440,-3218,-1660
301,-15,-40,25,-1280,-2656,-1431
302,60,-9,2,-1256,-2044,-1166
303,53,-7,-6,-1354,-1501,-1072
304,53,28,-22,-1352,-1017,-752
305,85,38,-7,-946,-626,-244
306,116,-13,57,88,-542,164
307,110,-40,71,949,-792,260
308,137,-54,55,1185,-931,198
309,119,-101,72,742,-853,-72
310,87,-109,-2,99,-562,-347
311,76,-57,-21,-473,-36,-523
312,100,-33,-23,-856,542,-482
313,102,-7,4,-862,1108,-244
314,108,-2,45,-524,1579,-21
315,72,-58,98,8,1964,131
316,55,-71,206,539,2134,301
317,43,-102,281,961,2091,330
318,18,-123,271,1238,2124,297
319,-47,-94,268,1345,2596,272
320,-73,-97,350,1510,3229,260
321,-73,-82,429,1508,3872,301
322,-143,-60,558,1531,4462,289
323,-182,-96,800,1734,4807,305
324,-197,-56,986,1845,4729,299
325,-253,-64,1088,2002,4206,291
326,-392,-114,1222,1855,3643,387
327,-362,-140,1263,1301,3143,295
328,-352,-161,1234,670,2899,-4
329,-395,-160,1189,263,2800,-248
330,-402,-123,1185,-102,3048,-363
331,-381,-90,1240,-360,3587,-439
332,-339,-75,1368,-479,3923,-511
333,-313,-38,1486,-422,3903,-541
334,-261,32,1569,230,3354,-467
335,-303,1,1656,1324,2430,-396
336,-375,-9,1732,2076,1688,-416
337,-377,37,1784,2349,1327,-531
338,-433,106,1848,2176,1262,-625
339,-400,151,1953,1873,1479,-502
340,-380,146,2048,1410,1688,-281
341,-417,161,2048,853,1663,-179
342,-457,177,2048,428,1507,-86
343,-480,183,2048,262,1096,39
344,-486,189,2048,326,442,235
345,-478,147,2048,260,-365,455
346,-531,102,2048,15,-1210,508
347,-567,69,2048,-227,-1859,451
348,-546,61,1968,-565,-2148,414
349,-504,63,1863,-877,-2216,405
350,-483,39,1750,-1063,-2302,418
351,-490,11,1660,-1149,-2478,455
352,-492,-15,1622,-1078,-2736,405
353,-481,-21,1568,-953,-3044,323
354,-432,-42,1498,-954,-3429,229
355,-414,-56,1386,-1186,-3820,190
356,-392,-46,1265,-1487,-4109,188
357,-392,-55,1148,-1700,-4201,145
358,-374,-101,1013,-1700,-4220,158
359,-315,-103,913,-1569,-4193,176
360,-268,-159,771,-1434,-4118,114
361,-251,-161,677,-1329,-4083,37
362,-234,-152,593,-1270,-3958,-19
363,-196,-163,486,-1155,-3738,-45
364,-129,-168,426,-1008,-3597,-95
365,-119,-169,362,-920,-3513,-215
366,-84,-142,309,-885,-3458,-342
367,-48,-135,208,-825,-3390,-470
368,-18,-146,109,-702,-3263,-580
369,1,-137,83,-536,-3001,-677
370,13,-150,0,-383,-2593,-771
371,53,-112,-21,-213,-2142,-916
372,108,-77,-21,-178,-1689,-1080
373,130,-51,-31,-196,-1365,-1207
374,162,5,-40,-178,-1140,-1281
375,168,11,-39,-223,-894,-1293
376,150,52,-10,-274,-632,-1207
377,153,61,3,-245,-345,-1045
378,146,66,17,-71,-70,-781
379,124,20,53,298,534,-281
380,128,71,50,171,198,-506
381,138,-32,73,312,917,-164
382,140,-57,128,207,1208,-252
383,117,-23,188,91,1483,-459
384,75,21,231,64,1735,-611
385,49,44,282,193,1977,-584
386,43,22,317,464,2223,-408
387,39,1,382,621,2415,-207
388,27,-20,449,787,2571,-119
389,0,-37,488,873,2682,-111
390,-54,-51,585,765,2829,-158
391,-107,-58,638,582,2995,-250
392,-151,-74,685,343,3184,-326
393,-161,-65,767,156,3317,-416
394,-179,-25,828,88,3452,-576
395,-187,5,912,132,3678,-679
396,-221,-51,922,35,3954,-617
397,-258,-66,998,54,4063,-484
398,-305,-63,1065,355,4188,-494
399,-374,-86,1200,613,4526,-478
400,-350,-46,1341,580,4426,-392
401,-363,-32,1401,439,4116,-267
402,-352,-40,1454,267,3757,-80
403,-368,-51,1516,142,3530,-15
404,-417,-70,1590,84,3292,-43
405,-417,-47,1680,179,3069,-107
406,-414,-70,1800,636,2956,-15
407,-417,-44,1727,404,3012,-160
408,-447,-120,1894,906,2899,157
409,-489,-124,2048,1203,2766,141
410,-509,-126,2048,1296,2489,-56
411,-491,-86,2048,1103,1973,-271
412,-458,-38,2048,839,1341,-371
413,-491,2,2048,695,635,-351
414,-498,14,2048,504,10,-193
415,-480,21,2048,203,-400,-74
416,-475,-26,2048,-270,-683,4
417,-477,-51,2021,-698,-958,45
418,-499,-85,1958,-832,-1251,75
419,-506,-114,1878,-627,-1640,75
420,-517,-144,1805,-198,-2140,26
421,-518,-141,1737,199,-2624,-64
422,-499,-134,1663,343,-2949,-207
423,-494,-123,1513,181,-3101,-291
424,-423,-109,1342,-287,-3226,-232
425,-459,-124,1429,-84,-3199,-256
426,-394,-121,1280,-463,-3253,-287
427,-380,-121,1193,-444,-3314,-379
428,-364,-142,1131,-225,-3406,-467
429,-320,-154,1064,89,-3552,-550
430,-301,-134,1008,193,-3718,-642
431,-289,-125,928,105,-3872,-713
432,-266,-118,842,-108,-3986,-724
433,-231,-102,732,-362,-3964,-765
434,-213,-71,638,-614,-3824,-826
435,-166,-38,560,-748,-3611,-857
436,-130,-45,462,-655,-3437,-892
437,-99,-29,394,-549,-3339,-906
438,-71,-23,342,-485,-3253,-912
439,-62,-11,287,-504,-3138,-912
440,-29,14,225,-592,-3011,-925
441,-1,-6,144,-582,-2857,-894
442,30,23,76,-557,-2599,-787
443,82,33,25,-653,-2115,-761
444,120,64,28,-842,-1478,-761
445,120,81,47,-912,-911,-793
446,90,111,62,-860,-517,-744
447,91,116,77,-536,-286,-603
448,108,91,107,-243,-218,-463
449,116,110,84,-221,-193,-318
450,109,113,64,-360,-62,-172
451,89,78,21,-383,169,43
452,75,42,29,-276,477,176
453,79,0,31,-227,948,227
454,83,-36,57,-231,1460,260
455,73,-69,109,-168,1874,231
456,49,-84,180,33,2176,119
457,8,-89,289,316,2432,-90
458,-35,-96,370,714,2549,-240
459,-83,-63,475,1093,2557,-281
460,-114,-32,531,1279,2665,-248
461,-142,14,601,1259,2844,-117
462,-142,-20,635,1111,3042,137
463,-172,-55,673,896,3268,399
464,-216,-102,711,611,3514,502
465,-225,-80,814,449,3696,403
466,-275,-171,920,271,3786,178
467,-307,-190,1040,-14,3643,10
468,-285,-179,1126,-364,3405,-218
469,-288,-126,1136,-571,3192,-379
470,-280,-101,1144,-690,3087,-334
471,-313,-145,1158,-817,3284,-261
472,-380,-143,1242,-948,3635,-271
473,-397,-105,1385,-922,4020,-340
474,-423,-121,1561,-575,4272,-410
475,-444,-109,1737,130,3983,-465
476,-467,-108,1906,859,3364,-474
477,-478,-112,2009,1093,2770,-396
478,-471,-73,2048,709,2298,-367
479,-424,-18,2048,82,1956,-402
480,-420,9,2048,-473,1708,-388
481,-410,1,2048,-754,1622,-285
482,-445,-35,2048,-768,1430,-164
483,-446,-51,2048,-584,969,-119
484,-484,-81,2048,-290,440,-74
485,-521,-148,2048,-98,-68,-66
486,-506,-178,2048,-213,-650,-138
487,-517,-185,2048,-497,-1232,-240
488,-509,-165,1995,-623,-1757,-228
489,-504,-170,1877,-616,-2122,-140
490,-475,-199,1771,-545,-2318,-47
491,-459,-211,1683,-362,-2486,4
492,-437,-203,1596,-98,-2730,-33
493,-424,-224,1492,171,-2982,-93
494,-407,-253,1418,433,-3234,-140
495,-376,-236,1335,535,-3542,-250
496,-344,-206,1247,523,-3818,-343
497,-319,-173,1129,453,-3968,-390
498,-300,-169,1027,361,-3956,-363
499,-272,-159,948,253,-3861,-297
500,-230,-137,859,232,-3790,-269
501,-179,-135,781,335,-3671,-275
502,-169,-139,710,375,-3523,-308
503,-140,-123,649,492,-3339,-338
504,-134,-119,598,662,-3197,-412
505,-115,-124,557,750,-3120,-445
506,-103,-104,511,628,-2984,-496
507,-87,-72,464,459,-2777,-568
508,-61,-57,417,380,-2585,-529
509,-52,-51,367,238,-2382,-416
510,-40,-40,325,148,-2152,-302
511,24,28,241,312,-1884,-107
512,10,-2,305,220,-1997,-209
513,51,26,188,402,-1742,61
514,50,8,157,408,-1529,117
515,45,10,95,248,-1224,94
516,57,16,85,-14,-935,88
517,51,34,30,-278,-601,59
518,41,39,7,-403,-175,71
519,35,47,14,-498,305,160
520,45,64,15,-586,717,252
521,50,73,35,-465,1005,352
522,43,54,52,-293,1223,485
523,68,52,63,-219,1346,516
524,53,57,70,-315,1536,502
525,36,49,76,-413,1807,567
526,8,31,93,-483,2188,682
527,-42,4,142,-457,2598,737
528,-74,-19,182,-366,3048,741
529,-121,-84,268,-241,3450,758
530,-171,-154,383,-67,3704,705
531,-236,-189,479,76,3829,565
532,-272,-177,645,56,3880,332
533,-290,-160,721,-18,3944,186
534,-303,-140,808,3,3889,254
535,-305,-145,893,97,3792,422
536,-341,-153,955,175,3755,494
537,-364,-187,1037,203,3809,475
538,-374,-150,1168,189,3897,395
539,-384,-157,1281,162,4044,252
540,-440,-153,1427,318,4132,201
541,-435,-127,1570,644,4071,123
542,-485,-124,1757,755,3897,55
543,-479,-117,1942,550,3710,39
544,-448,-111,2048,-14,3467,53
545,-487,-102,2048,-666,3190,80
546,-526,-124,2048,-918,2776,94
547,-575,-139,2048,-862,2210,59
548,-586,-117,2048,-489,1514,26
549,-527,-121,2048,-96,657,35
550,-518,-130,2048,-125,-140,80
551,-525,-132,2048,-268,-751,119
552,-518,-141,2048,-403,-1085,112
553,-495,-141,2027,-563,-1240,108
554,-480,-167,1929,-702,-1355,65
555,-478,-162,1849,-557,-1525,67
556,-488,-199,1778,-290,-1630,88
557,-495,-219,1732,21,-1767,20
558,-477,-209,1706,359,-2122,-111
559,-448,-202,1633,662,-2652,-209
560,-458,-181,1550,724,-3122,-207
561,-439,-158,1458,593,-3370,-170
562,-438,-135,1344,419,-3490,-181
563,-417,-150,1228,265,-3433,-166
564,-358,-144,1134,351,-3368,-144
565,-307,-131,1055,546,-3322,-127
566,-283,-134,1000,634,-3286,-31
567,-266,-119,970,605,-3251,-8
568,-287,-128,906,560,-3243,-95
569,-282,-116,858,462,-3294,-123
570,-266,-105,782,302,-3234,-156
571,-270,-103,693,179,-3093,-201
572,-228,-96,615,-12,-2847,-168
573,-182,-80,601,-215,-2589,-175
574,-155,-54,555,-124,-2476,-166
575,-129,-31,535,343,-2521,-54
576,-93,-40,499,890,-2618,73
577,-63,-37,481,1193,-2642,92
578,-53,-35,452,1068,-2583,123
579,-46,-10,414,671,-2460,139
580,-37,-9,350,285,-2265,137
581,-8,7,279,-57,-2011,145
582,30,20,237,-319,-1714,143
583,47,27,169,-475,-1384,114
584,45,29,128,-467,-1085,129
585,40,20,88,-356,-816,200
586,26,0,80,-249,-634,198
587,36,-5,56,-157,-562,145
588,52,20,16,-153,-445,98
589,53,17,-10,-249,-191,114
590,70,8,-36,-374,194,123
591,60,-3,-52,-483,674,88
592,49,1,-10,-561,1260,67
593,66,14,59,-598,1817,108
594,53,35,103,-567,2200,166
595,25,60,173,-307,2446,266
596,-18,30,222,124,2563,448
597,-43,3,305,599,2585,598
598,-90,-12,355,947,2667,557
599,-114,-13,420,949,2899,512
600,-150,-25,461,574,3268,555
601,-188,-62,538,107,3673,643
602,-209,-91,620,-385,4071,742
603,-268,-102,722,-713,4374,762
604,-350,-114,851,-473,4467,742
605,-369,-130,1013,152,4387,729
606,-362,-145,1125,638,4124,662
607,-375,-171,1232,841,3782,635
608,-426,-178,1302,706,3536,575
609,-478,-169,1372,456,3534,418
610,-448,-124,1462,380,3758,248
611,-424,-73,1602,472,3921,172
612,-455,-28,1747,642,3880,250
613,-509,-2,1916,835,3614,297
614,-543,13,2048,956,3126,272
615,-533,53,2048,886,2465,168
616,-514,72,2048,609,1620,117
617,-520,62,2048,259,934,215
618,-543,28,2048,-42,585,371
619,-493,0,2015,-237,440,444
620,-478,-6,1977,-299,354,364
621,-492,-5,1964,-305,288,252
622,-506,-12,1986,-208,128,196
623,-484,1,1991,15,-259,112
624,-491,21,1989,271,-798,67
625,-476,34,1926,474,-1347,100
626,-474,58,1887,501,-1851,157
627,-486,71,1801,330,-2247,285
628,-485,44,1698,-1,-2515,450
629,-451,11,1561,-305,-2667,537
630,-441,-12,1463,-559,-2769,500
631,-433,-25,1388,-805,-2861,453
632,-414,-28,1295,-952,-2923,416
633,-395,-38,1207,-688,-3005,399
634,-349,-60,1148,-196,-3122,391
635,-317,-57,1087,68,-3165,362
636,-322,-57,985,99,-3177,319
637,-309,-57,948,-2,-3111,325
638,-279,-60,878,-163,-2972,358
639,-244,-42,827,-348,-2829,371
640,-239,-10,784,-495,-2714,414
641,-200,6,701,-444,-2638,543
642,-156,-12,653,-170,-2656,735
643,-153,-29,610,81,-2683,862
644,-148,-44,560,109,-2617,889
645,-143,-62,528,-47,-2509,830
646,-111,-71,496,-297,-2376,686
647,-100,-44,444,-565,-2251,559
648,-66,-12,370,-680,-2064,594
649,-12,6,319,-555,-1853,694
650,24,9,282,-147,-1697,809
651,36,-1,237,363,-1611,907
652,44,1,226,619,-1497,981
653,23,-10,219,605,-1296,1016
654,7,-19,218,404,-1013,1004
655,5,-33,218,52,-695,918
656,-16,-57,211,-295,-454,785
657,-36,-44,184,-495,-335,619
658,-24,-25,149,-557,-238,477
659,-3,-15,128,-602,-97,399
660,-4,-18,69,-561,157,418
661,-6,-23,85,-510,483,514
662,-9,-52,108,-418,813,498
663,-8,-66,124,-344,1087,375
664,5,-57,181,-276,1294,207
665,21,-26,215,-200,1559,135
666,-2,-39,283,0,1880,139
667,-72,-47,370,351,2257,205
668,-120,-48,472,863,2637,295
669,-178,-71,640,1244,2872,391
670,-259,-108,766,1394,2911,453
671,-269,-137,904,1185,2844,385
672,-240,-94,915,736,2749,143
673,-231,-57,941,328,2723,16
674,-238,-31,966,132,2862,61
675,-249,-35,994,267,3098,129
676,-271,-55,1054,673,3397,176
677,-320,-93,1180,941,3753,192
678,-348,-114,1370,1123,3895,-50
679,-389,-61,1539,1236,3655,-435
680,-388,-2,1657,1228,3221,-724
681,-412,52,1734,1089,2917,-851
682,-386,110,1816,980,2651,-765
683,-357,133,1865,962,2417,-533
684,-344,124,1926,962,2231,-353
685,-363,132,1951,949,2028,-293
686,-380,100,2029,880,1823,-322
687,-418,98,2048,687,1563,-422
688,-438,142,2048,433,1196,-580
689,-454,188,2048,169,641,-607
690,-436,196,2048,201,67,-455
691,-425,183,2048,335,-445,-248
692,-436,169,1999,267,-747,-70
693,-418,146,1954,50,-968,166
694,-435,135,1880,-223,-1193,289
695,-442,121,1798,-442,-1353,395
696,-443,84,1777,-483,-1546,430
697,-467,69,1718,-381,-1880,403
698,-476,41,1668,-375,-2279,332
699,-476,20,1581,-426,-2624,213
700,-432,37,1487,-442,-2904,133
701,-394,37,1388,-461,-3095,151
702,-374,29,1286,-514,-3195,190
703,-360,23,1189,-625,-3218,254
704,-340,1,1081,-782,-3152,289
705,-306,6,981,-834,-3048,377
706,-275,2,916,-807,-2945,498
707,-276,-21,851,-670,-2884,610
708,-283,-60,795,-456,-2908,635
709,-268,-86,769,-247,-3005,491
710,-249,-87,677,-124,-3097,215
711,-216,-57,629,-147,-3140,12
712,-164,-23,564,-250,-3083,-105
713,-128,10,525,-381,-2941,-162
714,-113,1,450,-465,-2773,-146
715,-36,58,354,-340,-2382,51
716,-85,26,398,-463,-2599,-56
717,10,53,324,-215,-2165,201
718,59,58,230,44,-1708,469
719,42,62,268,-94,-1949,364
720,61,65,210,181,-1493,596
721,54,65,174,281,-1288,692
722,45,48,154,257,-1087,731
723,61,42,146,142,-867,729
724,64,38,111,3,-628,670
725,80,10,66,-88,-318,655
726,92,15,62,-129,18,707
727,98,-17,39,-49,317,719
728,83,-32,47,80,589,688
729,70,-42,57,115,921,619
730,50,-27,93,179,1284,584
731,48,-34,126,390,1610,569
732,17,-55,196,730,1874,514
733,-19,-49,264,1107,2139,420
734,-38,-42,326,1355,2356,311
735,-81,-29,420,1404,2567,168
736,-118,-21,491,1259,2846,35
737,-161,4,567,939,3044,-45
738,-189,27,661,507,3171,18
739,-182,23,730,1,3225,180
740,-181,-13,755,-331,3159,291
741,-223,-26,782,-459,3059,291
742,-272,-50,784,-473,3130,217
743,-304,-66,835,-448,3239,147
744,-296,-72,881,-366,3378,43
745,-306,-58,958,-43,3356,-107
746,-314,-9,1048,619,3299,-222
747,-392,17,1195,1298,3223,-199
748,-416,43,1346,1679,3264,-201
749,-405,113,1522,1691,3313,-291
750,-409,193,1706,1515,3323,-529
751,-412,252,1862,1384,3190,-617
752,-416,299,2014,1369,2878,-574
753,-431,336,2048,1421,2397,-470
754,-449,341,2048,1257,1872,-388
755,-459,357,2048,597,1438,-209
756,-461,326,2048,-219,1098,-25
757,-463,301,2048,-776,764,96
758,-479,274,2048,-846,442,192
759,-504,250,2048,-608,98,338
760,-511,246,2048,-391,-230,559
761,-528,195,2048,-481,-579,784
762,-552,151,2048,-882,-1019,805
763,-538,152,2036,-1206,-1511,731
764,-543,149,1912,-1356,-1995,705
765,-535,137,1783,-1467,-2353,725
766,-535,122,1661,-1548,-2619,750
767,-477,97,1516,-1577,-2796,860
768,-451,74,1416,-1505,-2954,940
769,-433,48,1303,-1376,-3119,1000
770,-394,10,1228,-1288,-3232,971
771,-375,-7,1155,-1280,-3302,840
772,-352,17,1091,-1151,-3396,713
773,-335,31,1024,-924,-3492,739
774,-327,11,953,-796,-3564,817
775,-325,-7,855,-911,-3566,836
776,-286,-26,747,-1206,-3445,772
777,-256,-32,624,-1528,-3298,774
778,-220,-53,525,-1798,-3111,752
779,-199,-79,388,-1860,-2954,733
780,-151,-106,298,-1762,-2869,737
781,-131,-122,240,-1669,-2767,707
782,-101,-138,172,-1489,-2579,657
783,-72,-125,126,-1147,-2406,641
784,-47,-96,91,-633,-2265,660
785,6,-85,37,-36,-2150,717
786,12,-84,-6,468,-1968,731
787,44,-52,-38,743,-1607,819
788,102,-19,-44,872,-1140,932
789,107,-13,-43,788,-654,979
790,93,-21,-43,534,-206,1051
791,108,-56,-32,271,171,1117
792,126,-74,-2,105,475,1010
793,129,-66,-5,103,686,875
794,107,-42,30,257,817,815
795,94,-16,52,544,1055,805
796,67,-4,75,827,1368,850
797,56,24,114,1013,1751,924
798,31,12,151,968,2133,977
799,-20,-9,202,747,2499,1000
800,-91,-43,274,404,2772,959
801,-161,-71,336,-20,2989,938
802,-168,-76,424,-344,3204,930
803,-185,-71,518,-208,3409,842
804,-208,-78,586,345,3444,748
805,-273,-64,666,1040,3354,655
806,-324,-43,742,1497,3282,662
807,-353,30,834,1464,3319,782
808,-375,17,931,1103,3522,946
809,-366,-6,1014,511,3751,975
810,-406,-2,1145,68,3922,819
811,-465,-13,1287,257,3915,619
812,-476,-22,1382,865,3690,381
813,-482,27,1502,1433,3337,80
814,-469,157,1647,1554,3157,-129
815,-424,253,1772,1288,3032,-41
816,-438,299,1851,966,2788,106
817,-431,292,1916,595,2624,414
818,-439,246,2041,351,2495,668
819,-450,216,2048,267,2297,666
820,-442,190,2048,144,2036,446
821,-474,215,2048,27,1618,223
822,-530,279,2048,-57,1133,141
823,-546,298,2048,-159,559,383
824,-580,273,2048,-354,-120,735
825,-582,219,2048,-579,-759,938
826,-580,171,2048,-923,-1236,942
827,-569,126,2048,-1290,-1601,887
828,-543,111,2041,-1342,-1945,723
829,-512,132,1971,-1167,-2173,578
830,-525,103,1883,-757,-2495,463
831,-557,81,1828,-344,-2974,405
832,-588,149,1775,-159,-3359,430
833,-559,151,1709,-298,-3720,727
834,-528,164,1616,-598,-4101,1020
835,-524,150,1480,-870,-4406,1326
836,-529,78,1332,-1122,-4611,1481
837,-513,17,1181,-1350,-4609,1477
838,-434,-5,1037,-1665,-4533,1446
839,-387,-41,889,-1979,-4339,1309
840,-326,-63,775,-2067,-4122,1125
841,-316,-74,695,-1969,-3876,932
842,-308,-84,640,-1809,-3613,828
843,-293,-101,580,-1587,-3351,793
844,-254,-122,525,-1419,-3105,754
845,-210,-129,486,-1333,-2878,655
846,-165,-101,471,-1200,-2771,563
847,-129,-81,441,-1065,-2708,602
848,-88,-75,396,-946,-2620,696
849,-55,-99,344,-796,-2499,731
850,-5,-130,326,-581,-2355,733
851,9,-132,292,-424,-2189,662
852,6,-125,254,-382,-1960,629
853,21,-159,254,-397,-1667,518
854,37,-177,247,-360,-1370,248
855,50,-157,224,-364,-1171,-76
856,100,-124,233,-438,-1068,-330
857,110,-84,222,-508,-1035,-515
858,133,-58,178,-495,-1038,-584
859,136,-7,151,-499,-1033,-547
860,149,10,70,-506,-956,-353
861,166,-38,5,-536,-751,-156
862,215,-74,-85,-657,-419,-160
863,209,-86,-152,-801,36,-242
864,262,-80,-190,-684,528,-244
865,249,-67,-189,-264,1014,-304
866,206,-47,-158,201,1475,-228
867,136,-45,-77,546,1895,-43
868,83,-62,-29,695,2245,98
869,13,-82,22,628,2555,198
870,-57,-112,54,544,2852,213
871,-103,-132,124,462,3133,190
872,-123,-130,163,431,3360,119
873,-114,-138,169,484,3489,-35
874,-129,-122,198,613,3631,-162
875,-188,-109,256,917,3825,-244
876,-221,-75,325,1494,3995,-195
877,-271,-33,430,2068,4067,32
878,-332,-61,566,2384,4087,184
879,-400,-91,702,2302,4204,69
880,-407,-83,821,1810,4368,-133
881,-436,-53,927,1404,4405,-361
882,-476,-27,1003,1417,4219,-613
883,-480,57,1090,1644,4048,-763
884,-494,130,1204,1892,3991,-715
885,-515,198,1331,2091,4006,-488
886,-553,210,1461,2048,4026,-146
887,-577,180,1610,1792,4057,127
888,-588,127,1739,1492,4032,186
889,-636,110,1868,1218,3897,96
890,-654,116,2012,908,3680,-43
891,-687,196,2048,603,3403,-166
892,-688,215,2048,404,3040,-49
893,-667,188,2048,371,2753,166
894,-659,181,2048,720,2423,227
895,-666,140,2048,1078,2069,180
896,-685,147,2048,1185,1700,125
897,-732,168,2048,917,1301,32
898,-744,182,2048,-233,171,-119
899,-755,183,2048,378,786,-107
900,-759,194,2048,-692,-501,-19
901,-795,164,2048,-856,-1216,96
902,-786,117,2048,-889,-1796,131
903,-773,52,2048,-772,-2242,125
904,-777,44,2038,-588,-2663,75
905,-761,63,1926,-508,-2982,-45
906,-736,91,1830,-639,-3171,-150
907,-683,110,1711,-741,-3376,-162
908,-666,110,1642,-756,-3603,-205
909,-629,148,1565,-713,-3812,-207
910,-611,160,1496,-655,-4031,-158
911,-589,151,1428,-573,-4267,-86
912,-579,160,1342,-465,-4478,-21
913,-539,142,1262,-510,-4591,102
914,-504,141,1197,-729,-4617,242
915,-496,131,1101,-989,-4566,299
916,-469,103,1027,-1295,-4425,272
917,-439,88,959,-1704,-4285,285
918,-394,74,895,-2004,-4122,274
919,-347,72,826,-1969,-4025,235
920,-316,69,782,-1712,-4068,205
921,-275,55,716,-1491,-4197,246
922,-238,68,659,-1368,-4285,326
923,-222,69,602,-1272,-4329,453
924,-167,30,584,-1167,-4290,569
925,-148,-5,542,-1051,-4171,520
926,-127,-31,512,-915,-4072,455
927,-86,-61,500,-899,-4017,414
928,-60,-100,465,-901,-3990,303
929,-60,-120,382,-852,-3986,100
930,-22,-143,294,-868,-3913,-133
931,14,-164,181,-1036,-3702,-359
932,73,-155,66,-1295,-3386,-576
933,99,-99,-43,-1534,-2954,-726
934,144,-77,-96,-1680,-2374,-742
935,204,-58,-138,-1600,-1773,-654
936,251,-28,-148,-1282,-1286,-468
937,338,-16,-156,-837,-997,-201
938,366,-16,-164,-360,-890,20
939,370,-23,-188,134,-853,174
940,370,-49,-229,630,-767,305
941,356,-55,-239,988,-558,414
942,292,-91,-259,1175,-226,451
943,284,-129,-244,1122,235,395
944,271,-158,-211,902,751,201
945,245,-132,-168,566,1249,-72
946,247,-57,-138,179,1647,-164
947,306,-33,-94,-141,1891,-19
948,281,-37,-89,-172,2028,75
949,220,-16,-84,107,2042,162
950,179,-16,-75,497,2137,278
951,116,-31,-107,777,2370,336
952,55,-71,-73,804,2801,356
953,19,-112,-1,595,3374,338
954,17,-124,50,232,3971,352
955,-30,-114,152,-90,4489,409
956,-94,-106,275,-114,4821,461
957,-160,-90,409,191,4866,498
958,-224,-51,525,740,4760,385
959,-299,0,596,1261,4565,317
960,-321,34,683,1445,4469,401
961,-370,36,729,1437,4524,512
962,-434,18,766,1263,4700,606
963,-521,-8,834,1050,4954,711
964,-593,-74,919,888,5153,776
965,-640,-90,1058,689,5225,621
966,-646,-82,1081,286,5243,366
967,-597,-47,1165,-331,5301,311
968,-603,-20,1178,-422,5223,356
969,-644,-23,1230,257,4856,508
970,-717,-12,1273,1277,4442,625
971,-776,-15,1355,2130,4227,637
972,-801,-29,1509,2453,4311,664
973,-791,-36,1635,2023,4557,621
974,-737,-28,1757,1140,4647,477
975,-737,23,1849,472,4469,319
976,-779,19,1892,306,3940,305
977,-804,29,1991,562,3471,383
978,-835,11,2048,794,3178,366
979,-795,31,2048,888,2868,414
980,-782,58,2048,1007,2520,397
981,-802,54,2048,1119,2196,426
982,-826,45,2048,1019,1928,426
983,-841,58,2048,742,1657,317
984,-877,84,2048,281,1243,239
985,-871,87,2048,-294,739,264
986,-854,97,2048,-643,215,266
987,-850,101,2048,-674,-427,250
988,-852,91,2048,-251,-1800,166
989,-840,82,2048,-471,-1169,217
990,-867,100,2028,-210,-2077,110
991,-819,104,1943,-340,-2115,139
992,-803,124,1898,-532,-2201,67
993,-812,108,1844,-702,-2388,-52
994,-798,106,1837,-827,-2734,-142
995,-784,131,1769,-977,-3214,-275
996,-771,138,1674,-1028,-3714,-328
997,-759,116,1579,-840,-4152,-320
998,-755,109,1463,-674,-4458,-269
999,-748,96,1353,-723,-4615,-215
1000,-669,87,1276,-917,-4595,-80
1001,-631,75,1196,-969,-4527,-72
1002,-594,54,1118,-973,-4482,-62
1003,-580,56,1073,-975,-4394,-41
1004,-562,50,1037,-1010,-4275,-52
1005,-527,25,988,-1214,-4189,-123
1006,-492,33,940,-1516,-4197,-234
1007,-457,27,884,-1659,-4314,-295
1008,-403,24,808,-1587,-4486,-310
1009,-373,-8,713,-1323,-4699,-338
1010,-346,-32,637,-1024,-4845,-349
1011,-309,-47,574,-829,-4751,-379
1012,-274,-54,511,-788,-4527,-441
1013,-232,-72,481,-768,-4283,-506
1014,-196,-45,491,-733,-3992,-508
1015,-171,-34,455,-790,-3740,-418
1016,-142,-28,398,-932,-3595,-271
1017,-105,-46,375,-1018,-3456,-95
1018,-61,-75,324,-983,-3359,-17
1019,-23,-98,265,-880,-3306,-31
1020,14,-119,183,-880,-3226,-78
1021,58,-95,123,-950,-3058,-148
1022,132,-92,20,-969,-2829,-170
1023,159,-89,-57,-930,-2564,-203
1024,219,-110,-127,-862,-2245,-197
1025,277,-88,-198,-669,-1859,-183
1026,308,-84,-268,-315,-1505,-187
1027,337,-77,-266,119,-1181,-123
1028,359,-75,-271,603,-843,-78
1029,349,-65,-268,1019,-499,-105
1030,296,-24,-243,1130,-99,-119
1031,304,-37,-239,958,329,-9
1032,272,-57,-226,581,749,43
1033,275,-69,-198,175,1202,47
1034,276,-72,-185,15,1688,-19
1035,263,-75,-149,181,2028,-43
1036,218,-68,-78,488,2215,-17
1037,170,-40,-21,738,2360,-43
1038,118,-24,34,800,2448,49
1039,73,-51,41,824,2460,143
1040,23,-47,54,763,2540,104
1041,-10,-46,99,533,2784,2
1042,-48,-45,98,228,3096,-64
1043,-112,-29,92,23,3399,-49
1044,-176,-40,138,-16,3774,24
1045,-216,-42,199,216,4227,162
1046,-275,-54,319,661,4551,358
1047,-329,-66,484,1161,4751,471
1048,-342,-46,640,1562,4784,461
1049,-386,-55,764,1839,4544,356
1050,-427,-73,865,1824,4180,192
1051,-455,-47,929,1636,3967,-140
1052,-516,1,941,1443,3942,-466
1053,-530,28,974,1320,4157,-623
1054,-555,98,1057,1097,4548,-552
1055,-613,187,1156,775,4934,-222
1056,-588,138,1252,751,5131,346
1057,-606,92,1409,1214,5079,610
1058,-630,119,1591,1892,4686,522
1059,-716,128,1715,2187,4315,348
1060,-797,82,1783,1671,3971,293
1061,-748,59,1806,708,3905,309
1062,-740,65,1825,103,4073,184
1063,-756,83,1879,206,4112,168
1064,-781,112,1990,687,3909,334
1065,-807,80,2048,1058,3600,463
1066,-792,84,2048,1029,3221,455
1067,-744,98,2048,802,2735,414
1068,-756,108,2048,699,2010,330
1069,-812,91,2048,519,1368,211
1070,-814,68,2048,165,1012,207
1071,-817,54,2048,-280,809,200
1072,-824,31,2048,-510,528,241
1073,-835,-23,2048,-409,71,239
1074,-858,-45,2048,-221,-394,159
1075,-857,-37,2048,-45,-872,-43
1076,-852,-24,2048,-49,-1415,-226
1077,-837,-5,2048,-256,-1954,-402
1078,-811,41,2048,-516,-2589,-552
1079,-808,80,2001,-643,-3249,-652
1080,-782,97,1839,-694,-3714,-652
1081,-764,109,1700,-797,-3970,-554
1082,-728,102,1598,-905,-4056,-484
1083,-687,104,1516,-874,-4068,-445
1084,-638,92,1422,-794,-4091,-433
1085,-629,104,1377,-827,-4115,-455
1086,-638,108,1342,-940,-4093,-404
1087,-599,99,1319,-1073,-4109,-361
1088,-579,73,1265,-1290,-4320,-396
1089,-558,59,1161,-1544,-4628,-449
1090,-525,50,1080,-1626,-4824,-502
1091,-511,59,985,-1629,-4935,-554
1092,-482,42,888,-1561,-4966,-552
1093,-426,6,827,-1305,-4952,-502
1094,-389,6,758,-967,-4865,-451
1095,-372,14,715,-747,-4738,-447
1096,-352,30,672,-753,-4577,-343
1097,-300,34,604,-973,-4411,-238
1098,-277,7,524,-1311,-4279,-248
1099,-240,-4,455,-1704,-4150,-244
1100,-186,-14,347,-2038,-4029,-242
1101,-114,-37,217,-2126,-3939,-259
1102,-42,-47,149,-2030,-3808,-316
1103,36,-50,76,-1749,-3648,-357
1104,93,-38,7,-1253,-3476,-351
1105,151,-28,-21,-643,-3238,-312
1106,205,-19,-34,-100,-2915,-269
1107,215,12,-26,265,-2560,-201
1108,228,29,4,382,-2191,-25
1109,235,18,33,499,-1843,205
1110,236,-13,33,613,-1634,371
1111,208,-56,8,671,-1464,457
1112,202,-84,-14,648,-1261,440
1113,208,-88,-28,531,-1029,287
1114,228,-89,-59,191,-712,114
1115,239,-69,-103,-229,-365,-29
1116,264,-44,-131,-547,-19,-93
1117,270,-28,-130,-778,348,-123
1118,288,-5,-158,-854,731,-74
1119,283,1,-179,-655,1053,76
1120,280,-23,-155,-294,1387,241
1121,237,-41,-149,115,1766,362
1122,181,-46,-111,337,2202,438
1123,128,-90,-80,359,2657,487
1124,72,-102,-14,257,3063,496
1125,42,-121,40,167,3423,487
1126,-9,-130,110,132,3647,430
1127,-70,-123,168,374,3735,403
1128,-135,-88,245,871,3733,393
1129,-202,-59,318,1394,3708,381
1130,-278,-39,371,1687,3741,295
1131,-318,-46,402,1507,3942,215
1132,-348,-24,461,810,4387,242
1133,-392,-58,449,-147,4883,414
1134,-412,-100,518,-801,5200,598
1135,-380,-116,629,-637,5321,739
1136,-408,-91,747,490,5272,830
1137,-450,-98,914,2113,5028,832
1138,-553,-50,1135,3337,4870,705
1139,-622,-18,1347,3587,5036,555
1140,-689,6,1508,2722,5284,297
1141,-699,68,1659,974,5501,205
1142,-680,36,1720,-585,5442,280
1143,-665,20,1699,-866,4924,418
1144,-644,-9,1711,23,4214,569
1145,-686,-91,1697,1162,3518,502
1146,-744,-106,1713,1581,3067,297
1147,-740,-94,1747,1048,3114,55
1148,-669,-42,1801,181,3354,-50
1149,-621,-7,1856,-114,3282,-13
1150,-691,-31,1980,1283,2155,223
1151,-638,4,1918,490,2799,121
1152,-733,-59,2015,1632,1665,151
1153,-732,-39,2048,1412,1296,6
1154,-738,11,2046,781,1044,-68
1155,-706,-31,1998,152,893,-107
1156,-695,-52,1940,-221,729,-125
1157,-716,-70,1875,-305,514,-133
1158,-695,-82,1861,-22,225,-45
1159,-697,-89,1939,783,-167,-52
1160,-699,-40,2047,1581,-687,-91
1161,-692,13,2048,1695,-1119,-197
1162,-696,97,2048,1148,-1513,-375
1163,-656,139,2032,175,-1886,-431
1164,-648,162,1890,-659,-2208,-361
1165,-631,118,1761,-966,-2410,-291
1166,-636,56,1659,-864,-2501,-236
1167,-615,15,1615,-585,-2568,-312
1168,-598,53,1626,-276,-2695,-451
1169,-627,87,1634,-36,-2988,-547
1170,-608,131,1635,62,-3343,-492
1171,-579,196,1644,42,-3650,-367
1172,-564,203,1575,-190,-3980,-156
1173,-566,198,1504,-624,-4242,12
1174,-524,183,1391,-1026,-4378,155
1175,-510,136,1279,-1331,-4460,209
1176,-499,127,1166,-1440,-4372,235
1177,-463,88,1104,-1407,-4181,231
1178,-457,75,1064,-1389,-3994,250
1179,-434,67,1046,-1440,-3822,237
1180,-423,87,1039,-1497,-3759,280
1181,-400,62,1057,-1464,-4015,325
1182,-382,69,1018,-1473,-4404,342
1183,-372,46,899,-1542,-4722,391
1184,-333,20,789,-1696,-4869,438
1185,-302,-10,676,-1876,-4785,438
1186,-277,-71,574,-1964,-4484,412
1187,-190,-90,492,-1833,-4122,455
1188,-134,-107,458,-1559,-3769,381
1189,-131,-115,413,-1217,-3521,348
1190,-115,-144,374,-880,-3292,354
1191,-97,-138,390,-774,-3078,323
1192,-62,-142,383,-919,-2937,319
1193,-22,-150,334,-1063,-2841,282
1194,13,-133,285,-1106,-2763,221
1195,33,-138,197,-993,-2724,190
1196,50,-149,120,-946,-2638,164
1197,86,-139,14,-1024,-2419,172
1198,151,-177,-80,-1094,-2066,227
1199,204,-212,-163,-973,-1626,223
1200,247,-221,-190,-729,-1169,174
1201,269,-216,-214,-376,-728,39
1202,270,-170,-193,79,-361,-117
1203,270,-123,-168,462,-70,-127
1204,290,-96,-125,808,126,-33
1205,288,-83,-80,1083,370,106
1206,274,-70,-37,1222,567,229
1207,247,-73,-21,1242,786,336
1208,251,-113,39,1136,1044,366
1209,244,-121,47,931,1268,276
1210,202,-121,90,628,1477,112
1211,191,-133,70,357,1712,-123
1212,172,-117,60,199,1934,-244
1213,144,-69,69,187,2151,-318
1214,112,-28,116,376,2405,-279
1215,74,19,111,749,2567,-99
1216,50,22,160,1048,2760,178
1217,39,-22,185,1218,3055,373
1218,-10,-46,226,1279,3286,442
1219,-45,-72,293,1242,3514,414
1220,-89,-77,350,1128,3768,284
1221,-156,-89,409,1025,3960,78
1222,-199,-55,483,857,4184,-131
1223,-259,22,572,552,4542,-109
1224,-323,68,646,409,4903,162
1225,-382,52,735,849,4977,420
1226,-437,-11,822,1648,4821,590
1227,-502,-85,916,2288,4561,586
1228,-567,-142,990,2320,4280,326
1229,-585,-124,1035,1677,4153,-107
1230,-583,-38,1056,808,4237,-492
1231,-604,53,1080,425,4378,-591
1232,-611,89,1147,935,4419,-361
1233,-616,62,1265,1851,4421,35
1234,-662,27,1377,2505,4329,242
1235,-704,18,1509,2630,4204,129
1236,-723,56,1611,2099,4061,-68
1237,-677,54,1642,1296,3864,-256
1238,-638,77,1681,671,3751,-369
1239,-721,170,1717,447,3555,-404
1240,-722,150,1789,523,3305,-29
1241,-708,85,1812,790,3108,260
1242,-682,58,1863,884,2928,270
1243,-668,69,1932,810,2760,121
1244,-696,95,2011,697,2518,20
1245,-703,118,2048,790,2264,20
1246,-718,126,2048,945,1946,6
1247,-744,150,2048,913,1553,45
1248,-786,153,2048,706,1143,133
1249,-826,136,2048,277,739,221
1250,-829,87,2048,-202,370,227
1251,-846,67,2048,-495,-95,69
1252,-836,55,2048,-559,-704,-129
1253,-816,61,2048,-635,-1359,-351
1254,-816,58,2041,-700,-1949,-488
1255,-810,73,1926,-708,-2372,-527
1256,-778,72,1839,-690,-2708,-484
1257,-739,90,1772,-647,-3009,-449
1258,-730,104,1717,-692,-3326,-441
1259,-704,108,1635,-829,-3564,-425
1260,-681,111,1527,-1018,-3667,-476
1261,-659,113,1478,-1217,-3747,-533
1262,-650,109,1399,-1432,-3802,-623
1263,-622,108,1332,-1632,-3890,-601
1264,-574,109,1263,-1727,-4025,-531
1265,-526,90,1183,-1731,-4175,-470
1266,-512,98,1120,-1655,-4251,-433
1267,-505,84,1065,-1507,-4283,-383
1268,-489,85,1055,-1382,-4277,-283
1269,-459,90,1013,-1440,-4269,-121
1270,-422,74,972,-1569,-4242,-23
1271,-417,47,942,-1661,-4189,-31
1272,-412,46,898,-1790,-4160,-58
1273,-370,36,848,-1969,-4177,8
1274,-327,-8,750,-2196,-4212,30
1275,-313,-40,663,-2344,-4271,37
1276,-287,-83,552,-2282,-4304,63
1277,-253,-108,496,-1981,-4201,43
1278,-224,-143,420,-1659,-4015,24
1279,-174,-170,356,-1438,-3759,-43
1280,-120,-172,284,-1237,-3429,-152
1281,-49,-168,267,-991,-3052,-179
1282,-7,-138,246,-651,-2732,-191
1283,27,-109,250,-257,-2474,-123
1284,70,-113,246,197,-2230,73
1285,73,-122,249,640,-2105,205
1286,70,-132,255,890,-2023,258
1287,88,-144,223,872,-1919,282
1288,135,-159,209,765,-1859,258
1289,166,-151,185,646,-1773,135
1290,175,-113,131,478,-1601,6
1291,206,-98,117,312,-1367,-52
1292,227,-56,121,275,-1091,-13
1293,242,-19,92,419,-855,80
1294,268,-18,75,574,-730,319
1295,273,-42,60,706,-538,481
1296,242,-63,36,894,-300,483
1297,225,-90,45,941,-5,453
1298,226,-116,48,788,380,395
1299,248,-133,52,572,780,270
1300,244,-145,46,445,1145,69
1301,192,-89,90,454,1464,-113
1302,170,-38,165,472,1786,-109
1303,164,0,194,558,2026,-78
1304,129,45,197,816,2112,-6
1305,82,35,221,1095,2174,170
1306,75,24,259,1146,2385,328
1307,74,25,271,921,2672,475
1308,37,3,281,773,2973,520
1309,-8,29,302,769,3290,621
1310,-68,13,334,734,3653,778
1311,-120,-4,391,689,4024,860
1312,-180,18,471,695,4391,932
1313,-255,12,570,757,4674,1010
1314,-314,17,671,800,4870,1094
1315,-360,12,745,720,4930,1176
1316,-419,0,862,554,4782,1188
1317,-444,3,908,441,4450,1244
1318,-455,12,935,429,4161,1369
1319,-527,-34,911,742,3930,1446
1320,-571,-99,902,1179,3848,1496
1321,-607,-94,946,1351,3991,1420
1322,-635,-94,1024,1152,4319,1325
1323,-618,-104,1129,1097,4663,1143
1324,-666,-80,1269,1501,4825,969
1325,-700,-57,1468,1931,4721,807
1326,-755,25,1635,2243,4372,590
1327,-764,83,1694,2163,3801,526
1328,-761,68,1695,1769,3073,563
1329,-719,64,1626,1417,2528,453
1330,-700,37,1530,1398,1977,51
1331,-670,31,1560,1267,2153,196
1332,-690,6,1515,1708,2010,-170
1333,-693,5,1606,1833,2077,-420
1334,-744,72,1699,1673,2204,-707
1335,-709,191,1872,1238,2196,-789
1336,-665,336,1979,583,1964,-517
1337,-604,342,1997,27,1514,-41
1338,-570,248,2000,-174,899,338
1339,-616,167,1966,199,426,352
1340,-611,127,1952,585,212,182
1341,-662,131,2008,669,161,20
1342,-688,168,2048,493,157,-166
1343,-707,162,2048,109,47,-431
1344,-756,188,2048,-323,-222,-703
1345,-759,250,2048,-796,-644,-828
1346,-779,259,2048,-1178,-1244,-789
1347,-811,261,2048,-1370,-2007,-654
1348,-807,219,2032,-1245,-2759,-474
1349,-822,161,1852,-1190,-3386,-394
1350,-801,103,1686,-1352,-3742,-445
1351,-766,90,1547,-1503,-3814,-572
1352,-705,117,1454,-1690,-3771,-668
1353,-677,137,1375,-1782,-3691,-709
1354,-633,147,1325,-1805,-3646,-726
1355,-596,170,1270,-1925,-3652,-691
1356,-568,169,1203,-2013,-3699,-554
1357,-531,145,1182,-2028,-3870,-416
1358,-497,106,1104,-1972,-4154,-349
1359,-484,85,1027,-1864,-4369,-390
1360,-501,67,947,-1722,-4495,-476
1361,-507,24,852,-1708,-4484,-492
1362,-461,10,757,-1819,-4341,-496
1363,-420,8,699,-2077,-4140,-545
1364,-367,16,599,-2341,-3949,-623
1365,-326,16,510,-2630,-3841,-601
1366,-262,25,438,-2786,-3722,-498
1367,-163,-8,367,-2638,-3656,-357
1368,-136,-9,299,-2212,-3634,-367
1369,-111,-9,230,-1848,-3589,-345
1370,-81,-29,153,-1739,-3447,-273
1371,-1,-84,35,-1759,-3212,-222
1372,57,-130,-56,-1723,-2902,-240
1373,103,-140,-123,-1503,-2515,-302
1374,137,-171,-147,-1059,-2099,-326
1375,144,-176,-152,-483,-1683,-338
1376,151,-151,-101,60,-1255,-271
1377,135,-130,-42,501,-824,-138
1378,153,-146,69,745,-433,-19
1379,138,-164,160,771,-177,-29
1380,147,-143,235,786,-23,-158
1381,136,-117,267,829,-11,-318
1382,133,-117,314,808,-27,-420
1383,109,-133,313,843,-52,-537
1384,100,-101,297,734,-52,-654
1385,89,-53,277,380,96,-486
1386,101,-96,228,75,284,-193
1387,134,-129,191,111,489,-19
1388,119,-142,196,444,737,59
1389,101,-138,247,853,1059,47
1390,113,-144,293,1126,1452,35
1391,103,-153,379,1269,1743,-58
1392,62,-102,453,1464,1946,-216
1393,35,-36,536,1634,2130,-207
1394,24,23,622,1657,2303,-76
1395,-34,26,676,1530,2463,88
1396,-71,-2,709,1161,2583,241
1397,-111,-43,731,675,2715,311
1398,-129,-81,727,444,2817,313
1399,-158,-84,747,536,2870,276
1400,-190,-121,786,802,2899,229
1401,-228,-111,819,1206,2897,219
1402,-245,-106,914,1593,2946,209
1403,-273,-70,1003,1790,3036,207
1404,-279,-27,1127,1909,3047,201
1405,-323,10,1230,2009,2893,264
1406,-366,-7,1310,1833,2690,297
1407,-362,-8,1331,1417,2542,246
1408,-410,-7,1311,995,2372,100
1409,-400,-32,1285,818,2260,8
1410,-336,-47,1277,923,2192,57
1411,-359,-34,1267,1359,2088,-13
1412,-360,-7,1350,1775,2034,-68
1413,-370,75,1447,1880,2085,-199
1414,-373,113,1529,1425,2128,-299
1415,-351,147,1571,581,2182,-291
1416,-339,119,1582,-304,2137,-185
1417,-347,91,1570,-585,1987,-50
1418,-344,37,1624,-11,1749,73
1419,-336,12,1696,917,1432,149
1420,-358,41,1806,1652,1190,39
1421,-391,75,1920,1710,1130,-33
1422,-424,141,2036,1112,1085,-56
1423,-432,180,2048,73,944,-91
1424,-455,160,2048,-1097,641,-99
1425,-475,118,2041,-1772,110,-37
1426,-524,61,1922,-1784,-517,26
1427,-550,-9,1783,-1587,-1001,57
1428,-564,-45,1665,-1436,-1281,41
1429,-560,-71,1563,-1382,-1427,6
1430,-527,-72,1513,-1296,-1523,10
1431,-494,-56,1447,-1171,-1697,-68
1432,-479,-25,1374,-1165,-1863,-115
1433,-447,-12,1306,-1235,-2001,-82
1434,-408,4,1218,-1298,-2103,-70
1435,-385,8,1141,-1399,-2214,-107
1436,-380,-7,1048,-1567,-2357,-174
1437,-343,-29,965,-1733,-2402,-240
1438,-317,-43,845,-1811,-2386,-256
1439,-292,-50,760,-1878,-2370,-232
1440,-237,-83,691,-1778,-2275,-226
1441,-196,-81,642,-1610,-2171,-254
1442,-192,-74,587,-1413,-2154,-316
1443,-179,-58,564,-1126,-2132,-365
1444,-138,-44,548,-850,-2119,-340
1445,-120,-30,541,-698,-2107,-259
1446,-108,-11,509,-493,-2103,-195
1447,-96,-30,475,-192,-2068,-132
1448,-76,-54,438,9,-1980,-37
1449,-84,-75,403,-34,-1773,-11
1450,-71,-78,370,-214,-1458,-56
1451,-61,-97,336,-477,-1072,-138
1452,-53,-101,319,-768,-699,-250
1453,-35,-83,302,-919,-412,-320
1454,-17,-73,311,-866,-206,-285
1455,-12,-56,323,-591,-119,-152
1456,5,-42,297,-190,-85,-21
1457,13,-48,307,259,-46,112
1458,-12,-89,312,509,10,168
1459,-31,-110,295,562,188,166
1460,-20,-135,311,560,471,108
1461,-30,-126,308,554,770,24
1462,-65,-103,342,570,1083,-62
1463,-76,-71,399,685,1395,-47
1464,-77,-40,478,913,1549,67
1465,-84,-14,538,1267,1587,219
1466,-93,-13,606,1562,1676,369
1467,-124,-17,651,1560,1782,424
1468,-173,-41,689,1329,1924,410
1469,-198,-90,743,962,2092,303
1470,-241,-91,790,495,2315,129
1471,-254,-93,783,185,2473,14
1472,-256,-70,802,286,2487,47
1473,-255,-67,833,652,2446,239
1474,-299,-47,903,1353,2335,401
1475,-327,-64,991,2079,2186,539
1476,-338,-50,1075,2564,2022,524
1477,-332,-12,1151,2638,1866,395
1478,-373,28,1185,2236,1839,278
1479,-398,38,1183,1587,2040,221
1480,-365,9,1248,1005,2342,211
1481,-373,23,1351,902,2452,250
1482,-382,52,1458,1355,2348,207
1483,-413,46,1574,1919,2159,260
1484,-424,65,1739,2292,1893,315
1485,-442,115,1882,2269,1626,231
1486,-484,132,1965,1724,1421,176
1487,-491,141,2029,999,1221,153
1488,-511,176,2027,458,999,102
1489,-525,153,2044,19,692,198
1490,-542,108,1989,-192,397,270
1491,-557,59,1967,-323,145,295
1492,-585,32,1918,-430,-107,266
1493,-585,18,1900,-544,-417,229
1494,-576,15,1854,-678,-794,168
1495,-568,3,1763,-848,-1169,22
1496,-560,31,1694,-1014,-1482,-166
1497,-522,30,1611,-1171,-1714,-310
1498,-503,48,1555,-1257,-1925,-398
1499,-479,30,1475,-1309,-2156,-490
1500,-482,7,1374,-1286,-2357,-590
1501,-461,13,1296,-1184,-2521,-605
1502,-448,-27,1239,-1122,-2570,-636
1503,-418,-52,1168,-1163,-2603,-756
1504,-395,-14,1152,-1298,-2679,-963
1505,-384,36,1091,-1440,-2851,-1023
1506,-338,66,1031,-1516,-3074,-841
1507,-313,31,959,-1448,-3302,-656
1508,-313,-4,871,-1229,-3507,-625
1509,-282,-11,809,-1085,-3583,-623
1510,-251,-28,730,-1116,-3558,-668
1511,-236,-53,667,-1231,-3492,-736
1512,-199,-44,607,-1383,-3384,-894
1513,-145,-37,542,-1633,-3249,-1002
1514,-116,-28,488,-1833,-3070,-978
1515,-99,-39,433,-1809,-2921,-927
1516,-38,-40,333,-1395,-2728,-664
1517,-71,-12,391,-1600,-2822,-838
1518,7,-73,287,-1126,-2581,-631
1519,47,-49,211,-883,-2384,-695
1520,78,-76,159,-663,-2058,-740
1521,101,-81,167,-387,-1767,-783
1522,75,-73,126,-290,-1460,-892
1523,66,-27,116,-245,-1115,-830
1524,52,-26,116,-106,-771,-623
1525,60,-35,116,11,-410,-355
1526,77,-52,118,31,-62,-109
1527,81,-94,159,99,225,-39
1528,82,-88,173,384,475,-60
1529,64,-72,194,659,661,-109
1530,39,-94,223,784,817,-117
1531,32,-95,240,849,1040,-107
1532,27,-74,276,921,1290,-93
1533,-13,-52,304,935,1590,-58
1534,-26,-35,343,913,1979,119
1535,-44,-81,400,867,2325,223
1536,-87,-122,474,749,2592,246
1537,-130,-108,547,681,2829,141
1538,-154,-73,598,665,2985,43
1539,-177,-47,682,814,2979,26
1540,-190,-23,749,906,2981,102
1541,-171,-45,789,898,3010,287
1542,-197,-38,806,1074,2967,389
1543,-248,-44,841,1361,3016,510
1544,-287,-36,915,1564,3128,619
1545,-315,-49,984,1609,3268,692
1546,-321,-84,1077,1408,3481,639
1547,-322,-67,1146,968,3653,494
1548,-364,-47,1243,868,3645,342
1549,-366,-16,1356,1046,3544,241
1550,-381,11,1522,1275,3376,129
1551,-389,82,1654,1335,3112,123
1552,-384,144,1770,1242,2831,317
1553,-380,131,1836,1271,2555,551
1554,-414,80,1868,1298,2483,787
1555,-429,40,1949,1310,2436,887
1556,-433,63,2010,1222,2272,784
1557,-446,79,2048,898,2116,532
1558,-487,60,2048,404,1901,241
1559,-525,97,2048,-69,1501,32
1560,-559,124,2048,-407,1022,24
1561,-554,111,2048,-569,436,166
1562,-556,74,2048,-493,-312,309
1563,-581,13,1966,-282,-1050,334
1564,-585,-27,1864,-155,-1615,227
1565,-577,-37,1752,-221,-2038,45
1566,-572,-19,1648,-389,-2251,-132
1567,-557,18,1576,-557,-2296,-238
1568,-547,69,1526,-704,-2308,-254
1569,-497,97,1454,-854,-2369,-134
1570,-446,54,1380,-874,-2542,-11
1571,-412,64,1312,-884,-2693,80
1572,-412,54,1242,-983,-2783,100
1573,-393,41,1193,-1208,-2863,104
1574,-374,51,1129,-1352,-2943,174
1575,-356,26,1041,-1372,-3001,235
1576,-359,23,955,-1315,-2953,313
1577,-317,22,900,-1302,-2816,465
1578,-254,11,838,-1376,-2642,576
1579,-221,4,776,-1434,-2509,659
1580,-201,0,715,-1323,-2398,778
1581,-191,-27,691,-1114,-2253,852
1582,-186,-73,655,-1059,-2105,825
1583,-170,-93,636,-1192,-2031,721
1584,-172,-96,581,-1362,-1972,571
1585,-146,-89,521,-1417,-1908,412
1586,-126,-84,497,-1298,-1841,403
1587,-97,-88,450,-1069,-1816,451
1588,-77,-117,421,-788,-1757,436
1589,-77,-131,404,-505,-1685,405
1590,-47,-108,378,-321,-1579,334
1591,-18,-106,354,-255,-1447,284
1592,-5,-105,351,-220,-1374,221
1593,20,-94,328,-161,-1310,160
1594,17,-61,299,-40,-1224,57
1595,-3,-70,268,23,-1085,6
1596,5,-97,242,7,-857,-45
1597,14,-98,235,3,-585,-52
1598,2,-92,222,87,-257,-101
1599,5,-84,244,251,73,-78
1600,16,-104,283,378,296,-19
1601,35,-117,323,491,442,-66
1602,36,-103,347,568,514,-197
1603,34,-62,400,657,606,-351
1604,36,-16,413,738,719,-316
1605,30,16,431,784,856,-185
1606,20,4,446,833,1073,-17
1607,-1,-16,466,935,1352,98
1608,-26,-17,498,1040,1680,147
1609,-62,-10,556,1099,2040,205
1610,-102,-27,628,966,2321,248
1611,-103,-43,717,585,2616,200
1612,-133,-36,768,173,2788,114
1613,-160,-24,809,-48,2776,55
1614,-176,-17,841,148,2624,104
1615,-198,-32,871,695,2376,243
1616,-251,-29,893,1269,2258,356
1617,-284,-54,926,1587,2378,391
1618,-265,-34,996,1562,2583,383
1619,-307,17,1101,1363,2694,407
1620,-324,46,1160,1228,2751,539
1621,-313,-6,1250,1230,2690,639
1622,-360,-8,1320,1251,2526,504
1623,-355,-17,1343,1128,2391,399
1624,-378,-11,1346,907,2346,239
1625,-401,-40,1375,720,2436,106
1626,-429,-28,1439,665,2528,-49
1627,-447,4,1519,767,2536,-207
1628,-445,38,1619,913,2370,-168
1629,-429,53,1708,1062,2051,-72
1630,-412,85,1784,1089,1575,-17
1631,-408,87,1793,1005,1055,-84
1632,-434,101,1812,825,663,-103
1633,-424,119,1821,532,454,-95
1634,-428,112,1779,177,399,-74
1635,-418,103,1791,-61,362,-39
1636,-428,87,1778,-155,319,-109
1637,-449,106,1787,-270,196,-146
1638,-466,90,1835,-425,-87,-95
1639,-462,75,1839,-466,-537,-115
1640,-476,75,1794,-501,-1171,-218
1641,-500,77,1694,-680,-1787,-300
1642,-497,53,1587,-903,-2115,-334
1643,-469,46,1502,-1192,-2179,-398
1644,-457,53,1421,-1354,-2187,-496
1645,-427,45,1363,-1345,-2222,-566
1646,-411,24,1329,-1264,-2298,-582
1647,-401,14,1280,-1262,-2478,-629
1648,-390,26,1217,-1356,-2644,-656
1649,-367,-2,1157,-1429,-2845,-650
1650,-351,-5,1091,-1438,-3007,-658
1651,-336,4,1033,-1538,-3128,-652
1652,-305,-32,946,-1573,-3206,-701
1653,-292,-55,868,-1481,-3244,-716
1654,-246,-51,784,-1399,-3173,-767
1655,-224,-51,701,-1390,-2982,-836
1656,-179,-65,637,-1397,-2742,-843
1657,-144,-83,605,-1358,-2527,-902
1658,-120,-80,567,-1237,-2369,-986
1659,-92,-28,535,-1018,-2281,-1029
1660,-70,10,515,-852,-2267,-875
1661,-42,-12,491,-729,-2277,-656
1662,-11,-43,451,-544,-2245,-506
1663,-17,-37,397,-352,-2169,-453
1664,-22,-56,357,-251,-1999,-382
1665,-20,-70,320,-239,-1738,-320
1666,3,-102,292,-216,-1419,-304
1667,1,-132,255,-194,-1072,-361
1668,10,-129,272,-298,-724,-482
1669,28,-89,240,-505,-402,-570
1670,48,-65,257,-503,-187,-484
1671,53,-55,269,-231,-23,-314
1672,62,-55,317,142,145,-166
1673,54,-61,308,484,229,-37
1674,60,-105,299,691,335,35
1675,58,-132,312,743,546,-7
1676,47,-104,328,714,837,-123
1677,50,-60,355,653,1212,-146
1678,33,-33,392,628,1555,-76
1679,5,-23,438,659,1866,26
1680,0,-9,501,827,2088,184
1681,-28,-6,560,1048,2188,336
1682,-72,-14,642,1161,2198,418
1683,-108,-25,688,1157,2223,448
1684,-117,-34,713,976,2274,399
1685,-156,-56,725,597,2342,321
1686,-203,-88,721,308,2456,264
1687,-204,-112,722,210,2622,194
1688,-229,-90,723,454,2749,207
1689,-265,-85,781,1066,2788,196
1690,-273,-70,924,1704,2803,246
1691,-289,-32,1018,2103,2786,258
1692,-315,8,1121,2103,2731,285
1693,-317,16,1202,1890,2729,301
1694,-358,18,1279,1610,2680,254
1695,-391,5,1372,1319,2561,200
1696,-360,10,1448,1175,2469,73
1697,-356,24,1485,1087,2352,-9
1698,-395,17,1555,1107,2264,-80
1699,-390,42,1639,1085,2256,-64
1700,-386,79,1733,954,2239,-52
1701,-390,85,1843,722,2120,-21
1702,-351,74,1906,556,1866,55
1703,-351,70,1937,605,1512,80
1704,-386,61,1991,720,1159,37
1705,-416,81,2048,720,878,-45
1706,-451,91,2048,579,542,-90
1707,-478,91,2048,300,135,-148
1708,-500,83,2042,-63,-345,-240
1709,-480,93,1938,-382,-857,-322
1710,-493,117,1837,-565,-1296,-324
1711,-483,107,1754,-554,-1636,-211
1712,-467,62,1651,-532,-1882,-168
1713,-450,59,1541,-610,-2037,-205
1714,-442,60,1473,-733,-2095,-271
1715,-412,54,1416,-882,-2130,-283
1716,-402,27,1383,-964,-2226,-336
1717,-365,15,1365,-1138,-2435,-482
1718,-364,49,1313,-1282,-2728,-656
1719,-339,54,1266,-1294,-3038,-715
1720,-324,69,1186,-1249,-3300,-709
1721,-323,68,1099,-1161,-3503,-664
1722,-306,35,1012,-1122,-3535,-498
1723,-265,-16,935,-1169,-3458,-382
1724,-234,-16,869,-1216,-3306,-388
1725,-200,-5,815,-1261,-3093,-420
1726,-177,13,778,-1255,-2884,-365
1727,-137,0,732,-1231,-2699,-273
1728,-116,-18,688,-1233,-2548,-257
1729,-107,-23,648,-1216,-2447,-263
1730,-67,-31,606,-1210,-2370,-236
1731,-38,-33,565,-1165,-2290,-209
1732,-29,-54,519,-960,-2271,-191
1733,-29,-60,462,-723,-2244,-170
1734,-28,-79,401,-567,-2148,-175
1735,-37,-75,326,-440,-1980,-136
1736,-6,-75,278,-440,-1699,-9
1737,13,-85,227,-425,-1355,129
1738,26,-90,217,-284,-1021,200
1739,22,-105,205,-81,-714,209
1740,13,-98,211,181,-425,192
1741,11,-71,220,398,-152,219
1742,9,-77,261,489,65,244
1743,6,-52,289,519,292,319
1744,13,-84,278,525,430,442
1745,32,-105,284,528,522,434
1746,19,-119,287,499,661,350
1747,33,-110,297,515,842,248
1748,42,-77,311,612,1069,213
1749,46,-61,325,857,1327,256
1750,52,-60,373,1144,1585,330
1751,4,-45,405,1310,1856,412
1752,-38,-51,487,1327,2186,512
1753,-60,-90,568,1161,2467,508
1754,-93,-78,613,855,2618,391
1755,-119,-43,654,536,2747,297
1756,-131,-31,665,378,2868,303
1757,-139,-43,698,483,2903,387
1758,-143,-34,722,894,2899,422
1759,-194,-27,748,1269,2946,375
1760,-238,-15,810,1464,3106,330
1761,-268,-35,904,1407,3292,295
1762,-287,-49,997,1157,3417,180
1763,-313,7,1068,892,3415,32
1764,-356,60,1181,1067,3337,75
1765,-366,79,1253,1491,3227,155
1766,-401,97,1305,1771,3087,157
1767,-420,88,1399,1663,2971,104
1768,-385,78,1453,1310,2846,20
1769,-393,105,1486,1017,2667,-160
1770,-398,139,1535,759,2503,-295
1771,-396,209,1623,628,2413,-330
1772,-379,223,1724,724,2305,-129
1773,-375,212,1833,1005,1983,84
1774,-417,204,1908,1245,1610,114
1775,-480,192,1966,1263,1171,30
1776,-496,213,1957,1013,792,-41
1777,-515,241,1943,538,458,-129
1778,-509,267,1888,7,147,-93
1779,-506,252,1887,-411,-107,-11
1780,-521,247,1854,-573,-357,-15
1781,-502,230,1812,-642,-691,12
1782,-485,205,1759,-538,-1076,16
1783,-489,161,1695,-393,-1437,20
1784,-495,122,1620,-343,-1742,16
1785,-484,121,1580,-415,-1968,-7
1786,-457,128,1549,-645,-2177,0
1787,-430,116,1504,-815,-2406,-31
1788,-417,103,1446,-952,-2644,-66
1789,-386,100,1396,-1034,-2822,-41
1790,-372,104,1305,-1052,-3007,-25
1791,-347,45,1214,-811,-3181,-33
1792,-336,34,1125,-567,-3281,-23
1793,-333,52,1078,-515,-3249,-6
1794,-292,47,1000,-630,-3105,82
1795,-272,38,951,-895,-2943,137
1796,-242,35,868,-1177,-2781,149
1797,-229,34,810,-1360,-2648,215
1798,-210,30,768,-1479,-2540,330
1799,-165,-12,742,-1493,-2490,391
1800,-174,-29,674,-1401,-2527,334
1801,-170,-55,600,-1249,-2589,244
1802,-157,-80,538,-1142,-2581,145
1803,-132,-100,446,-1157,-2515,82
1804,-117,-119,369,-1122,-2425,10
1805,-75,-117,298,-995,-2246,-7
1806,-52,-128,253,-825,-2035,-15
1807,-8,-135,197,-618,-1829,2
1808,21,-104,193,-415,-1548,12
1809,47,-81,171,-151,-1238,96
1810,73,-74,186,224,-945,192
1811,82,-79,223,708,-704,262
1812,94,-81,243,1105,-454,262
1813,75,-77,293,1257,-236,264
1814,52,-76,294,1233,-62,239
1815,60,-85,323,1034,108,201
1816,53,-71,340,817,296,139
1817,41,-30,339,692,553,63
1818,25,-9,371,626,831,157
1819,35,-42,393,534,1075,241
1820,17,-51,391,425,1348,241
1821,1,-57,441,452,1571,203
1822,-23,-83,495,562,1735,159
1823,-54,-79,529,515,1878,51
1824,-79,-83,549,450,2024,-113
1825,-93,-32,609,399,2198,-185
1826,-107,-24,638,349,2350,-117
1827,-151,-15,684,462,2452,-23
1828,-180,-29,736,651,2555,88
1829,-196,-19,796,1011,2637,121
1830,-238,-23,848,1386,2653,49
1831,-256,-69,925,1249,2669,-113
1832,-286,-36,985,841,2653,-341
1833,-330,-2,1016,466,2653,-511
1834,-331,34,1067,183,2727,-519
1835,-306,56,1121,46,2776,-369
1836,-313,32,1186,372,2671,-201
1837,-314,48,1259,987,2465,-80
1838,-317,37,1334,1519,2241,-76
1839,-357,50,1405,1735,2059,-199
1840,-366,71,1452,1552,1948,-367
1841,-381,129,1480,1120,1944,-554
1842,-398,186,1511,577,1958,-584
1843,-403,211,1564,30,1979,-449
1844,-343,177,1596,-393,1917,-248
1845,-333,171,1638,-448,1778,-207
1846,-357,154,1681,-163,1475,-185
1847,-387,127,1745,-20,1128,-168
1848,-387,139,1779,-93,907,-193
1849,-378,179,1813,-190,700,-197
1850,-381,167,1844,-251,469,-119
1851,-372,158,1861,-311,174,-21
1852,-422,164,1848,-405,-95,-35
1853,-443,151,1854,-536,-404,4
1854,-452,140,1839,-599,-736,65
1855,-447,108,1797,-614,-1089,71
1856,-446,98,1753,-598,-1456,24
1857,-455,76,1689,-616,-1810,-117
1858,-472,77,1636,-796,-2105,-318
1859,-462,99,1575,-1020,-2353,-480
1860,-451,116,1458,-1190,-2533,-574
1861,-431,146,1394,-1388,-2697,-422
1862,-382,90,1322,-1464,-2841,-224
1863,-369,73,1227,-1456,-2921,-191
1864,-330,48,1132,-1450,-2974,-174
1865,-293,39,1044,-1370,-3001,-189
1866,-271,18,967,-1186,-2997,-160
1867,-256,8,900,-1005,-2990,-168
1868,-247,3,844,-1014,-2884,-170
1869,-216,3,756,-1188,-2724,-119
1870,-178,-8,697,-1399,-2585,-45
1871,-159,-30,639,-1534,-2468,-35
1872,-149,-36,582,-1606,-2337,-45
1873,-134,-49,503,-1581,-2169,-84
1874,-118,-66,468,-1458,-1999,-86
1875,-95,-92,403,-1186,-1867,-103
1876,-89,-120,386,-905,-1804,-181
1877,-48,-121,337,-634,-1792,-261
1878,-17,-107,310,-364,-1790,-341
1879,1,-60,262,36,-1607,-295
1880,-22,-89,298,-122,-1742,-349
1881,22,-24,253,243,-1376,-232
1882,42,-6,245,388,-1111,-76
1883,45,-23,238,398,-841,6
1884,53,-46,207,251,-531,61
1885,81,-42,201,130,-199,84
1886,83,-57,202,103,145,67
1887,77,-60,206,157,448,90
1888,58,-73,256,384,1051,176
1889,72,-73,227,226,780,141
1890,25,-61,320,579,1237,198
1891,32,-65,350,677,1413,250
1892,11,-54,398,810,1594,256
1893,-26,-47,470,900,1797,252
1894,-54,-70,547,952,1938,188
1895,-81,-62,600,929,2028,59
1896,-114,-75,648,862,2079,-140
1897,-157,-34,654,753,2071,-265
1898,-152,-5,675,607,2112,-213
1899,-191,-16,710,454,2270,-99
1900,-203,-53,734,448,2473,63
1901,-225,-109,797,597,2661,82
1902,-262,-115,845,810,2739,-19
1903,-303,-132,939,1165,2645,-175
1904,-293,-92,1015,1519,2501,-300
1905,-295,-72,1111,1902,2319,-394
1906,-318,-4,1192,2193,2143,-488
1907,-338,63,1269,2310,2063,-482
1908,-331,81,1298,2153,2104,-388
1909,-331,85,1426,1460,2499,-250
1910,-356,73,1376,1788,2282,-318
1911,-360,65,1544,1335,2520,-281
1912,-372,99,1634,1298,2436,-388
1913,-369,148,1715,1237,2260,-435
1914,-375,172,1781,1015,1960,-410
1915,-365,178,1822,706,1637,-318
1916,-375,189,1847,398,1338,-273
1917,-395,210,1871,200,1085,-218
1918,-406,208,1884,230,809,-86
1919,-398,167,1877,263,481,-4
1920,-416,152,1853,124,180,-15
1921,-443,120,1829,-141,-62,-101
1922,-469,82,1819,-554,-257,-230
1923,-444,73,1776,-1007,-474,-398
1924,-457,96,1731,-1300,-810,-582
1925,-455,107,1684,-1431,-1128,-615
1926,-432,72,1623,-1298,-1458,-574
1927,-419,48,1536,-1034,-1806,-580
1928,-405,53,1375,-931,-2169,-482
1929,-375,17,1326,-981,-2271,-453
1930,-363,12,1272,-1048,-2335,-527
1931,-352,-7,1246,-1235,-2390,-617
1932,-431,53,1436,-899,-2050,-588
1933,-349,-21,1197,-1497,-2476,-750
1934,-326,-7,1153,-1690,-2603,-914
1935,-304,-34,1069,-1673,-2728,-1101
1936,-278,-63,1017,-1524,-2812,-1330
1937,-289,-22,935,-1343,-2849,-1449
1938,-258,22,896,-1163,-2814,-1340
1939,-210,62,851,-970,-2724,-1076
1940,-180,54,795,-888,-2695,-775
1941,-142,29,726,-954,-2642,-535
1942,-108,13,667,-1013,-2537,-427
1943,-78,22,613,-991,-2417,-326
1944,-54,9,549,-1040,-2218,-203
1945,-13,-27,509,-1087,-1974,-119
1946,-8,-15,493,-1093,-1787,-123
1947,-1,-14,434,-1050,-1617,-131
1948,4,-22,419,-911,-1466,-88
1949,6,-43,403,-741,-1370,-74
1950,0,-51,376,-632,-1275,-127
1951,-8,-61,345,-626,-1122,-179
1952,-29,-84,312,-729,-888,-240
1953,-26,-83,280,-936,-570,-287
1954,-10,-76,260,-1132,-244,-263
1955,-11,-109,225,-1183,69,-238
1956,19,-108,221,-1075,364,-191
1957,32,-115,216,-712,616,-173
1958,30,-123,239,-151,754,-91
1959,16,-146,282,401,805,-64
1960,6,-130,307,845,881,-91
1961,-11,-139,333,1093,1022,-138
1962,-41,-136,393,1188,1178,-168
1963,-34,-112,438,1120,1391,-232
1964,-34,-97,459,1061,1629,-256
1965,-39,-90,498,1060,1774,-207
1966,-65,-74,558,1085,1897,-170
1967,-132,-33,574,1153,1967,-181
1968,-120,-15,583,1229,2088,2
1969,-120,-41,599,1372,2239,164
1970,-153,-77,654,1308,2370,260
1971,-185,-82,672,958,2659,211
1972,-220,-78,712,479,3004,98
1973,-229,-63,798,85,3258,41
1974,-216,-24,879,390,3247,125
1975,-238,1,978,1097,2979,317
1976,-274,-16,1028,1872,2651,444
1977,-314,-2,1085,2390,2499,424
1978,-372,3,1151,2417,2585,327
1979,-434,-15,1194,2007,2774,147
1980,-440,-40,1250,1185,2999,-35
1981,-399,-3,1330,206,3145,-236
1982,-384,80,1397,-325,3135,-285
1983,-397,100,1486,-138,2879,-115
1984,-412,54,1554,720,2460,71
1985,-459,29,1585,1536,2036,106
1986,-508,6,1632,1659,1782,-29
1987,-485,20,1630,1226,1753,-138
1988,-463,14,1687,501,1667,-175
1989,-448,27,1691,-52,1471,-263
1990,-478,51,1722,-114,1147,-347
1991,-483,102,1774,200,827,-297
1992,-490,114,1801,589,534,-123
1993,-496,75,1847,743,253,82
1994,-484,37,1869,530,-89,147
1995,-484,41,1847,155,-484,57
1996,-485,34,1776,-294,-822,-52
1997,-496,36,1757,-642,-1117,-164
1998,-516,4,1678,-835,-1398,-252
1999,-537,-33,1612,-972,-1640,-316
2000,-517,-63,1567,-1091,-1810,-441
2001,-497,-74,1511,-1032,-1996,-599
2002,-469,-52,1481,-806,-2288,-713
2003,-466,-27,1440,-624,-2617,-779
2004,-467,-6,1397,-546,-2933,-746
2005,-421,2,1328,-599,-3183,-658
2006,-407,-32,1251,-640,-3402,-625
2007,-380,-61,1203,-806,-3556,-640
2008,-353,-58,1142,-925,-3685,-681
2009,-320,-61,1072,-919,-3740,-771
2010,-292,-44,1018,-812,-3705,-894
2011,-278,-71,946,-737,-3607,-966
2012,-268,-70,892,-761,-3441,-1011
2013,-257,-65,846,-927,-3240,-1080
2014,-237,-46,814,-1067,-3021,-1088
2015,-210,-21,776,-1175,-2804,-974
2016,-191,1,748,-1239,-2595,-824
2017,-155,-24,715,-1224,-2507,-666
2018,-138,-43,655,-1097,-2529,-572
2019,-121,-43,597,-1065,-2509,-552
2020,-101,-41,533,-1101,-2439,-552
2021,-66,-52,470,-1163,-2316,-560
2022,-37,-45,378,-1247,-2144,-547
2023,-1,-53,286,-1271,-1912,-580
2024,45,-48,251,-1220,-1640,-550
2025,91,-48,191,-931,-1376,-527
2026,88,-35,166,-495,-1115,-488
2027,83,-37,137,-169,-802,-386
2028,95,-34,167,3,-447,-246
2029,95,-32,157,118,-58,-154
2030,78,-43,183,235,276,-82
2031,77,-70,235,362,501,-31
2032,56,-74,263,483,610,-45
2033,62,-74,270,520,712,-93
2034,59,-74,267,456,899,-125
2035,68,-57,272,372,1180,-101
2036,65,-70,286,423,1471,-76
2037,31,-61,316,673,1743,-31
2038,32,-38,364,979,1985,67
2039,17,-23,399,1351,2147,178
2040,-37,-54,459,1608,2280,256
2041,-77,-50,521,1573,2415,258
2042,-100,-23,567,1403,2573,182
2043,-137,5,623,1110,2733,121
2044,-206,-2,667,743,2911,123
2045,-215,-11,706,468,3169,211
2046,-250,-30,790,356,3358,256
2047,-288,-47,866,353,3413,284
2048,-330,-60,921,499,3229,350
2049,-347,-77,981,720,2940,377
2050,-333,-92,1014,778,2706,284
2051,-342,-68,1049,726,2504,137
2052,-333,-46,1080,694,2510,35
2053,-335,-9,1140,876,2706,35
2054,-317,-23,1112,765,2577,8
2055,-364,-17,1203,952,2866,141
2056,-360,-33,1327,997,2979,155
2057,-399,29,1473,1157,2948,131
2058,-446,69,1609,1298,2768,217
2059,-456,70,1699,1382,2524,272
2060,-443,92,1732,1315,2284,262
2061,-415,81,1780,901,2092,252
2062,-411,98,1785,341,1952,229
2063,-428,70,1806,44,1797,282
2064,-441,33,1819,171,1612,295
2065,-467,15,1871,462,1444,190
2066,-497,69,1934,698,1229,133
2067,-534,99,2020,735,934,248
2068,-552,84,2044,503,506,325
2069,-550,54,2007,54,-13,309
2070,-549,58,1949,-491,-572,209
2071,-547,48,1841,-843,-923,145
2072,-513,30,1769,-1023,-1169,127
2073,-514,-3,1695,-1091,-1392,69
2074,-518,-28,1656,-1040,-1632,-23
2075,-510,-21,1609,-919,-1878,-154
2076,-510,-9,1557,-780,-2152,-257
2077,-500,-9,1490,-757,-2408,-273
2078,-496,9,1444,-878,-2648,-273
2079,-476,13,1389,-1044,-2882,-197
2080,-471,15,1310,-1329,-3081,-121
2081,-416,-6,1221,-1644,-3226,-90
2082,-402,-9,1127,-1823,-3369,-105
2083,-400,-32,1014,-1736,-3484,-146
2084,-385,-48,937,-1523,-3496,-129
2085,-329,-73,859,-1351,-3431,-88
2086,-287,-93,796,-1159,-3298,-101
2087,-265,-92,748,-986,-3167,-172
2088,-234,-65,714,-823,-3064,-252
2089,-210,-53,697,-718,-2978,-304
2090,-178,-55,681,-648,-2884,-291
2091,-148,-66,678,-691,-2914,-326
2092,-132,-24,628,-816,-3037,-375
2093,-97,2,581,-933,-3097,-263
2094,-50,-2,527,-837,-3130,-95
2095,-25,-38,448,-648,-3054,43
2096,-13,-64,383,-511,-2787,77
2097,15,-54,380,-480,-2363,119
2098,53,-45,353,-478,-1997,153
2099,25,-55,326,-527,-1703,184
2100,10,-75,306,-579,-1402,198
2101,23,-104,268,-601,-1107,203
2102,9,-97,291,-652,-874,159
2103,18,-99,294,-640,-685,71
2104,11,-91,268,-448,-554,51
2105,23,-88,256,-109,-492,116
2106,33,-100,245,169,-365,202
2107,49,-110,212,327,-167,260
2108,44,-122,193,343,110,262
2109,63,-129,219,239,473,243
2110,61,-133,232,218,835,174
2111,49,-119,276,288,1098,112
2112,42,-111,307,444,1311,86
2113,34,-94,316,597,1456,112
2114,11,-81,360,712,1585,174
2115,-11,-64,403,856,1713,233
2116,-57,-57,421,1073,1831,317
2117,-91,-65,452,1083,2069,368
2118,-106,-84,503,884,2417,375
2119,-130,-90,543,600,2747,342
2120,-142,-89,615,272,2989,334
2121,-144,-91,668,36,3092,403
2122,-163,-83,685,1,3102,493
2123,-198,-111,713,245,3042,582
2124,-239,-140,799,507,3001,623
2125,-288,-131,826,628,3040,592
2126,-310,-146,872,600,3167,565
2127,-304,-148,957,522,3395,573
2128,-329,-149,1058,479,3504,494
2129,-361,-141,1175,516,3524,446
2130,-375,-130,1274,624,3436,412
2131,-419,-106,1359,888,3243,381
2132,-424,-87,1496,1239,3061,327
2133,-450,-27,1583,1507,2940,295
2134,-431,-15,1654,1483,2809,334
2135,-448,-16,1754,1239,2739,385
2136,-455,-10,1844,886,2727,364
2137,-451,2,1964,534,2594,305
2138,-455,27,2048,434,2286,260
2139,-477,14,2048,481,1856,227
2140,-503,8,2048,536,1385,166
2141,-514,6,2048,567,889,94
2142,-526,3,2048,425,378,20
2143,-535,-4,2048,229,-80,-64
2144,-527,23,2048,173,-488,-117
2145,-542,42,2015,239,-867,-125
2146,-559,31,1941,327,-1242,-80
2147,-538,13,1894,294,-1572,-56
2148,-530,15,1825,91,-1921,-121
2149,-512,45,1755,-136,-2205,-172
2150,-520,39,1653,-333,-2417,-134
2151,-488,29,1562,-530,-2624,-74
2152,-487,21,1477,-702,-2779,-33
2153,-467,7,1400,-757,-2902,10
2154,-441,12,1331,-601,-3037,18
2155,-432,3,1229,-470,-3140,20
2156,-439,-55,1201,-419,-3246,18
2157,-411,-75,1162,-423,-3343,-125
2158,-387,-74,1069,-558,-3497,-314
2159,-348,-48,994,-638,-3624,-472
2160,-324,-31,943,-671,-3646,-543
2161,-309,-17,892,-636,-3642,-599
2162,-284,3,829,-601,-3613,-535
2163,-232,9,780,-614,-3548,-359
2164,-207,1,701,-620,-3423,-183
2165,-172,-27,661,-646,-3251,-48
2166,-141,-57,598,-691,-3070,26
2167,-151,-64,560,-796,-2884,35
2168,-94,-74,542,-923,-2658,-7
2169,-57,-74,503,-942,-2503,-86
2170,-25,-77,497,-884,-2515,-191
2171,5,-46,430,-771,-2587,-283
2172,34,-47,393,-550,-2621,-340
2173,60,-46,334,-271,-2613,-377
2174,58,-42,290,-34,-2496,-453
2175,78,-23,235,128,-2281,-504
2176,112,-28,219,173,-2023,-509
2177,122,-4,203,218,-1759,-539
2178,123,-2,158,194,-1474,-507
2179,135,-25,160,54,-1113,-459
2180,126,-35,161,-157,-761,-445
2181,118,-38,155,-409,-421,-521
2182,131,-21,164,-515,-122,-588
2183,117,-13,164,-335,106,-582
2184,106,-14,160,34,321,-500
2185,107,-37,223,509,510,-396
2186,111,-71,263,960,592,-423
2187,92,-57,278,1145,612,-591
2188,64,-77,318,1044,729,-750
2189,90,-82,370,768,919,-1007
2190,96,-25,378,509,1110,-1302
2191,54,20,412,470,1354,-1480
2192,42,59,460,595,1639,-1463
2193,45,107,511,780,1938,-1324
2194,-19,64,626,970,2108,-1111
2195,-32,17,731,966,2256,-974
2196,-93,-38,827,579,2344,-1066
2197,-132,-56,912,26,2278,-1367
2198,-137,26,946,-511,2268,-1531
2199,-98,88,958,-1013,2350,-1300
2200,-114,107,983,-1191,2426,-664
2201,-123,44,1018,-558,2518,215
2202,-160,-72,1066,270,2577,887
2203,-231,-189,1108,552,2655,1051
2204,-208,-236,1181,149,2856,869
2205,-229,-216,1224,-415,2952,578
2206,-222,-216,1296,-899,3086,479
2207,-217,-189,1359,-925,3163,508
2208,-197,-196,1433,-698,3118,739
2209,-189,-211,1472,-233,3008,909
2210,-197,-215,1532,204,2889,944
2211,-239,-237,1597,407,2817,807
2212,-247,-216,1662,507,2708,631
2213,-240,-205,1721,351,2487,444
2214,-228,-194,1740,15,2249,295
2215,-227,-200,1794,-153,2047,149
2216,-242,-144,1860,-136,1844,34
2217,-253,-109,1954,24,1606,116
2218,-275,-121,2016,286,1223,256
2219,-292,-149,2018,495,786,258
2220,-319,-154,2000,376,356,202
2221,-328,-165,1954,22,10,137
2222,-349,-188,1854,-478,-581,47
2223,-327,-178,1920,-358,-290,135
2224,-393,-210,1798,-444,-839,-82
2225,-403,-199,1767,-478,-1107,-257
2226,-389,-208,1700,-482,-1445,-461
2227,-393,-218,1650,-487,-1845,-636
2228,-386,-174,1572,-357,-2212,-806
2229,-374,-120,1495,-181,-2558,-818
2230,-364,-110,1417,-110,-2820,-732
2231,-319,-103,1319,-179,-2935,-681
2232,-300,-111,1234,-312,-2992,-730
2233,-277,-124,1162,-534,-2997,-820
2234,-255,-101,1103,-745,-2992,-945
2235,-237,-94,1052,-790,-2962,-1066
2236,-225,-97,1024,-726,-2972,-1170
2237,-203,-101,993,-597,-3064,-1281
2238,-181,-76,936,-462,-3206,-1435
2239,-166,-61,873,-474,-3275,-1570
2240,-124,-41,812,-491,-3253,-1611
2241,-100,0,753,-448,-3220,-1564
2242,-74,14,680,-280,-3140,-1496
2243,-58,12,667,-247,-2960,-1408
2244,-28,12,641,-376,-2755,-1347
2245,-20,23,642,-628,-2597,-1367
2246,14,26,622,-1062,-2521,-1476
2247,34,64,552,-1380,-2515,-1548
2248,42,82,471,-1493,-2474,-1513
2249,64,106,414,-1415,-2343,-1359
2250,80,102,371,-1210,-2156,-1158
2251,106,109,334,-952,-1984,-939
2252,135,80,286,-722,-1781,-734
2253,143,69,254,-583,-1583,-568
2254,145,55,224,-382,-1378,-484
2255,116,40,195,-255,-1169,-457
2256,104,31,162,-317,-898,-500
2257,98,49,155,-491,-581,-492
2258,94,37,118,-640,-238,-441
2259,116,33,115,-640,77,-318
2260,115,18,105,-517,364,-177
2261,86,-5,150,-368,583,-47
2262,88,-24,141,-321,838,4
2263,81,-55,156,-288,1170,6
2264,81,-62,176,-95,1577,-101
2265,44,-83,248,169,1989,-256
2266,-3,-109,292,319,2315,-500
2267,-26,-120,369,204,2659,-716
2268,-35,-105,419,-89,2969,-894
2269,-25,-93,460,-401,3301,-865
2270,-29,-27,507,-521,3545,-861
2271,8,24,521,-491,3811,-386
2272,-44,-110,605,-81,4026,-76
2273,-95,-163,637,522,4147,37
2274,-208,-279,887,1118,4110,-121
2275,-175,-268,880,1183,3995,-502
2276,-246,-297,956,755,4036,-830
2277,-238,-239,1054,351,4051,-1033
2278,-291,-250,1143,142,4096,-1041
2279,-298,-219,1226,270,4104,-908
2280,-318,-321,1282,934,3985,-722
2281,-297,-292,1481,1532,3620,-740
2282,-297,-262,1609,1716,3057,-841
2283,-305,-252,1658,1751,2467,-941
2284,-279,-244,1714,1651,2120,-933
2285,-274,-283,1809,1522,1936,-998
2286,-291,-237,1874,1362,1670,-1183
2287,-263,-166,1890,1126,1569,-1287
2288,-237,-129,1937,878,1655,-1283
2289,-231,-102,1978,518,1665,-1232
2290,-206,-77,2016,374,1553,-1025
2291,-273,-63,2048,335,1198,-765
2292,-258,-93,2048,372,762,-562
2293,-270,-126,2048,313,133,-449
2294,-287,-158,2035,120,-517,-472
2295,-304,-182,1919,-179,-1040,-545
2296,-295,-215,1836,-392,-1371,-593
2297,-301,-215,1728,-470,-1611,-677
2298,-280,-192,1611,-396,-1753,-705
2299,-281,-206,1493,-228,-1693,-629
2300,-292,-208,1463,-11,-1617,-562
2301,-268,-192,1457,450,-1789,-601
2302,-249,-156,1405,1038,-2247,-625
2303,-245,-141,1310,1177,-2667,-580
2304,-228,-119,1238,1075,-2882,-478
2305,-204,-138,1157,979,-2962,-369
2306,-205,-135,1081,782,-3039,-404
2307,-171,-125,984,395,-3023,-527
2308,-166,-93,908,50,-2831,-625
2309,-150,-84,883,-189,-2519,-664
2310,-120,-105,886,-138,-2394,-695
2311,-110,-98,878,298,-2605,-832
2312,-94,-40,830,806,-3005,-886
2313,-93,6,787,1063,-3205,-775
2314,-68,-32,712,1102,-3158,-621
2315,-47,-55,579,927,-2667,-638
2316,-85,26,604,718,-2062,-584
2317,-35,41,620,362,-1871,-382
2318,-22,44,580,-249,-1894,-320
2319,-11,93,486,-655,-1898,-283
2320,-13,138,411,-642,-1703,-15
2321,45,112,399,-501,-1492,354
2322,55,80,356,-423,-1449,660
2323,16,14,304,-446,-1437,881
2324,27,-29,237,-497,-1343,873
2325,32,-23,193,-778,-1156,776
2326,48,5,144,-1093,-841,627
2327,71,-8,115,-1257,-427,647
2328,100,3,91,-1052,57,717
2329,89,18,134,-710,575,856
2330,92,-4,181,-382,952,1039
2331,58,-20,249,-23,1042,1137
2332,38,18,265,376,1049,1147
2333,35,4,301,520,1172,1182
2334,27,-32,311,515,1374,1213
2335,-2,-19,345,415,1665,1116
2336,-27,-16,372,50,2057,1012
2337,-7,-19,405,-427,2514,1078
2338,16,17,491,-685,2938,1164
2339,-19,14,577,-642,3137,1399
2340,-121,53,691,-489,3196,1856
2341,-147,23,789,-226,3256,2787
2342,-138,-116,842,159,3075,3430
2343,-203,-254,889,245,2905,3410
2344,-238,-303,903,272,2932,2938
2345,-245,-268,922,99,3227,2469
2346,-228,-221,990,-189,3624,2301
2347,-230,-195,1048,-292,3911,2397
2348,-307,-174,1221,-212,4030,2502
2349,-333,-64,1425,390,3924,2897
2350,-294,-87,1562,1343,3366,3450
2351,-367,-229,1657,1985,2698,3467
2352,-383,-291,1702,1946,2301,2772
2353,-439,-180,1705,1184,2249,1994
2354,-395,28,1694,145,2588,2077
2355,-271,39,1773,-304,2940,2803
2356,-267,-73,1838,-396,2835,3123
2357,-368,-148,1911,3,2489,2887
2358,-412,-171,2003,481,2055,2524
2359,-431,-153,2048,677,1532,2084
2360,-432,-118,2048,780,883,1559
2361,-436,-49,2048,765,235,1168
2362,-436,16,2048,667,-392,975
2363,-437,42,2048,390,-994,889
2364,-500,74,1951,-5,-1427,860
2365,-488,79,1797,-497,-1415,1092
2366,-406,4,1725,-761,-1208,1280
2367,-434,-50,1682,-917,-1199,1190
2368,-472,-85,1653,-1066,-1376,922
2369,-456,-60,1641,-1060,-1699,563
2370,-440,-11,1575,-956,-2240,360
2371,-434,-7,1499,-771,-2847,246
2372,-427,2,1419,-484,-3281,221
2373,-421,40,1293,-216,-3515,313
2374,-399,-14,1223,-228,-3701,535
2375,-378,-66,1098,-151,-3773,567
2376,-347,-17,993,69,-3650,582
2377,-322,49,910,177,-3376,672
2378,-264,-76,894,-42,-3165,877
2379,-228,-139,884,69,-2955,662
2380,-213,-127,858,214,-2927,243
2381,-224,-67,838,143,-2925,-213
2382,-196,12,820,-232,-2953,-425
2383,-163,58,755,-603,-3037,-379
2384,-108,35,695,-857,-3093,-291
2385,-64,2,631,-831,-3158,-287
2386,-45,-19,547,-558,-3187,-408
2387,-41,-24,486,-370,-3111,-535
2388,-12,-38,435,-319,-2861,-660
2389,24,-46,388,-357,-2499,-757
2390,43,-44,367,-394,-2119,-886
2391,28,22,346,-380,-1720,-922
2392,42,88,349,-325,-1365,-648
2393,68,109,377,-175,-1109,-166
2394,97,103,380,48,-986,364
2395,117,87,360,225,-992,778
2396,145,38,312,204,-997,971
2397,142,5,282,99,-921,930
2398,145,2,215,-116,-755,766
2399,152,0,168,-400,-472,623
2400,166,4,119,-575,-70,498
2401,143,-23,94,-597,340,368
2402,125,-26,102,-456,760,325
2403,130,-27,94,-255,1176,385
2404,144,-42,131,-95,1501,407
2405,128,-28,147,46,1721,377
2406,98,-45,240,268,1829,299
2407,73,-32,250,522,1879,203
2408,50,6,282,618,2003,172
2409,28,20,305,618,2194,157
2410,-6,34,342,643,2477,159
2411,-36,53,386,718,2872,299
2412,-58,41,440,702,3303,446
2413,-105,-35,543,710,3674,436
2414,-184,-90,743,950,3971,-90
2415,-157,-71,654,819,3907,250
2416,-248,-84,827,903,3975,-474
2417,-308,-58,995,702,3909,-779
2418,-346,51,1099,370,3710,-881
2419,-362,121,1118,-107,3485,-519
2420,-367,65,1140,-468,3315,92
2421,-364,-45,1185,-284,3335,569
2422,-346,-95,1252,448,3403,846
2423,-363,-130,1351,1145,3415,854
2424,-456,-129,1488,1448,3493,631
2425,-491,-137,1668,1481,3544,309
2426,-451,-38,1760,1386,3309,-52
2427,-471,46,1917,1296,2895,-131
2428,-449,77,1990,1186,2241,-90
2429,-475,99,1984,1263,1577,39
2430,-455,55,1947,1247,1010,254
2431,-462,1,1912,1140,719,293
2432,-459,1,1886,845,672,174
2433,-453,24,1872,352,706,6
2434,-457,62,1902,18,665,-121
2435,-467,117,1947,38,508,-88
2436,-461,164,1971,126,157,37
2437,-511,247,1958,155,-330,422
2438,-520,256,1941,63,-974,1082
2439,-611,389,1820,-179,-1429,2047
2440,-519,213,1704,-827,-1617,3200
2441,-451,0,1564,-1493,-1718,3354
2442,-331,-162,1352,-1937,-1925,2692
2443,-353,-175,1194,-2099,-2097,1754
2444,-385,-89,1080,-2028,-1937,1067
2445,-333,-41,1068,-1683,-1675,828
2446,-360,5,1084,-976,-1558,834
2447,-344,77,1089,-401,-1622,1112
2448,-297,36,1096,-11,-1915,1418
2449,-308,-13,1087,399,-2355,1473
2450,-313,-19,1054,462,-2796,1168
2451,-316,21,973,196,-2966,819
2452,-291,58,889,-343,-2863,565
2453,-220,39,783,-935,-2578,395
2454,-172,14,710,-1191,-2242,219
2455,-189,9,656,-1202,-1964,121
2456,-171,-14,657,-1079,-1710,78
2457,-127,-30,643,-855,-1611,-35
2458,-108,-2,667,-521,-1716,-136
2459,-105,6,672,-19,-1974,-105
2460,-93,14,670,382,-2255,-101
2461,-84,10,646,485,-2486,-193
2462,-69,-9,604,397,-2548,-369
2463,-68,19,536,206,-2331,-521
2464,-65,66,507,-218,-1837,-480
2465,-24,68,483,-792,-1294,-433
2466,14,93,449,-1296,-890,-476
2467,7,176,391,-1601,-511,-257
2468,57,166,362,-1808,-99,186
2469,81,78,341,-1786,88,491
2470,81,99,287,-1386,118,756
2471,123,62,255,-913,-25,1086
2472,129,4,225,-357,-134,1295
2473,118,-40,206,202,-87,1280
2474,72,-3,175,604,147,1284
2475,67,89,189,827,653,1479
2476,81,148,196,1020,1231,2010
2477,98,59,260,1284,1661,2549
2478,53,-30,297,1462,2086,2776
2479,21,-113,338,1518,2483,2608
2480,-73,-100,397,1628,2766,2174
2481,-141,-54,479,1446,3096,1748
2482,-159,-19,564,1089,3512,1305
2483,-148,40,576,571,3932,1036
2484,-217,31,683,53,4254,868
2485,-263,42,743,-23,4360,694
2486,-295,54,827,245,4102,721
2487,-351,5,892,624,3637,768
2488,-427,-57,977,1034,3065,639
2489,-468,-87,1036,1266,2571,258
2490,-511,-43,1046,1083,2321,-99
2491,-542,12,1072,784,2241,-328
2492,-528,18,1134,708,2344,-482
2493,-491,61,1176,848,2333,-582
2494,-525,137,1195,1116,2149,-507
2495,-481,141,1267,1384,1999,-154
2496,-445,109,1350,1608,1809,71
2497,-421,110,1394,1723,1629,-2
2498,-452,111,1445,1641,1389,-162
2499,-462,129,1499,1501,1229,-300
2500,-468,183,1582,1444,1127,-498
2501,-475,263,1624,1356,1079,-437
2502,-451,241,1679,1136,1061,-334
2503,-461,257,1733,815,1102,-259
2504,-482,245,1777,427,1108,-203
2505,-443,245,1847,46,1038,-173
2506,-429,232,1892,-165,756,-142
2507,-474,246,1926,-152,335,-146
2508,-512,206,1941,-1,-123,-144
2509,-554,247,1922,229,-537,-220
2510,-562,274,1912,180,-812,-136
2511,-561,288,1909,-142,-1039,32
2512,-543,274,1870,-534,-1312,141
2513,-539,261,1804,-780,-1628,145
2514,-533,249,1719,-1015,-1999,166
2515,-545,237,1607,-1173,-2308,157
2516,-534,236,1525,-1284,-2492,215
2517,-509,218,1418,-1361,-2605,258
2518,-489,168,1322,-1476,-2677,244
2519,-454,149,1239,-1579,-2757,194
2520,-454,150,1141,-1581,-2831,170
2521,-421,135,1074,-1548,-2826,131
2522,-381,119,1026,-1566,-2800,77
2523,-374,139,969,-1708,-2783,36
2524,-341,168,938,-1954,-2742,98
2525,-296,168,901,-2103,-2798,219
2526,-274,124,819,-2148,-3052,385
2527,-268,74,722,-2105,-3367,555
2528,-237,25,612,-1937,-3476,664
2529,-214,-25,506,-1732,-3445,604
2530,-196,-67,412,-1572,-3292,473
2531,-160,-84,346,-1480,-2968,278
2532,-120,-72,313,-1380,-2474,88
2533,-93,-56,315,-1288,-1994,-58
2534,-46,-55,321,-1259,-1624,-181
2535,-33,-21,325,-1238,-1394,-218
2536,-21,-9,331,-1169,-1312,-91
2537,-4,-57,318,-923,-1234,-19
2538,-15,-64,302,-765,-1158,-74
2539,-48,-18,268,-657,-1027,-91
2540,-37,-29,229,-515,-798,0
2541,-18,-92,210,-515,-523,-80
2542,-29,-140,189,-493,-259,-213
2543,-28,-183,175,-421,36,-336
2544,-29,-175,187,-474,336,-574
2545,-33,-158,203,-454,579,-855
2546,32,-63,246,-298,731,-920
2547,33,-65,275,9,889,-728
2548,62,-67,366,229,891,-785
2549,62,-9,353,542,860,-843
2550,25,-41,372,862,866,-683
2551,-23,-99,406,970,1002,-875
2552,-48,-74,445,802,1377,-1109
2553,-67,-57,456,579,1860,-1156
2554,-117,-35,536,313,2389,-1201
2555,-145,58,563,-155,2860,-1105
2556,-117,103,646,-159,3219,-521
2557,-94,81,697,349,3325,180
2558,-109,25,784,1184,3083,737
2559,-149,-96,822,2132,2655,889
2560,-225,-149,841,2649,2331,516
2561,-293,-129,875,2694,2340,41
2562,-332,-119,954,2413,2635,-451
2563,-386,-96,1012,1897,3022,-865
2564,-420,8,1081,1409,3354,-1259
2565,-469,159,1146,1206,3657,-1058
2566,-408,151,1293,1079,3854,-449
2567,-394,114,1400,1079,3690,-11
2568,-406,90,1477,1087,3315,317
2569,-419,44,1513,1095,2866,549
2570,-435,-21,1507,1112,2499,641
2571,-481,-21,1524,1237,2317,483
2572,-506,-17,1577,1345,2278,297
2573,-537,26,1643,1302,2262,121
2574,-555,49,1709,1145,2229,-91
2575,-553,64,1762,897,2153,-158
2576,-580,112,1825,714,2014,-129
2577,-584,109,1870,431,1747,-91
2578,-589,100,1900,118,1305,-47
2579,-646,63,1872,-191,801,-101
2580,-670,-6,1828,-431,424,-334
2581,-676,-34,1773,-548,42,-513
2582,-713,-42,1679,-517,-390,-662
2583,-704,-28,1581,-405,-681,-785
2584,-696,-47,1527,-210,-898,-847
2585,-686,-43,1475,-81,-1095,-943
2586,-664,-11,1427,-181,-1214,-986
2587,-615,19,1362,-452,-1380,-910
2588,-548,-28,1274,-1364,-1822,-1025
2589,-589,-28,1303,-984,-1609,-914
2590,-545,1,1197,-1396,-2029,-1287
2591,-544,0,1105,-1454,-2115,-1466
2592,-545,21,1039,-1456,-2156,-1541
2593,-480,21,973,-1275,-1994,-1416
2594,-427,46,956,-905,-1904,-1103
2595,-407,29,926,-351,-2009,-875
2596,-385,3,891,69,-2095,-699
2597,-342,-87,884,165,-2205,-664
2598,-232,-163,867,-444,-2468,-1386
2599,-337,-15,821,-1196,-2937,-2138
2600,-378,89,700,-1306,-2974,-2474
2601,-351,27,591,-1103,-2593,-2291
2602,-330,135,520,-1038,-1865,-1898
2603,-254,68,466,-1218,-1328,-1281
2604,-161,17,438,-1124,-831,-955
2605,-111,24,448,-681,-710,-763
2606,-47,-8,492,-93,-871,-662
2607,-43,-32,475,265,-1119,-715
2608,-20,8,460,-81,-1328,-1054
2609,-116,85,443,-634,-1714,-910
2610,-131,28,401,-784,-1453,-759
2611,-96,9,379,-460,-1039,-582
2612,-28,13,344,-136,-669,-353
2613,-23,37,352,-214,-410,-191
2614,-32,31,402,-341,-216,26
2615,-53,37,477,-368,-91,321
2616,-43,44,517,-230,-54,692
2617,20,19,500,-249,-76,944
2618,-25,-25,511,-263,53,807
2619,-5,-29,530,-107,215,619
2620,-20,10,527,104,393,381
2621,-87,42,518,335,657,280
2622,-102,70,550,532,1088,514
2623,-53,35,579,1058,1479,866
2624,-23,-14,601,1638,1721,1014
2625,-58,-42,635,1630,1745,862
2626,-153,4,652,1171,1682,674
2627,-181,-13,644,782,1727,727
2628,-214,-63,674,491,1862,723
2629,-254,-81,715,225,2049,594
2630,-292,-81,754,-85,2254,410
2631,-314,-54,778,-247,2493,336
2632,-324,-22,828,-224,2698,438
2633,-354,-51,909,-34,2762,666
2634,-374,-93,1034,147,2647,791
2635,-398,-105,1095,331,2409,723
2636,-412,-105,1140,661,2110,565
2637,-434,-87,1191,960,1799,461
2638,-445,-104,1256,1163,1604,418
2639,-466,-117,1293,1382,1413,270
2640,-533,-106,1346,1585,1258,112
2641,-554,-96,1374,1768,1282,28
2642,-559,-46,1450,1890,1420,32
2643,-561,-9,1539,1841,1477,112
2644,-550,-18,1680,1819,1395,151
2645,-570,12,1790,1729,1104,82
2646,-592,71,1849,1534,733,-6
2647,-600,99,1918,1136,331,-56
2648,-588,79,1889,665,-81,-95
2649,-627,77,1845,194,-490,-119
2650,-621,50,1745,-151,-722,-109
2651,-608,48,1662,-374,-861,-11
2652,-584,14,1638,-487,-1042,118
2653,-550,-32,1609,-372,-1283,69
2654,-554,-29,1582,-155,-1609,-68
2655,-568,-16,1542,-52,-1941,-179
2656,-560,-8,1530,-113,-2181,-269
2657,-539,1,1472,-265,-2415,-375
2658,-524,12,1408,-367,-2611,-492
2659,-510,44,1346,-435,-2726,-558
2660,-465,47,1290,-581,-2734,-519
2661,-461,30,1223,-876,-2732,-480
2662,-415,15,1168,-1101,-2718,-420
2663,-389,22,1096,-1253,-2675,-420
2664,-368,6,1057,-1259,-2695,-410
2665,-349,-9,1009,-1050,-2679,-441
2666,-331,-9,987,-814,-2660,-488
2667,-332,10,942,-712,-2624,-535
2668,-318,20,917,-667,-2599,-490
2669,-288,12,882,-648,-2611,-394
2670,-271,-4,851,-646,-2644,-349
2671,-238,-26,814,-636,-2730,-351
2672,-219,-16,765,-650,-2804,-402
2673,-195,-13,707,-765,-2816,-449
2674,-193,-2,631,-915,-2710,-443
2675,-139,0,568,-1025,-2562,-412
2676,-89,-27,518,-1023,-2373,-412
2677,-46,-2,467,-986,-2201,-482
2678,-46,56,414,-1038,-2072,-457
2679,-33,46,377,-915,-1943,-297
2680,7,22,330,-542,-1789,-109
2681,43,-29,283,-140,-1675,-39
2682,51,-56,244,71,-1521,-48
2683,47,-60,233,198,-1259,-140
2684,38,-66,227,284,-980,-256
2685,16,-82,247,221,-728,-418
2686,3,-83,245,-54,-464,-572
2687,30,-36,262,-273,-185,-656
2688,23,22,264,-283,61,-547
2689,32,25,292,-62,200,-320
2690,58,-11,309,456,276,-54
2691,74,-52,327,1034,301,39
2692,35,-69,334,1255,340,-47
2693,14,-89,346,1137,518,-201
2694,-3,-61,375,772,809,-353
2695,-16,-6,356,423,1202,-369
2696,-23,6,398,135,1616,-289
2697,-27,17,425,-31,2061,-154
2698,-40,23,490,48,2413,-9
2699,-70,-4,569,403,2565,119
2700,-114,-63,659,739,2569,114
2701,-140,-85,717,635,2536,-39
2702,-158,-58,762,194,2479,-275
2703,-149,13,779,-195,2491,-363
2704,-140,82,790,-259,2543,-175
2705,-162,92,831,141,2700,159
2706,-190,60,903,850,2946,510
2707,-210,21,987,1702,3118,676
2708,-266,-58,1118,2241,3184,528
2709,-335,-61,1274,2317,3309,280
2710,-351,26,1422,1921,3401,86
2711,-424,93,1515,1241,3407,39
2712,-452,103,1644,655,3288,243
2713,-424,66,1769,633,3075,436
2714,-421,50,1849,977,2792,448
2715,-442,53,1895,1202,2387,342
2716,-464,20,1927,1270,2040,168
2717,-479,16,1965,1120,1799,-68
2718,-477,42,2040,780,1538,-347
2719,-474,91,2048,403,1122,-539
2720,-485,211,2048,61,692,-507
2721,-505,223,2048,-154,245,-123
2722,-500,162,2048,-17,-261,272
2723,-479,87,2018,161,-695,336
2724,-516,64,1902,-124,-1080,221
2725,-526,72,1820,-736,-1304,141
2726,-492,44,1735,-1216,-1388,12
2727,-475,31,1670,-1406,-1511,-99
2728,-486,40,1582,-1406,-1722,-191
2729,-483,51,1531,-1283,-1957,-138
2730,-465,63,1470,-1074,-2244,-23
2731,-426,15,1373,-831,-2564,112
2732,-417,11,1281,-634,-2812,137
2733,-414,-22,1193,-634,-2937,129
2734,-370,-43,1115,-765,-2955,71
2735,-343,-54,1033,-863,-2915,-58
2736,-324,-51,954,-931,-2874,-177
2737,-292,-50,891,-1001,-2810,-302
2738,-245,-50,841,-1036,-2718,-394
2739,-207,-51,795,-927,-2630,-511
2740,-175,-33,768,-745,-2656,-638
2741,-171,31,750,-577,-2746,-644
2742,-144,15,703,-472,-2878,-558
2743,-139,12,639,-374,-2951,-504
2744,-116,-13,578,-369,-2921,-400
2745,-98,-38,529,-326,-2845,-414
2746,-113,-32,469,-398,-2681,-431
2747,-86,4,411,-544,-2339,-357
2748,-57,-13,384,-722,-1960,-197
2749,-26,-27,370,-788,-1615,-111
2750,-21,-48,375,-671,-1388,-109
2751,-6,-81,363,-425,-1302,-113
2752,0,-80,338,-179,-1273,-170
2753,27,-92,312,-81,-1290,-341
2754,-1,-44,265,-83,-1292,-545
2755,-9,3,207,-136,-1179,-541
2756,0,3,158,-220,-958,-445
2757,19,-19,114,-316,-609,-289
2758,13,-24,99,-318,-175,-72
2759,45,-46,89,-243,327,86
2760,58,-79,111,-181,797,100
2761,73,-74,150,153,1129,-21
2762,58,-53,210,538,1297,-181
2763,17,-37,237,741,1399,-256
2764,31,-24,322,794,1553,-248
2765,44,10,370,960,1696,-310
2766,-7,108,396,1161,1844,-291
2767,-58,122,453,1176,2126,-52
2768,-78,61,495,1001,2522,202
2769,-81,8,546,721,2838,315
2770,-121,-38,607,561,3020,184
2771,-156,-66,710,514,3077,-72
2772,-219,-61,775,557,3120,-373
2773,-254,-41,866,655,3137,-601
2774,-301,69,958,663,3126,-595
2775,-336,92,1019,626,3116,-211
2776,-352,45,1107,745,3102,153
2777,-338,-13,1187,1137,3131,299
2778,-335,-37,1306,1524,3141,164
2779,-364,20,1446,1544,3059,-80
2780,-326,87,1570,1368,2920,-175
2781,-293,127,1679,1077,2643,-250
2782,-322,169,1731,716,2450,-172
2783,-373,227,1816,348,2413,59
2784,-360,174,1904,100,2504,475
2785,-339,109,1954,214,2501,668
2786,-399,55,1987,346,2379,639
2787,-424,20,2048,428,2172,424
2788,-431,38,2048,288,1807,108
2789,-487,117,2048,-103,1307,-144
2790,-544,152,2048,-523,825,-150
2791,-527,110,2048,-755,329,14
2792,-523,71,2023,-775,-285,116
2793,-542,32,1922,-728,-886,143
2794,-555,46,1800,-665,-1279,172
2795,-529,49,1702,-687,-1415,250
2796,-489,8,1607,-818,-1515,348
2797,-462,0,1533,-929,-1638,274
2798,-450,13,1455,-1021,-1804,157
2799,-440,-18,1397,-1031,-2039,110
2800,-406,-30,1363,-956,-2339,-6
2801,-381,-19,1307,-923,-2634,-179
2802,-373,13,1249,-884,-2863,-353
2803,-372,40,1183,-919,-3048,-398
2804,-339,22,1103,-995,-3216,-338
2805,-315,3,1012,-972,-3355,-330
2806,-306,13,904,-931,-3365,-369
2807,-303,34,830,-962,-3265,-287
2808,-244,6,793,-911,-3048,-93
2809,-166,-24,747,-820,-2890,-7
2810,-181,-37,726,-716,-2884,-29
2811,-176,-62,677,-591,-2873,-41
2812,-143,-60,647,-509,-2777,-50
2813,-154,-46,646,-460,-2656,-125
2814,-138,-27,620,-595,-2509,-78
2815,-100,-48,593,-716,-2320,16
2816,-62,-72,555,-759,-2230,45
2817,-85,-96,480,-786,-2148,0
2818,-57,-120,436,-855,-1972,-74
2819,-60,-152,393,-1001,-1779,-185
2820,-51,-195,369,-1130,-1580,-392
2821,-33,-210,342,-1228,-1423,-675
2822,-28,-218,317,-1197,-1332,-1006
2823,-1,-236,298,-1007,-1349,-1363
2824,16,-234,265,-720,-1384,-1802
2825,1,-189,259,-617,-1429,-2252
2826,4,-125,232,-523,-1392,-2582
2827,11,-65,191,-265,-1296,-2775
2828,21,0,154,-11,-1117,-2683
2829,56,32,143,350,-857,-2375
2830,81,61,154,813,-621,-1947
2831,107,120,158,1161,-248,-1382
2832,96,79,168,1247,129,-824
2833,89,41,187,1198,620,-375
2834,80,15,220,1091,1194,-150
2835,70,9,296,999,1702,-47
2836,26,0,354,1036,2104,2
2837,-4,-8,416,1124,2430,94
2838,-37,-33,484,1059,2710,209
2839,-83,-10,560,917,2975,223
2840,-106,15,607,764,3237,354
2841,-122,82,674,712,3440,553
2842,-155,116,713,751,3604,1032
2843,-143,21,768,958,3704,1479
2844,-184,-80,819,1128,3768,1559
2845,-222,-137,909,1124,3883,1213
2846,-276,-90,1000,868,3991,707
2847,-298,-40,1079,503,4069,383
2848,-309,-8,1178,442,4071,278
2849,-321,8,1279,622,3965,264
2850,-363,32,1380,915,3782,289
2851,-389,25,1479,1380,3549,348
2852,-413,56,1559,1714,3381,321
2853,-426,79,1663,1544,3321,334
2854,-427,73,1783,1098,3348,299
2855,-386,78,1865,772,3147,207
2856,-393,81,1911,675,2702,-6
2857,-413,69,1946,667,2211,-269
2858,-415,46,2018,663,1784,-591
2859,-418,101,2041,643,1323,-1004
2860,-436,210,2013,509,893,-1214
2861,-451,279,2010,333,579,-943
2862,-436,253,2002,186,374,-379
2863,-436,164,1998,77,86,14
2864,-469,93,1953,14,-312,-2
2865,-485,41,1920,-93,-734,-179
2866,-486,33,1861,-284,-1208,-414
2867,-485,16,1765,-464,-1654,-662
2868,-487,68,1684,-579,-1968,-931
2869,-482,111,1610,-570,-2128,-910
2870,-469,130,1537,-548,-2249,-586
2871,-450,98,1454,-517,-2353,-177
2872,-407,8,1397,-521,-2447,2
2873,-394,-28,1314,-548,-2550,-47
2874,-403,-58,1271,-738,-2626,-179
2875,-380,-76,1230,-1029,-2763,-339
2876,-363,-84,1180,-1230,-2974,-531
2877,-340,-80,1108,-1249,-3177,-787
2878,-323,-62,1033,-1011,-3378,-1015
2879,-323,-7,979,-630,-3542,-1017
2880,-278,3,898,-243,-3548,-748
2881,-241,-14,857,34,-3453,-464
2882,-210,1,810,85,-3310,-197
2883,-179,-28,794,-87,-3152,-9
2884,-143,-47,752,-363,-3052,4
2885,-125,-66,730,-685,-2982,-131
2886,-108,-52,694,-1001,-2921,-271
2887,-89,-41,648,-1296,-2851,-429
2888,-113,-56,589,-1503,-2771,-545
2889,-105,-45,532,-1622,-2646,-640
2890,-86,-38,472,-1603,-2521,-746
2891,-60,-55,404,-1380,-2429,-812
2892,-39,-60,334,-974,-2363,-836
2893,-12,-49,282,-683,-2259,-865
2894,6,-50,199,-579,-2099,-873
2895,-1,-43,152,-601,-1849,-873
2896,52,-19,90,-562,-1523,-861
2897,51,-15,84,-409,-1191,-900
2898,64,-8,65,-9,-912,-845
2899,55,-5,39,524,-697,-781
2900,43,-13,36,1026,-464,-734
2901,68,-14,54,1247,-160,-716
2902,59,-8,65,1218,75,-795
2903,41,26,78,1100,376,-816
2904,61,28,70,1040,784,-697
2905,96,32,101,1089,1184,-574
2906,94,49,150,1278,1614,-517
2907,50,35,197,1505,2063,-513
2908,21,8,289,1622,2569,-552
2909,-12,23,399,1505,3045,-597
2910,-54,10,544,1262,3329,-750
2911,-91,51,666,1083,3501,-959
2912,-131,90,770,1110,3604,-1039
2913,-176,114,894,1391,3618,-937
2914,-205,112,1020,1747,3657,-677
2915,-232,82,1148,1907,3710,-433
2916,-268,49,1290,1762,3792,-293
2917,-275,9,1404,1323,3737,-310
2918,-316,3,1516,696,3495,-480
2919,-311,29,1554,28,3206,-621
2920,-300,79,1564,-497,2969,-666
2921,-270,74,1626,-628,2749,-613
2922,-279,81,1671,-218,2526,-595
2923,-269,99,1722,309,2258,-511
2924,-248,113,1760,731,1948,-310
2925,-268,90,1839,807,1585,-131
2926,-249,102,1876,690,1317,-64
2927,-248,111,1932,428,1018,-117
2928,-267,108,1960,192,682,-232
2929,-276,114,1961,110,415,-357
2930,-277,117,1935,98,237,-470
2931,-280,121,1915,65,114,-615
2932,-276,159,1968,139,-66,-673
2933,-305,257,2002,341,-404,-484
2934,-309,268,1985,401,-871,32
2935,-296,195,1922,167,-1388,489
2936,-309,133,1811,-363,-1775,674
2937,-305,82,1689,-947,-1999,737
2938,-293,48,1575,-1433,-2119,686
2939,-293,4,1464,-1659,-2177,588
2940,-284,4,1361,-1681,-2183,502
2941,-255,-15,1296,-1425,-2214,463
2942,-249,-74,1223,-820,-2308,387
2943,-241,-96,1170,-195,-2417,246
2944,-268,-121,1139,102,-2484,-13
2945,-246,-121,1169,98,-2605,-423
2946,-216,-78,1104,-116,-2771,-814
2947,-184,-29,1028,-404,-2927,-1111
2948,-179,25,959,-597,-2953,-1226
2949,-166,60,900,-624,-2865,-1142
2950,-147,76,859,-558,-2765,-875
2951,-107,71,804,-458,-2644,-591
2952,-80,59,749,-294,-2568,-367
2953,-69,50,707,-72,-2496,-199
2954,-49,29,669,151,-2376,-125
2955,-66,29,664,225,-2312,-117
2956,-58,20,632,94,-2281,-132
2957,-28,16,606,-146,-2300,-189
2958,-11,51,529,-368,-2335,-281
2959,-15,61,444,-581,-2320,-298
2960,7,58,397,-652,-2201,-209
2961,24,55,318,-615,-2056,-91
2962,30,31,248,-503,-1859,16
2963,51,27,193,-431,-1564,131
2964,81,5,149,-454,-1236,211
2965,105,7,115,-519,-906,256
2966,146,5,92,-566,-585,266
2967,150,5,59,-533,-316,252
2968,141,-9,80,-390,-27,174
2969,147,-14,75,-76,264,71
2970,150,16,106,387,510,-43
2971,140,27,113,852,776,-93
2972,124,1,135,1008,1114,-82
2973,95,-25,206,870,1485,-111
2974,60,-16,247,592,1821,-256
2975,36,-27,296,317,2147,-408
2976,33,1,351,110,2393,-545
2977,-34,6,410,145,2561,-629
2978,-23,-6,475,501,2618,-609
2979,-33,6,530,993,2647,-636
2980,-65,3,563,1151,2655,-672
2981,-131,21,614,921,2766,-634
2982,-180,-20,653,393,2999,-496
2983,-156,-37,712,-279,3252,-353
2984,-134,-43,745,-687,3420,-367
2985,-161,10,777,-560,3487,-381
2986,-187,46,840,-111,3528,-238
2987,-217,97,954,553,3583,88
2988,-235,88,1066,1227,3545,469
2989,-298,30,1169,1456,3418,735
2990,-340,-32,1285,1049,3270,752
2991,-356,-65,1363,-9,3219,522
2992,-335,-34,1433,-1013,3333,162
2993,-310,14,1521,-1326,3387,-173
2994,-291,33,1642,-714,3350,-363
2995,-335,41,1723,57,3141,-507
2996,-359,99,1845,350,2856,-634
2997,-348,213,1948,241,2622,-398
2998,-324,233,2034,-191,2206,129
2999,-323,138,2048,-572,1731,536
3000,-357,87,2048,-722,1418,633
3001,-358,61,2048,-910,1264,619
3002,-376,2,2048,-956,1061,522
3003,-384,-14,2048,-788,684,409
3004,-385,-34,2048,-460,210,237
3005,-439,-25,2048,-193,-228,41
3006,-461,-72,2034,-181,-544,-115
3007,-443,-70,1982,-316,-878,-256
3008,-458,-13,1897,-505,-1249,-287
3009,-442,-31,1819,-611,-1558,-70
3010,-432,-45,1722,-581,-1855,61
3011,-424,-61,1620,-533,-2124,90
3012,-411,-87,1548,-361,-2404,98
3013,-394,-110,1454,-202,-2673,90
3014,-371,-140,1312,-404,-2992,-209
3015,-394,-135,1378,-220,-2871,-39
3016,-350,-131,1217,-624,-3046,-408
3017,-335,-116,1147,-835,-3074,-507
3018,-302,-98,1053,-925,-3037,-523
3019,-265,-80,988,-917,-2947,-517
3020,-223,-64,937,-587,-2949,-570
3021,-208,-50,874,90,-3042,-589
3022,-207,-37,834,575,-3119,-533
3023,-186,-38,782,596,-3080,-447
3024,-166,-42,738,292,-3025,-439
3025,-163,-31,685,-36,-2933,-509
3026,-134,-17,652,-275,-2841,-545
3027,-89,8,625,-449,-2802,-597
3028,-89,19,582,-601,-2802,-644
3029,-65,23,526,-544,-2812,-660
3030,-68,34,486,-286,-2769,-617
3031,-36,35,429,-23,-2654,-580
3032,-28,38,353,122,-2484,-570
3033,9,40,319,217,-2275,-541
3034,32,60,276,192,-2058,-535
3035,35,68,229,46,-1839,-529
3036,42,57,181,-158,-1609,-455
3037,53,62,163,-408,-1353,-445
3038,45,70,122,-618,-1165,-476
3039,40,70,89,-626,-964,-488
3040,56,62,72,-408,-701,-468
3041,56,77,57,-177,-388,-418
3042,72,81,18,-158,-17,-248
3043,81,73,12,-197,397,-52
3044,94,66,-2,-183,807,119
3045,59,57,6,-38,1249,248
3046,74,5,44,237,1727,334
3047,4,0,140,462,2170,278
3048,-4,-7,236,473,2600,235
3049,-9,6,336,505,2903,178
3050,-74,4,434,598,3083,102
3051,-96,-21,539,674,3194,49
3052,-165,-31,628,698,3182,-52
3053,-179,-55,715,542,3174,-144
3054,-206,-32,793,223,3200,-295
3055,-207,42,865,-99,3364,-257
3056,-195,72,894,-265,3516,73
3057,-207,21,981,-134,3565,518
3058,-264,-73,1083,63,3460,758
3059,-291,-144,1174,292,3374,727
3060,-283,-203,1302,456,3292,432
3061,-288,-163,1401,376,3075,-11
3062,-265,-70,1469,321,2971,-263
3063,-253,-32,1593,350,2956,-230
3064,-289,-42,1706,587,3008,-173
3065,-312,10,1834,1038,3045,-127
3066,-268,13,1961,1440,2969,55
3067,-280,-2,2048,1600,2627,102
3068,-323,58,2048,1391,2127,26
3069,-318,97,2048,897,1606,172
3070,-323,85,2048,176,1135,362
3071,-348,59,2048,-570,784,428
3072,-322,1,2048,-886,430,448
3073,-342,-37,2032,-843,71,418
3074,-348,-74,1991,-794,-273,325
3075,-358,-87,1934,-783,-601,188
3076,-341,-77,1886,-597,-986,26
3077,-330,-9,1847,-120,-1476,-88
3078,-338,14,1754,381,-1900,-15
3079,-345,-13,1681,495,-2181,141
3080,-311,-18,1627,272,-2359,155
3081,-329,-7,1508,30,-2540,80
3082,-323,-27,1441,-361,-2667,104
3083,-281,-36,1393,-579,-2792,86
3084,-306,-32,1291,-720,-3029,84
3085,-275,-51,1191,-1054,-3257,131
3086,-261,-46,1109,-1167,-3410,118
3087,-240,-72,1011,-999,-3515,71
3088,-231,-95,929,-710,-3501,51
3089,-189,-86,871,-585,-3408,32
3090,-183,-99,819,-550,-3343,0
3091,-161,-102,763,-499,-3271,-47
3092,-153,-109,734,-513,-3296,-132
3093,-139,-96,656,-675,-3281,-226
3094,-141,-81,596,-906,-3220,-312
3095,-109,-62,556,-1078,-3154,-375
3096,-94,-45,495,-1097,-3046,-386
3097,-77,-59,433,-1050,-2873,-427
3098,-46,-45,377,-1087,-2636,-464
3099,-58,-50,323,-997,-2439,-490
3100,-17,-62,245,-765,-2310,-504
3101,-2,-56,256,-804,-2091,-621
3102,8,-61,235,-835,-1890,-798
3103,16,-42,183,-736,-1748,-900
3104,16,-52,184,-663,-1626,-955
3105,33,-51,139,-671,-1521,-1058
3106,17,-55,125,-669,-1310,-1244
3107,24,-16,121,-734,-996,-1384
3108,41,10,102,-763,-623,-1384
3109,64,54,65,-626,-201,-1269
3110,110,40,103,-486,231,-1097
3111,105,66,124,-355,612,-912
3112,102,64,175,-355,1022,-701
3113,86,54,206,-249,1461,-476
3114,65,21,284,-11,1829,-306
3115,68,-16,357,206,2186,-213
3116,40,-24,441,270,2585,-162
3117,3,-38,488,337,2987,-140
3118,-15,-63,600,450,3325,-78
3119,-22,-66,714,553,3501,-68
3120,-35,-6,809,745,3581,-68
3121,-49,41,914,1143,3555,155
3122,-50,24,984,1542,3467,528
3123,-98,-25,1054,1649,3438,746
3124,-134,-70,1125,1512,3532,741
3125,-156,-76,1249,1141,3731,604
3126,-174,-91,1358,647,3756,393
3127,-180,-109,1418,180,3622,239
3128,-189,-102,1478,-273,3458,164
3129,-196,-88,1536,-613,3211,178
3130,-204,-106,1552,-845,2932,289
3131,-215,-172,1584,-736,2645,354
3132,-200,-239,1623,-329,2329,268
3133,-204,-286,1673,214,2063,2
3134,-196,-297,1728,698,1918,-304
3135,-204,-289,1795,954,1784,-685
3136,-228,-272,1889,1137,1540,-1129
3137,-230,-201,1980,1255,1168,-1543
3138,-212,-60,2026,1409,729,-1820
3139,-148,41,2048,1596,340,-1763
3140,-123,92,2048,1721,-46,-1533
3141,-145,97,2048,1598,-330,-1222
3142,-177,70,2048,1276,-562,-961
3143,-202,21,2048,921,-847,-816
3144,-268,-61,2048,538,-1222,-785
3145,-276,-105,2048,-9,-1826,-896
3146,-268,-106,2008,-249,-2707,-1095
3147,-286,-80,1856,-93,-3468,-1172
3148,-272,-58,1671,49,-3837,-1105
3149,-278,-60,1490,36,-3906,-980
3150,-233,-59,1378,1,-3802,-886
3151,-173,-47,1274,14,-3648,-869
3152,-154,-37,1181,200,-3572,-937
3153,-132,-31,1117,508,-3480,-988
3154,-124,-12,1088,667,-3314,-1015
3155,-113,-11,1089,440,-3187,-1101
3156,-110,20,1056,55,-3189,-1154
3157,-102,79,1008,-271,-3330,-1072
3158,-84,90,862,-349,-3478,-918
3159,-52,68,770,-5,-3591,-697
3160,-65,61,683,293,-3562,-445
3161,-27,32,584,344,-3273,-179
3162,8,6,488,295,-2876,-15
3163,1,-8,465,403,-2474,14
3164,2,-36,450,622,-2140,-60
3165,33,-13,441,641,-2019,-230
3166,42,17,399,551,-2033,-390
3167,69,64,365,450,-2031,-359
3168,79,85,294,346,-1931,-261
3169,75,109,255,272,-1703,-152
3170,82,110,230,219,-1406,-4
3171,44,70,192,221,-1095,131
3172,68,67,176,290,-808,170
3173,62,75,173,319,-523,155
3174,65,82,171,174,-249,192
3175,52,87,146,-177,20,270
3176,43,90,119,-626,223,330
3177,59,106,101,-984,418,414
3178,68,101,68,-1083,620,479
3179,66,77,39,-773,809,569
3180,76,20,62,-505,1049,588
3181,58,-5,87,-472,1299,469
3182,71,1,119,-519,1545,356
3183,63,-15,142,-289,1760,276
3184,42,-8,169,40,2045,207
3185,18,13,205,311,2471,151
3186,7,39,262,415,2989,172
3187,-45,60,372,360,3456,258
3188,-120,42,488,317,3821,327
3189,-149,39,607,385,4028,362
3190,-160,40,709,448,4008,411
3191,-126,11,801,407,3809,541
3192,-120,-41,848,256,3594,561
3193,-136,-91,895,102,3491,510
3194,-165,-94,948,102,3520,364
3195,-197,-69,1022,387,3723,159
3196,-216,-25,1107,731,4069,8
3197,-246,-5,1226,954,4434,-66
3198,-252,-11,1419,1014,4725,-140
3199,-276,61,1635,1006,4725,-234
3200,-289,114,1790,1020,4370,-107
3201,-300,99,1917,1049,3893,161
3202,-298,80,2032,930,3379,323
3203,-324,81,2048,743,2899,321
3204,-272,52,2048,860,2555,346
3205,-245,41,2038,1114,2329,381
3206,-254,18,2048,1231,2170,287
3207,-257,35,2048,1274,2032,61
3208,-294,68,2048,1313,1901,-222
3209,-309,109,2048,1299,1709,-369
3210,-346,136,2048,1149,1301,-418
3211,-376,165,2048,737,670,-287
3212,-382,149,2048,174,-42,-84
3213,-395,121,2048,-406,-718,67
3214,-459,80,2048,-896,-1312,149
3215,-442,44,1894,-1062,-1746,276
3216,-387,-2,1733,-1107,-2050,303
3217,-387,-26,1613,-1019,-2312,237
3218,-352,-58,1511,-828,-2546,151
3219,-359,-72,1430,-552,-2804,-7
3220,-340,-70,1355,-349,-3001,-125
3221,-325,-73,1293,-253,-3156,-199
3222,-325,-75,1235,-261,-3298,-308
3223,-303,-56,1181,-216,-3425,-484
3224,-300,-30,1117,-130,-3552,-636
3225,-272,-11,1067,59,-3662,-693
3226,-240,-10,1015,286,-3751,-703
3227,-208,4,925,256,-3751,-679
3228,-194,15,875,-7,-3656,-634
3229,-173,27,792,-318,-3517,-599
3230,-143,37,745,-554,-3351,-566
3231,-126,41,698,-732,-3210,-547
3232,-120,45,639,-806,-3134,-533
3233,-121,58,601,-822,-3068,-543
3234,-71,84,540,-640,-3041,-539
3235,-41,89,479,-246,-3062,-537
3236,-1,114,413,96,-3054,-521
3237,10,127,366,223,-2912,-523
3238,22,140,297,108,-2611,-496
3239,40,169,251,-169,-2220,-431
3240,64,178,216,-462,-1791,-332
3241,70,206,197,-654,-1384,-248
3242,73,222,198,-707,-1027,-154
3243,76,221,207,-667,-755,-43
3244,102,219,195,-521,-609,43
3245,117,197,180,-277,-650,90
3246,103,198,155,-230,-644,114
3247,106,197,106,-408,-423,188
3248,108,177,89,-591,-91,284
3249,84,174,88,-734,274,358
3250,88,169,83,-818,723,444
3251,81,174,121,-775,1176,514
3252,77,175,149,-519,1538,588
3253,88,150,214,-171,1760,662
3254,85,132,262,59,1887,709
3255,70,105,288,34,2030,737
3256,21,55,322,-179,2280,793
3257,-9,32,365,-378,2633,856
3258,-46,21,424,-503,3047,905
3259,-58,-19,506,-517,3438,936
3260,-91,-37,595,-408,3754,903
3261,-135,-56,680,-255,3969,852
3262,-131,-72,780,44,4034,828
3263,-156,-72,851,337,3954,793
3264,-210,-99,951,376,3872,817
3265,-265,-133,1019,159,3872,848
3266,-307,-183,1118,-341,4034,768
3267,-311,-149,1094,-156,3901,821
3268,-317,-200,1188,-242,4104,678
3269,-347,-231,1290,83,4081,485
3270,-382,-208,1397,481,3963,198
3271,-376,-164,1521,795,3834,-74
3272,-348,-56,1604,817,3704,-250
3273,-346,11,1695,753,3575,-259
3274,-372,74,1798,1018,3432,-142
3275,-390,91,1872,1432,3297,57
3276,-416,88,1982,1661,3116,186
3277,-459,77,2048,1538,2872,205
3278,-504,78,2048,1249,2530,82
3279,-525,110,2048,903,2135,-21
3280,-509,107,2048,446,1676,-68
3281,-528,117,2048,79,1141,-132
3282,-519,118,2048,-142,526,-78
3283,-503,121,2048,-339,-128,75
3284,-536,74,2048,-490,-775,229
3285,-544,24,1974,-445,-1308,330
3286,-549,-40,1882,-251,-1804,399
3287,-502,-90,1649,1,-2548,278
3288,-530,-79,1788,-54,-2220,375
3289,-485,-87,1564,36,-2794,162
3290,-477,-77,1482,172,-2999,61
3291,-433,-44,1437,272,-3226,-19
3292,-417,-3,1359,311,-3517,-37
3293,-389,17,1307,331,-3802,-4
3294,-369,35,1209,342,-4021,45
3295,-349,54,1124,249,-4140,118
3296,-316,45,1032,63,-4152,264
3297,-269,20,943,-146,-4074,383
3298,-262,-15,873,-322,-3957,412
3299,-219,-28,801,-482,-3810,366
3300,-185,-26,741,-605,-3636,250
3301,-164,-14,676,-527,-3451,121
3302,-139,2,620,-187,-3236,69
3303,-92,-9,586,266,-3027,30
3304,-77,-4,548,463,-2869,28
3305,-43,0,523,383,-2732,-2
3306,-35,-2,487,167,-2597,16
3307,-25,11,458,-80,-2433,84
3308,-15,8,425,-257,-2228,131
3309,-20,29,408,-308,-2033,119
3310,-12,41,370,-214,-1851,75
3311,14,45,324,77,-1703,75
3312,33,70,311,540,-1576,82
3313,60,62,272,665,-1443,88
3314,54,63,252,333,-1283,80
3315,72,65,199,-247,-1117,84
3316,76,72,178,-747,-902,116
3317,100,79,152,-964,-708,162
3318,115,78,119,-808,-591,202
3319,144,75,90,-415,-460,190
3320,145,70,70,-183,-244,153
3321,138,69,20,-152,137,131
3322,127,99,20,-339,635,114
3323,141,147,18,-537,1126,151
3324,154,186,21,-339,1493,159
3325,134,179,43,223,1788,161
3326,97,195,66,719,2155,133
3327,61,183,133,778,2639,159
3328,10,164,199,432,3225,217
3329,-34,148,328,-107,3790,289
3330,-93,141,445,-597,4170,364
3331,-180,59,588,-878,4372,541
3332,-236,-8,724,-769,4325,580
3333,-275,-32,834,-513,4266,541
3334,-294,-50,899,-210,4231,461
3335,-297,-40,1028,-3,4256,530
3336,-335,-80,1187,-44,4239,707
3337,-359,-114,1347,-378,4133,731
3338,-386,-123,1410,-956,3973,653
3339,-382,-151,1502,-1548,3893,606
3340,-364,-132,1637,-1962,3891,577
3341,-406,-130,1744,-2005,3631,557
3342,-415,-112,1829,-1464,3069,705
3343,-384,-76,1874,-738,2411,969
3344,-390,-137,1881,-310,1797,1229
3345,-381,-196,1871,-208,1336,1241
3346,-397,-216,1867,-394,1047,981
3347,-382,-179,1876,-765,911,666
3348,-388,-136,1889,-1224,770,506
3349,-376,-117,1905,-1535,493,479
3350,-376,-105,1884,-1644,55,534
3351,-365,-122,1819,-1542,-443,676
3352,-375,-159,1737,-1304,-867,756
3353,-402,-207,1665,-1165,-1173,743
3354,-368,-211,1565,-1195,-1369,680
3355,-347,-222,1463,-1404,-1410,522
3356,-332,-219,1361,-1660,-1332,403
3357,-307,-224,1291,-1734,-1224,389
3358,-304,-214,1244,-1478,-1138,395
3359,-266,-218,1179,-941,-1111,471
3360,-239,-214,1159,-288,-1130,502
3361,-227,-206,1149,350,-1183,430
3362,-231,-212,1141,801,-1310,280
3363,-225,-178,1092,956,-1412,149
3364,-231,-171,1042,839,-1460,34
3365,-213,-139,1002,633,-1337,-54
3366,-159,-121,962,579,-1207,-132
3367,-152,-90,927,604,-1132,-218
3368,-132,-37,889,694,-1048,-220
3369,-116,-32,870,905,-994,-148
3370,-129,-27,859,1118,-957,-68
3371,-145,-41,873,1272,-914,-15
3372,-147,-98,889,1268,-914,-89
3373,-160,-96,898,1010,-935,-334
3374,-153,-57,882,571,-929,-574
3375,-138,-31,847,98,-890,-683
3376,-130,-19,821,-95,-859,-740
3377,-127,9,790,24,-824,-726
3378,-109,13,776,323,-769,-613
3379,-98,9,772,602,-699,-435
3380,-109,-14,755,721,-597,-289
3381,-100,-43,778,649,-478,-238
3382,-86,-62,806,450,-427,-324
3383,-100,-58,794,239,-443,-470
3384,-113,-56,810,90,-417,-625
3385,-110,-47,798,-29,-357,-744
3386,-112,-29,789,-74,-257,-865
3387,-120,39,828,42,-169,-925
3388,-109,97,881,346,-124,-769
3389,-111,66,902,926,-369,-214
3390,-91,100,900,714,-234,-451
3391,-94,42,895,858,-380,-107
3392,-96,22,896,598,-359,-129
3393,-132,0,884,153,-263,-199
3394,-145,-22,893,-292,-78,-326
3395,-127,-32,900,-636,145,-476
3396,-118,-27,908,-687,293,-662
3397,-135,3,941,-476,333,-812
3398,-117,46,963,-44,299,-781
3399,-100,97,993,458,100,-589
3400,-90,82,1041,731,-220,-234
3401,-98,51,1019,774,-496,0
3402,-120,18,987,620,-566,78
3403,-102,-10,965,272,-415,36
3404,-116,3,948,-132,-156,-84
3405,-108,-4,953,-505,110,-193
3406,-98,4,963,-675,329,-228
3407,-90,3,1030,-550,362,-218
3408,-103,35,1066,-144,190,-138
3409,-95,44,1088,378,-132,143
3410,-111,16,1077,760,-404,432
3411,-122,-22,1045,815,-558,608
3412,-137,-64,1000,409,-523,592
3413,-140,-79,975,-230,-296,485
3414,-122,-85,964,-755,-44,313
3415,-108,-79,970,-1050,139,149
3416,-103,-85,976,-1023,221,-29
3417,-102,-62,994,-788,217,-129
3418,-88,-35,1037,-326,110,-64
3419,-57,-41,1056,169,-107,73
3420,-71,-51,1053,518,-353,196
3421,-75,-69,1032,569,-513,327
3422,-86,-84,1008,434,-507,354
3423,-83,-100,984,85,-367,280
3424,-86,-106,954,-245,-111,110
3425,-84,-103,981,-495,397,-138
3426,-93,-107,959,-454,167,-9
3427,-97,-68,1045,-363,461,-205
3428,-86,-77,1109,-76,292,-211
3429,-82,-40,1121,311,-97,-177
3430,-92,-23,1087,581,-507,-95
3431,-93,-45,1040,669,-714,18
3432,-96,-70,1005,514,-691,71
3433,-84,-83,965,114,-494,8
3434,-90,-86,962,-329,-210,-127
3435,-86,-70,955,-572,86,-224
3436,-77,-69,986,-589,292,-338
3437,-66,-26,1039,-386,321,-367
3438,-63,3,1073,49,118,-267
3439,-72,21,1077,487,-222,-78
3440,-53,-7,1058,678,-556,88
3441,-46,-42,1017,590,-777,125
3442,-32,-31,957,301,-783,63
3443,-41,-14,921,-60,-624,-2
3444,-45,-14,896,-259,-304,-33
3445,-5,-44,896,-331,6,-78
3446,-46,-38,925,-382,227,-218
3447,-61,-20,941,-413,403,-220
3448,-60,-11,993,-255,446,-140
3449,-54,-12,1035,38,282,-101
3450,-74,0,1060,270,-48,-62
3451,-59,-22,1037,354,-351,18
3452,-68,-40,994,299,-490,20
3453,-69,-56,954,90,-427,-41
3454,-76,-48,940,-222,-199,-117
3455,-79,-47,935,-494,67,-183
3456,-75,-18,949,-650,301,-144
3457,-60,-30,977,-624,409,-39
3458,-64,-25,1045,-347,313,47
3459,-63,-46,1071,110,71,92
3460,-67,-52,1047,487,-228,112
3461,-62,-57,1023,626,-425,137
3462,-49,-74,982,532,-455,123
3463,-60,-64,937,249,-312,59
3464,-68,-47,941,-37,-19,-25
3465,-45,-37,979,-224,241,-29
3466,-59,-25,1015,-345,379,-11
3467,-57,-27,1060,-419,407,53
3468,-52,-22,1070,-304,317,125
3469,-55,-22,1107,-15,79,203
3470,-72,-51,1073,141,-560,213
3471,-49,-37,1115,147,-269,243
3472,-67,-52,1017,32,-654,182
3473,-64,-53,980,-171,-554,123
3474,-71,-70,952,-392,-275,0
