sequence,AccelerometerX,AccelerometerY,AccelerometerZ,GyroscopeX,GyroscopeY,GyroscopeZ
0,-10,-5,1001,1,2,0
1,-1,3,1005,-1,-2,0
2,-2,3,1008,-3,-2,-2
3,-6,0,1027,1,-2,2
4,-4,-5,991,-1,0,0
5,-7,-2,1000,1,2,0
6,-11,-4,1004,1,2,0
7,-2,3,1005,-1,0,2
8,-6,2,999,1,2,2
9,-6,0,1006,1,2,4
10,-1,0,986,1,2,0
11,-11,-12,987,-1,0,2
12,0,2,1009,-1,0,0
13,-7,1,999,-1,-2,2
14,-5,3,1010,-1,-2,0
15,1,-2,1009,-1,0,-2
16,-5,4,997,-5,-2,0
17,-1,-5,998,-1,-2,2
18,-10,-16,1009,-1,-2,4
19,-5,-7,999,1,4,2
20,-3,2,985,1,2,0
21,-4,15,994,-1,0,0
22,-11,-7,1010,1,2,2
23,3,-6,998,-1,-2,-6
24,0,5,1010,1,-2,-4
25,-9,-1,1011,-1,-2,2
26,-8,-6,1000,-3,0,4
27,-6,-6,1007,1,4,2
28,-4,-8,1007,-1,0,-2
29,-1,2,1006,1,2,-4
30,-7,7,1009,1,4,0
31,0,-4,1011,-1,0,10
32,-5,-16,1010,-1,0,-2
33,-10,-4,1015,-1,0,-2
34,-8,10,1005,-1,0,-4
35,-1,-5,994,3,2,0
36,10,-11,1004,1,-2,6
37,3,-17,994,1,2,0
38,-6,7,1009,3,4,-2
39,-13,13,1009,-3,0,-4
40,-16,4,987,-1,0,-2
41,-2,5,998,1,2,2
42,7,-4,1006,1,2,-6
43,-2,2,1013,-3,0,-4
44,0,-7,1009,-1,-2,-6
45,-5,6,1013,3,4,2
46,-5,-7,1010,1,2,2
47,1,-3,1000,-1,0,4
48,-4,-6,1010,-1,0,-4
49,-6,1,1013,1,4,-4
50,-9,-6,1006,-1,-2,4
51,-8,-17,994,-3,0,2
52,-2,-3,1002,1,-2,2
53,-9,-7,995,1,4,-6
54,-6,3,1005,1,2,2
55,-4,0,1019,1,2,0
56,4,-4,986,-1,0,0
57,-4,-7,988,-1,-5,0
58,-2,-8,1005,-1,-1,-2
59,-9,-1,1006,1,1,-2
60,-2,-2,1006,-3,-3,4
61,-5,6,1003,1,1,4
62,-6,-2,1012,-5,-1,-2
63,-8,-2,995,1,1,-2
64,0,-2,1006,-1,-5,0
65,-4,-2,1002,-1,-1,0
66,-6,-5,1001,-1,-3,2
67,1,-11,1017,1,1,4
68,-7,2,1015,1,3,-4
69,-3,1,1023,1,-1,-2
70,-1,-2,1010,-1,-1,2
71,3,-4,1010,-1,-5,2
72,0,-3,1017,-1,-1,0
73,-2,-3,999,-1,-1,-6
74,-4,-9,1004,-7,-3,0
75,-8,-1,999,1,1,2
76,-210,-231,1009,-3,-3,13
77,-185,-120,1006,2,6,1195
78,-99,-25,980,10,3,2549
79,63,59,936,14,1,2584
80,-50,-25,1053,8,12,2207
81,17,196,1022,1,20,2476
82,-71,273,1017,-11,24,1127
83,-66,193,932,-1,20,658
84,100,119,1092,-1,18,902
85,80,80,1078,10,3,760
86,116,79,994,-15,28,732
87,60,63,974,-1,14,892
88,4,-63,971,4,8,1150
89,38,-177,1091,-1,6,961
90,44,-38,909,-1,14,554
91,46,68,966,2,5,301
92,22,121,988,-1,8,74
93,37,198,981,4,-5,-324
94,3,379,950,4,-7,-531
95,-96,501,963,2,-5,-574
96,-82,506,973,4,1,-563
97,-114,361,829,-27,8,-194
98,77,140,1227,-48,30,-59
99,135,26,1149,18,-5,-63
100,35,-31,1266,-25,-1,-12
101,23,33,1101,-35,12,-137
102,115,-33,1182,-19,3,-51
103,8,-178,1039,2,-3,-328
104,56,-224,1162,-1,-9,-401
105,-48,-92,838,-3,-9,-428
106,26,-223,1086,2,-7,-334
107,9,-260,1030,16,-11,-237
108,45,-423,1146,14,-19,-385
109,46,-371,1020,6,-13,-256
110,30,-505,1014,1,-11,-229
111,-12,-510,1052,-9,-11,-481
112,183,-488,990,12,-11,-328
113,-63,-368,989,-3,-7,-375
114,34,-577,996,-7,-21,-815
115,36,-533,1104,-1,-9,-598
116,26,-488,922,6,-1,-278
117,-61,-497,1020,6,3,-137
118,22,-568,1006,8,6,-102
119,-24,-483,1062,16,3,45
120,-127,-514,1088,12,12,189
121,-51,-496,1042,8,5,654
122,-146,-478,1021,1,3,943
123,13,-354,1250,53,-13,1101
124,-85,-473,733,30,-11,1299
125,4,-628,1010,-9,-25,1410
126,-8,-501,1093,-11,-15,1213
127,116,-333,373,-25,6,1082
128,85,-137,1485,-21,14,1041
129,104,-279,38,-17,6,1211
130,337,-214,646,-5,16,1304
131,55,-49,1441,-5,16,1596
132,-375,373,1106,22,8,1607
133,-1,33,264,10,-3,1584
134,-187,22,379,-29,49,1771
135,-391,222,626,-5,16,879
136,-433,373,670,-7,18,-1526
137,138,581,1799,1,-13,-3250
138,329,766,1548,14,-19,-2276
139,171,844,2048,14,-9,-1156
140,-75,750,1374,2,1,506
141,147,859,725,6,5,566
142,49,667,1675,6,1,857
143,110,653,1198,-2,-9,1004
144,106,765,1062,-15,3,1008
145,61,781,1034,-13,-1,1043
146,-30,689,983,-9,3,943
147,209,389,977,-21,8,560
148,167,548,976,-5,-7,722
149,95,632,924,4,1,1273
150,-57,600,942,6,-7,1055
151,-50,625,978,8,-5,855
152,76,727,864,4,-1,752
153,161,765,940,16,-5,756
154,39,562,809,-15,-1,783
155,-81,545,746,4,-5,652
156,183,431,993,-5,4,369
157,95,515,1058,-9,6,213
158,7,451,1023,18,-1,-221
159,3,295,1075,-17,-23,-1084
160,-118,254,614,-9,-15,-1637
161,-109,-140,1706,12,-23,-2201
162,27,58,637,-15,-21,-2231
163,-14,-62,1173,34,-35,-2246
164,-132,-111,1013,-5,-17,-2336
165,-51,-69,869,-37,-3,-2164
166,-81,-203,977,-21,6,-2186
167,-59,-509,1360,12,-19,-1979
168,63,-326,1172,22,-9,-1766
169,16,-507,897,0,4,-1617
170,-23,-346,993,4,-9,-1828
171,-99,-614,1103,8,4,-1742
172,9,-788,763,14,1,-1449
173,-29,-1019,1467,0,3,-1166
174,-27,-1102,821,12,1,-867
175,-43,-1000,987,-2,-3,-463
176,-17,-850,996,2,3,-352
177,-6,-21,1012,8,-7,-49
178,-111,-601,994,8,-5,-88
179,57,-938,897,-11,-5,-830
180,113,-920,834,-5,-1,-172
181,27,-872,892,-17,1,570
182,-128,-527,1353,-5,-9,920
183,23,-682,553,-5,-15,1053
184,-38,-623,935,-13,3,928
185,-25,-556,922,-19,-3,1197
186,-36,-561,965,-21,16,1347
187,-23,-311,913,-2,1,1676
188,-43,-312,768,-37,36,1681
189,-7,-318,1086,-2,10,1838
190,31,-138,1180,30,-1,2094
191,44,-129,1013,12,10,1937
192,47,-183,1017,-21,20,1705
193,-131,-147,1194,4,12,1965
194,170,-119,1531,-5,18,1822
195,11,72,1140,16,16,2055
196,5,104,984,4,34,1900
197,129,172,1188,-9,6,2082
198,65,210,783,12,3,2101
199,120,353,885,22,-3,2031
200,82,481,1088,14,16,1896
201,148,615,1242,8,1,1627
202,36,635,903,-9,12,1096
203,51,635,923,14,-9,799
204,102,525,985,2,3,301
205,126,591,1131,-7,14,305
206,178,752,1107,-2,8,431
207,114,781,1023,-7,10,267
208,94,850,1100,2,4,322
209,-7,920,971,-7,6,-94
210,243,373,1012,-37,16,-80
211,165,683,1008,-19,1,-672
212,217,569,1012,0,-3,211
213,-81,760,930,12,-1,949
214,-43,702,899,-4,-11,-457
215,0,656,833,-7,-5,-828
216,55,325,1073,-15,-7,-1174
217,56,480,1034,-17,3,-1278
218,-21,511,1093,-7,-5,-1119
219,-31,465,808,-2,-21,-1303
220,42,430,1131,12,-9,-1391
221,60,241,1130,2,-15,-1194
222,57,329,926,-17,10,-1303
223,95,227,1215,-11,3,-1309
224,118,252,1129,28,-5,-1506
225,127,246,1066,12,-27,-1654
226,117,82,668,-17,-27,-1910
227,40,-82,879,-11,-29,-2033
228,39,-86,1031,-11,1,-1932
229,24,-34,686,-29,-5,-1490
230,218,-558,1701,0,-15,-1621
231,329,-159,437,2,-13,-1684
232,-55,-347,992,28,-15,-1715
233,25,-304,1459,18,-27,-1764
234,58,-631,777,36,-15,-2018
235,14,-408,1085,24,1,-2074
236,-72,-692,1033,18,4,-2219
237,67,-682,940,-2,-3,-2508
238,17,-779,1016,-15,8,-2260
239,110,-796,788,-27,8,-1867
240,136,-997,1089,-39,4,-1158
241,-10,-1102,1016,-13,-15,-582
242,-346,-745,1019,-1,-1,-145
243,172,-496,1006,6,4,451
244,60,-803,1039,24,-17,517
245,-46,-838,1063,36,-29,-100
246,19,-896,1061,14,-11,459
247,45,-715,1088,-1,-3,728
248,126,-705,1005,2,-11,939
249,24,-771,798,-13,-9,1017
250,34,-823,902,-29,3,1205
251,-88,-625,1059,-37,-7,1508
252,-169,-574,722,-31,8,1898
253,-50,-277,1393,-17,30,1945
254,-67,-292,836,14,18,2045
255,8,-148,568,32,-9,2154
256,83,-116,971,0,14,1971
257,14,-77,1071,-17,16,2053
258,193,-312,878,4,18,2779
259,7,-272,724,4,20,2980
260,104,-12,849,38,14,3304
261,62,326,871,14,-15,3379
262,125,428,1216,8,10,3133
263,18,163,978,22,22,2742
264,-23,440,774,-15,4,2086
265,189,565,1030,-17,4,1812
266,-55,840,894,20,1,1668
267,-57,661,1169,-3,14,297
268,187,752,1069,-17,18,-41
269,219,816,963,-17,18,635
270,245,851,1021,-9,14,681
271,161,1182,951,-5,10,644
272,235,1443,1059,10,-3,154
273,-2,-5,1022,-3,-5,-100
274,295,916,1059,-35,10,-1008
275,335,632,998,-11,6,-162
276,53,894,1018,-7,-7,-654
277,231,968,1064,-3,-7,-1020
278,89,866,945,14,-11,-819
279,91,608,1023,4,-17,-840
280,110,878,992,-1,-19,-854
281,108,620,1190,-11,-7,-606
282,64,289,1388,4,-7,-141
283,-87,354,1211,18,-13,-463
284,-70,372,1085,-1,-7,-1217
285,-91,231,999,-11,-33,-1498
286,167,203,1136,-5,1,-1268
287,8,71,1019,14,-9,-1322
288,94,183,941,-3,-29,-1522
289,-24,-22,846,-25,-29,-1795
290,34,-66,1079,14,-17,-2037
291,-55,-29,839,-21,-17,-2242
292,37,-332,1157,-1,-29,-2209
293,-1,-128,867,-29,-13,-2154
294,5,-483,991,-19,3,-2031
295,50,-467,670,-13,-15,-1885
296,-9,-603,951,10,-33,-1670
297,-36,-663,979,4,3,-1264
298,-2,-587,952,20,-17,-1100
299,-37,-738,1093,20,16,-737
300,-56,-828,720,14,14,-580
301,37,-915,1098,12,3,-434
302,45,-845,1047,0,3,-51
303,-59,-889,1068,-13,6,-16
304,13,81,1015,-9,3,37
305,-1,-28,1002,-1,-3,6
306,138,-572,1021,18,-15,29
307,-35,-720,1001,16,-25,-531
308,32,-868,1057,-1,-15,-244
309,-13,-892,960,-15,-13,72
310,-96,-750,777,-25,-13,422
311,-210,-646,678,-17,-21,859
312,-1,-792,648,-21,24,1168
313,57,-700,762,-25,26,1719
314,-61,-577,933,-27,18,2068
315,-4,-400,1046,-35,49,2242
316,-137,-356,1234,22,1,2679
317,-81,-111,986,41,12,2187
318,112,-60,960,45,1,2142
319,-6,-101,1220,-13,12,1410
320,62,-291,1097,-7,4,1328
321,-85,-591,1080,-17,16,1535
322,-171,-49,994,0,32,1709
323,-120,-124,488,-5,6,2207
324,134,-311,601,20,-17,2250
325,147,451,1513,22,1,2211
326,-58,618,701,-13,28,1908
327,62,389,593,-13,4,1474
328,55,556,866,10,3,935
329,70,436,941,12,6,861
330,191,411,1212,-3,12,722
331,-15,617,1316,-13,28,947
332,282,900,1269,-11,24,1439
333,87,952,1003,14,4,1492
334,243,1170,1100,4,-3,855
335,140,1292,981,0,6,273
336,-374,281,1008,6,1,-209
337,472,487,994,-11,-1,-457
338,133,773,959,-13,3,-928
339,162,1018,1027,-1,1,-217
340,46,862,1203,-5,-5,-104
341,-24,938,713,-13,-15,-615
342,89,840,1158,-5,-17,-1057
343,185,492,1467,10,-25,-1326
344,163,615,957,-1,-9,-1862
345,31,489,857,8,-11,-2033
346,150,581,984,-9,-7,-2004
347,2,341,290,-3,-25,-2004
348,148,198,890,14,-9,-2174
349,37,206,1112,24,-40,-2098
350,123,455,1420,-15,-15,-1768
351,-202,442,332,-9,1,-1549
352,-32,-9,1181,-5,-33,-1697
353,48,-19,943,-1,-33,-1719
354,167,-254,615,6,-1,-1367
355,-35,-15,1000,22,-21,-1365
356,-159,-460,877,-1,-21,-1615
357,-44,-270,850,-11,-13,-1848
358,-64,-411,671,10,-42,-1803
359,36,-647,974,-13,-3,-2088
360,53,-591,817,6,-40,-2274
361,-40,-775,1027,14,-29,-1848
362,-3,-918,1040,30,-19,-1465
363,-152,-781,831,2,-21,-1344
364,34,-872,1000,-9,14,-1307
365,-124,-922,984,4,-11,-897
366,-72,-955,872,-11,40,-266
367,-189,-855,990,4,26,289
368,111,-154,987,6,5,199
369,-30,-446,1014,20,-76,277
370,-40,-518,1000,1,-31,-287
371,19,-690,976,-1,-7,-362
372,-89,-731,911,-5,-9,-254
373,-16,-823,950,-11,-3,-35
374,73,-771,1065,-5,-5,224
375,-68,-735,975,-23,6,523
376,-102,-693,972,-3,42,799
377,-57,-593,991,-23,49,1023
378,-121,-346,914,-15,53,1346
379,58,-198,836,18,14,1912
380,49,-685,800,2,24,1488
381,-82,-173,536,28,16,1717
382,142,-164,1434,-7,6,1619
383,-10,-146,1223,-15,20,1638
384,189,167,1628,22,-17,2029
385,318,-278,-2,6,22,2010
386,86,25,632,-17,24,1900
387,-112,511,1317,1,18,1549
388,58,170,873,18,-13,1179
389,104,123,1218,4,-1,914
390,19,294,805,-21,28,1054
391,328,367,708,-3,20,1775
392,186,444,936,34,-9,2111
393,238,471,768,2,5,2369
394,324,640,1501,6,16,2367
395,277,695,830,-15,20,2172
396,126,1204,752,10,18,1691
397,137,1039,952,6,14,1240
398,271,1119,1013,8,5,383
399,107,983,1062,-1,-5,-145
400,1,832,995,4,1,-205
401,9,18,1002,-9,-1,-12
402,273,593,1023,-5,3,133
403,84,733,976,1,1,707
404,-12,932,913,1,6,1064
405,55,884,1140,-5,-1,709
406,-57,989,713,-9,-7,408
407,58,815,907,1,-19,-39
408,102,663,806,1,-31,-322
409,92,643,914,4,-23,-602
410,121,319,1284,4,-29,-738
411,116,504,918,-7,6,-520
412,18,479,1593,-13,-11,-641
413,-171,568,140,18,-29,-817
414,-148,394,1072,14,1,-1424
415,70,192,1128,-5,-37,-2049
416,39,67,960,-13,10,-2424
417,8,-44,792,4,5,-2803
418,-27,-134,1031,-17,-37,-3235
419,38,-334,1110,-31,-27,-3045
420,-22,-96,647,10,-25,-2682
421,8,-151,1224,-15,-15,-2047
422,-56,-524,1358,14,-5,-1994
423,18,-414,1111,-5,-11,-1922
424,149,-399,1075,-25,-9,-1225
425,-24,-561,1044,-27,-13,-1235
426,-32,-585,1023,28,-35,-1510
427,-76,-582,953,24,-21,-1504
428,15,-616,965,-7,1,-1358
429,25,-659,918,6,-27,-1348
430,96,-817,1220,1,-5,-1385
431,38,-794,1026,-13,3,-1092
432,-29,-868,1055,-11,-1,-809
433,-200,-644,1005,-7,1,-502
434,1,-41,1007,-1,-1,-14
435,78,-662,999,2,-3,-209
436,-62,-720,1070,2,-11,-1154
437,-64,-941,762,-7,-3,-934
438,12,-1051,1120,-7,-5,-440
439,-64,-899,872,-9,5,230
440,-99,-843,807,-29,26,724
441,-57,-930,1067,-35,14,1096
442,-263,-715,1167,-58,42,1297
443,-13,-488,1555,10,32,2000
444,-131,-387,1027,51,8,2500
445,-45,-400,1120,18,12,2588
446,-46,-258,1061,0,20,2693
447,48,-183,1122,24,-11,2781
448,-76,-185,928,-9,40,2705
449,-18,-109,1079,12,18,2703
450,81,-187,1006,6,38,2928
451,-11,-92,892,-11,4,3133
452,107,239,814,8,8,3285
453,98,42,1143,-5,36,3394
454,104,249,1212,2,14,3135
455,207,283,901,0,14,3246
456,183,431,1151,6,18,3049
457,142,681,1372,6,32,2873
458,169,784,879,-3,3,2760
459,265,1088,1007,24,14,2529
460,244,1151,909,12,8,1859
461,344,1200,1088,45,-23,1513
462,310,1205,1022,-2,4,1053
463,268,1177,1085,0,4,777
464,-3,8,1002,-29,14,295
465,522,734,1004,-25,3,-133
466,226,779,1016,-15,3,437
467,210,824,940,14,-15,728
468,169,912,1063,-7,-1,121
469,-1,907,918,2,-11,-571
470,91,717,975,-11,-1,-1129
471,113,593,900,-9,-23,-1463
472,-7,420,855,-2,-13,-1682
473,122,571,1058,-5,-9,-1955
474,68,426,1054,-9,-21,-2178
475,102,632,977,-9,-5,-2369
476,127,392,1112,10,-15,-2436
477,16,220,1003,-17,-13,-2990
478,153,155,1116,-2,-33,-3123
479,153,247,782,-31,14,-2903
480,50,-69,1104,6,-27,-3387
481,60,-200,816,-33,-23,-3723
482,5,-471,835,-9,-40,-3377
483,164,-215,1037,4,-29,-3254
484,144,-323,1154,4,-25,-3137
485,66,-484,1070,-11,-21,-2985
486,7,-457,906,-29,-19,-2473
487,-38,-561,1054,-29,-3,-2209
488,-63,-468,735,-7,-15,-2041
489,-83,-932,1063,16,-35,-1535
490,-77,-618,853,24,-9,-1209
491,-109,-876,1035,-2,-9,-1203
492,-129,-776,927,10,-15,-1211
493,-35,-819,1033,-2,-3,-996
494,-106,-819,978,0,-7,-756
495,-190,-739,999,-9,-1,-461
496,0,-16,1007,-2,-1,-10
497,82,-623,1004,6,-3,37
498,9,-779,1012,2,-9,-272
499,-11,-922,1014,-7,-3,-158
500,15,-1077,912,0,-1,459
501,22,-799,1352,-9,16,1125
502,25,-707,1144,14,-7,1660
503,-80,-652,1069,-23,26,1744
504,-66,-661,1033,-37,34,1808
505,-156,-451,728,6,14,1896
506,39,-561,963,20,20,2156
507,-82,-256,851,49,-5,2351
508,26,-231,1052,4,26,2392
509,45,-287,955,26,1,2597
510,29,-129,936,-2,34,2572
511,118,-191,1213,2,18,2603
512,63,-186,1249,22,28,2554
513,89,164,1041,-5,10,2732
514,38,-30,1090,14,14,2996
515,131,415,1392,-3,8,2763
516,478,263,436,-2,6,2711
517,196,359,1065,2,22,3094
518,65,505,1013,10,-5,3250
519,150,672,1168,12,16,2951
520,75,738,1105,2,28,2445
521,286,778,872,-27,14,2199
522,202,987,799,0,22,1922
523,237,1006,1033,6,3,1599
524,169,1112,896,0,-5,1006
525,118,1128,973,0,6,482
526,-191,340,1011,-3,8,92
527,351,547,995,-2,-1,-47
528,35,715,1061,-13,-3,-215
529,106,818,1039,-3,-3,347
530,-19,873,975,-9,-9,13
531,115,776,933,-3,-7,-528
532,114,721,1195,-2,-21,-1031
533,156,588,1212,4,-19,-1420
534,79,576,891,6,-5,-1778
535,124,602,1095,-2,-25,-1738
536,141,632,854,0,16,-1828
537,82,508,1018,-2,-7,-1928
538,134,306,1113,10,-37,-2279
539,60,248,1124,-3,-21,-2799
540,72,390,959,-13,-3,-2735
541,205,245,797,-29,-1,-2887
542,42,28,853,-1,-9,-2938
543,19,-120,668,-27,-33,-3334
544,152,-180,816,-9,-44,-3176
545,157,-292,695,10,1,-2846
546,86,-264,1045,-1,-3,-2565
547,7,-412,910,-19,-17,-2649
548,-35,-261,765,-25,-19,-2588
549,74,-410,574,-38,-35,-2418
550,31,-701,1016,3,-37,-2424
551,62,-401,886,-25,-13,-2379
552,-84,-734,593,16,-33,-1969
553,10,-515,941,-1,8,-1563
554,-112,-971,1604,6,-9,-1131
555,-73,-1036,930,-9,12,-1250
556,-98,-1031,1002,-5,10,-1090
557,-178,-952,982,-3,-1,-572
558,4,-89,993,1,-3,-41
559,-49,-663,975,1,-11,-135
560,-74,-813,931,-3,-11,-561
561,15,-874,962,-1,-11,-322
562,-80,-1130,436,1,-13,76
563,91,-852,1533,-15,-9,715
564,-10,-685,1366,-1,-1,1330
565,-132,-761,1241,-11,24,1596
566,-287,-642,797,26,12,1652
567,32,-542,1183,-1,26,1871
568,-93,-217,988,-15,34,2248
569,-131,-111,1509,47,6,2613
570,-16,-901,1697,24,5,2605
571,36,-241,643,-25,22,2310
572,45,-118,838,20,6,2596
573,-2,-178,825,-11,32,2781
574,35,-165,1053,6,12,2711
575,154,-153,1249,8,28,2814
576,-70,55,1131,16,-17,2976
577,19,140,989,22,-11,2904
578,16,249,708,22,28,2668
579,111,306,931,-7,30,2482
580,40,545,796,-1,3,2140
581,221,729,949,4,-3,1922
582,186,606,1108,12,10,1933
583,51,519,1051,-7,26,1566
584,152,961,1288,-11,10,1490
585,273,928,1170,3,18,1338
586,55,873,946,3,14,1060
587,169,1207,874,1,8,441
588,160,1154,1038,-5,-1,-53
589,66,64,1001,-5,3,-129
590,287,512,967,-7,1,-467
591,236,748,1035,-19,5,-914
592,36,774,1121,-11,-7,-328
593,136,826,1008,-3,-7,56
594,118,709,967,-7,-9,-272
595,72,540,967,3,-9,-600
596,-2,467,1072,10,-21,-686
597,47,624,1084,4,-7,-899
598,40,532,809,-3,-27,-1024
599,131,620,1181,-11,1,-1285
600,9,476,802,6,10,-1557
601,11,460,1178,6,-44,-1906
602,43,365,887,14,-35,-2248
603,129,140,1302,-15,-3,-2424
604,56,148,993,-3,3,-2305
605,43,-125,1230,10,-15,-2301
606,-49,-102,1041,-23,-33,-2606
607,-64,89,633,-29,-19,-2559
608,27,-314,684,-1,-21,-2293
609,-72,-33,1285,1,1,-2197
610,90,-463,1261,16,-31,-2237
611,-33,-350,813,-23,-21,-2352
612,-66,-449,380,-35,-7,-2281
613,-64,-804,1018,-1,-1,-1860
614,-78,-301,1062,16,-42,-1838
615,-105,-634,890,12,-40,-1776
616,-1,-671,1230,-11,-3,-1397
617,-151,-862,1169,20,-27,-1071
618,-125,-721,1121,1,-15,-883
619,-43,-713,1094,1,-1,-746
620,-37,-794,965,-5,5,-524
621,-5,172,985,-1,-1,-248
622,9,-209,1003,1,1,0
623,28,-462,992,1,-3,74
624,15,-736,1056,-1,-9,-383
625,-70,-643,1271,3,-11,-143
626,-146,-469,1218,-9,1,-141
627,-38,-543,1198,-11,8,174
628,-18,-790,781,-35,16,431
629,130,-592,888,-11,28,816
630,46,-614,987,-7,26,1203
631,-85,-322,700,-23,26,1888
632,19,-475,1105,26,-1,2420
633,-180,-230,1256,30,6,2283
634,81,-417,1035,-1,14,2084
635,-77,29,1287,4,18,2181
636,17,-277,791,3,12,2752
637,196,1,1137,4,22,2490
638,-100,24,769,16,26,2435
639,116,-122,792,1,12,2875
640,125,127,1353,16,-7,3146
641,193,60,862,22,10,2992
642,174,339,945,10,36,2844
643,201,392,1103,-1,26,2906
644,196,630,1277,8,-1,2531
645,339,731,1106,10,-7,2181
646,225,904,1109,4,16,1855
647,179,893,724,1,16,1338
648,265,960,863,-13,10,1060
649,294,1088,786,-15,10,549
650,200,1137,980,1,10,375
651,-137,336,1009,-1,6,47
652,443,625,979,-3,1,-395
653,260,825,952,-19,-1,-1067
654,109,1112,1066,1,-5,-211
655,256,1084,983,8,-23,-156
656,164,785,1231,2,-13,-715
657,48,709,1141,10,-13,-1233
658,62,484,909,-5,-19,-1740
659,137,493,714,-13,10,-2041
660,34,373,1115,-19,-25,-2112
661,-106,515,810,20,-40,-2416
662,140,255,886,6,-21,-2414
663,78,174,1126,-21,-9,-2328
664,164,222,1251,-23,-7,-2404
665,90,98,739,-13,-15,-2658
666,129,-19,981,-13,-37,-2977
667,-64,214,401,-17,-25,-2619
668,26,-472,1061,2,6,-2350
669,-24,265,1041,2,-23,-2426
670,15,-125,1033,4,-27,-2449
671,-24,-475,989,-7,-7,-2274
672,-54,-302,704,8,-21,-2115
673,-26,-686,927,-9,-19,-2074
674,-26,-784,788,6,-48,-2113
675,-56,-684,956,18,-29,-1830
676,-64,-677,805,-1,-19,-1571
677,-163,-840,1181,20,-19,-1508
678,-49,-896,869,-13,-17,-1426
679,-52,-765,1172,-5,-3,-977
680,-14,-954,954,2,-5,-397
681,307,-639,1022,1,-13,-117
682,-203,-431,1009,2,-1,8
683,-14,-441,940,6,3,439
684,1,-752,835,2,-3,234
685,-144,-707,986,1,3,-112
686,-32,-737,1066,1,8,-231
687,-72,-808,905,-11,3,203
688,-41,-934,1104,-25,20,762
689,78,-771,1056,-1,22,1084
690,-6,-573,1225,-21,26,1283
691,60,-627,633,-13,36,1441
692,-55,-509,915,1,18,1976
693,82,-259,1235,-23,44,2435
694,59,-147,1114,16,14,2306
695,-129,-513,772,-9,26,2185
696,63,-96,1233,-3,1,2523
697,-178,-128,776,12,6,2906
698,32,-330,618,22,28,2902
699,-110,-162,1033,1,18,2799
700,-3,138,1051,12,-1,2928
701,58,99,705,22,-3,3150
702,-38,183,734,14,5,2840
703,53,461,1053,-17,28,2586
704,217,516,1339,1,12,2707
705,112,619,701,18,3,2549
706,98,792,884,22,22,2150
707,280,909,1353,1,24,1619
708,261,863,903,-15,20,1232
709,264,977,1024,-3,18,1027
710,201,815,961,14,6,974
711,229,911,1138,1,6,687
712,12,864,1001,1,3,357
713,392,510,1004,-13,1,51
714,305,582,986,-5,3,-215
715,166,789,893,-1,-1,543
716,179,927,1012,-7,-9,824
717,24,845,982,8,-7,549
718,120,826,1016,14,-19,-256
719,-88,555,969,-1,-23,-1029
720,169,527,1199,6,1,-1735
721,23,437,929,-11,-5,-2094
722,90,392,1160,-21,-1,-2086
723,160,263,1227,1,-25,-2090
724,90,175,1052,22,-23,-2168
725,87,517,1170,-21,-23,-2272
726,204,200,1232,-23,3,-2168
727,40,233,833,-19,-5,-2291
728,-40,122,775,-9,-15,-2565
729,145,135,846,-15,-25,-2963
730,83,-153,996,-9,-31,-3113
731,68,-60,1414,-3,-13,-2887
732,41,-655,1283,14,-44,-2789
733,140,-470,1000,-25,-11,-3133
734,22,-431,1076,-46,-17,-3004
735,-25,-768,1240,-1,-3,-2227
736,-51,-359,722,22,-48,-2307
737,-49,-856,959,14,-37,-2153
738,-49,-752,1337,49,-31,-1758
739,-25,-936,1068,24,-25,-1653
740,-105,-911,1091,-11,3,-1791
741,4,-956,1173,-3,-19,-1623
742,-70,-883,935,-3,1,-1174
743,-49,-935,1012,-1,-7,-613
744,-25,-102,996,2,-11,-71
745,1,-515,1008,-1,4,224
746,67,-860,1048,2,-9,23
747,-19,-967,1099,4,-15,-90
748,9,-1082,883,-3,-7,99
749,55,-780,1165,-5,-3,596
750,115,-868,469,-15,8,918
751,25,-268,794,-46,26,1090
752,-69,-477,1333,-15,30,1064
753,143,-612,223,-29,44,1258
754,70,-498,545,-19,22,1853
755,96,-433,995,0,20,2252
756,166,-604,712,41,10,2467
757,-43,-398,1225,-25,22,2344
758,184,-211,1122,8,-9,2844
759,98,-86,991,26,22,3148
760,-223,27,315,32,18,3314
761,115,-125,282,6,18,3342
762,21,469,1368,24,-5,3289
763,51,257,1103,26,-9,3295
764,48,114,960,14,-5,2943
765,346,476,1177,-11,16,2506
766,271,560,1044,-5,30,2326
767,204,757,1239,18,1,2176
768,155,350,860,8,-5,1783
769,120,541,1173,0,18,1402
770,198,616,1010,-11,8,1492
771,74,727,926,-13,14,1568
772,217,901,1061,-11,3,1387
773,141,941,829,6,12,1353
774,36,976,969,0,3,937
775,233,688,924,-3,3,-551
776,130,328,990,-3,1,283
777,181,771,1017,0,6,-250
778,213,885,1008,2,-3,179
779,4,699,1193,8,-5,47
780,70,451,1319,6,-27,-690
781,296,638,934,0,-7,-1141
782,68,462,893,10,-13,-1315
783,116,517,747,-11,14,-1401
784,19,267,1002,-9,-9,-1447
785,35,432,802,12,-3,-1432
786,85,437,946,22,-13,-1817
787,107,136,1104,16,1,-1973
788,32,612,659,-19,-7,-2410
789,149,383,1311,-19,-11,-2547
790,65,-167,1083,-3,-33,-3108
791,11,-63,685,0,-19,-2776
792,269,162,983,-13,-15,-2705
793,108,97,852,-5,-3,-2354
794,128,-212,1118,-7,-27,-2416
795,-64,-192,970,-19,-40,-2404
796,-110,-360,1203,-9,-11,-2389
797,68,-360,921,0,-19,-2311
798,77,-672,947,0,-29,-2463
799,12,-706,1173,-3,-48,-2576
800,-178,-803,1069,-1,-23,-2086
801,-164,-651,794,30,-42,-1705
802,10,-874,969,-1,-17,-1565
803,-58,-648,796,-11,-5,-1307
804,-58,-856,735,0,10,-996
805,-41,-967,996,-5,1,-699
806,-12,-897,989,-3,-7,-432
807,-25,-34,1014,2,-5,-41
808,-87,-506,1045,6,1,271
809,-26,-747,1004,4,3,416
810,-13,-918,993,8,-7,144
811,-33,-834,933,-9,-5,68
812,-89,-784,1044,-1,1,383
813,-42,-653,995,2,-1,865
814,-23,-534,1004,-25,22,1008
815,-112,-568,347,0,26,1221
816,77,-95,1097,-5,16,1631
817,-13,-224,957,-11,44,1777
818,-59,-255,1128,-17,20,2056
819,-114,-111,1163,-13,26,2416
820,-94,-196,1504,26,3,2523
821,-30,-141,1232,-5,26,2277
822,28,-330,1308,0,1,2320
823,138,-110,853,2,14,2658
824,102,-162,1179,20,16,2824
825,-23,-164,1273,10,16,2777
826,194,252,1102,0,14,2541
827,-22,140,976,18,-1,2965
828,-23,90,339,16,-11,2830
829,127,343,1193,6,32,2734
830,172,394,1157,-9,32,2824
831,9,555,867,8,1,2808
832,157,526,1165,14,1,2513
833,231,584,781,0,22,2099
834,166,831,1314,-5,20,1695
835,372,727,931,-9,16,1424
836,246,902,963,0,12,1324
837,363,962,1259,8,4,1125
838,245,1037,999,-1,-3,523
839,15,-31,933,2,3,222
840,314,550,1009,-5,-3,-63
841,311,609,1025,-11,4,-633
842,175,783,1019,-5,10,-293
843,94,772,1096,-7,-7,-76
844,76,815,860,4,-15,-336
845,-71,952,1070,24,-13,-912
846,51,614,1008,12,-27,-1631
847,113,387,1008,-1,-11,-1875
848,103,311,1216,-11,-1,-1942
849,89,349,614,-29,-9,-1973
850,-8,601,1490,-1,-11,-2147
851,98,296,933,18,-31,-2547
852,-25,427,815,-23,-19,-2731
853,129,162,992,-27,3,-2852
854,116,-24,1367,-19,-15,-2912
855,15,-303,617,-25,-29,-3102
856,-91,5,888,-5,-27,-3170
857,-99,88,424,-7,-29,-2869
858,62,-36,904,-1,-7,-2649
859,30,-486,1112,4,-25,-2746
860,93,-502,1275,-3,-23,-2799
861,105,-402,1076,-1,-9,-2463
862,47,-615,865,20,-27,-2297
863,-40,-807,1004,-9,-11,-2490
864,-41,-941,1104,2,-17,-2389
865,84,-750,900,1,-23,-2024
866,35,-838,950,22,20,-1332
867,-198,-1008,1053,2,5,-1010
868,-254,-942,959,-21,83,-760
869,-127,-393,981,-7,77,-360
870,-62,-688,1001,2,-11,228
871,-196,-727,1108,10,-50,191
872,-119,-747,974,-1,-35,283
873,-102,-698,983,-3,-23,560
874,-68,-750,1097,-1,-81,984
875,-184,-761,929,-17,-37,1012
876,-26,-639,1266,-1,3,1215
877,-15,-513,1367,-3,24,1517
878,-191,-380,1238,1,22,1775
879,-92,-289,728,18,20,1888
880,-54,-264,1387,-13,12,2156
881,20,-337,788,8,6,2467
882,-89,-30,615,22,-15,2793
883,-34,-92,1072,-1,12,3033
884,66,-380,1030,10,26,2994
885,7,-81,1070,1,18,2941
886,-61,-167,1041,34,-7,3424
887,325,-279,674,10,26,3246
888,162,274,33,6,34,3092
889,240,632,1218,-5,28,3027
890,198,765,1511,-11,30,2846
891,228,520,1029,1,18,2551
892,235,765,773,30,5,2181
893,275,722,1223,2,18,1888
894,282,615,691,-15,22,1724
895,385,639,1133,-7,16,1736
896,290,786,996,6,10,1744
897,323,745,930,18,-1,1594
898,302,932,1025,10,1,1172
899,-95,59,1022,-7,8,396
900,332,405,980,-29,8,-272
901,191,480,1008,-35,6,-969
902,315,807,1008,-7,3,-24
903,185,711,1114,10,-9,179
904,111,679,1112,10,-9,-90
905,42,724,1158,-1,-11,-834
906,211,659,931,4,-19,-1371
907,185,579,995,-1,-15,-2123
908,194,558,1112,2,-21,-2500
909,313,344,843,-15,-11,-2619
910,343,435,924,1,-17,-2844
911,399,279,1318,4,-35,-3045
912,348,313,1086,-7,-27,-3237
913,266,228,1507,16,-38,-3344
914,491,-84,348,-37,-5,-3485
915,90,-153,844,2,6,-3348
916,200,134,992,-17,-31,-3836
917,147,160,567,-1,-9,-3647
918,180,-98,782,-19,-3,-3365
919,72,-220,877,2,-89,-3340
920,144,-448,1146,22,104,-3004
921,-75,-181,853,-13,169,-2906
922,-117,-389,963,-39,63,-3117
923,-41,-401,1058,-44,149,-3112
924,-225,-673,816,-48,81,-2928
925,-87,-787,1182,-56,-29,-3373
926,158,-297,1050,-23,12,-2789
927,-135,-714,958,-25,-9,-2213
928,-266,-835,1258,4,-40,-2104
929,-472,-992,1095,163,92,-2088
930,-350,-839,761,90,24,-2262
931,-465,-897,987,-31,73,-1586
932,-567,-465,984,-109,143,-1285
933,-170,-708,989,49,-64,43
934,-316,-866,1012,124,-179,142
935,-348,-868,1025,-50,-1,-389
936,-243,-582,1105,-144,-38,679
937,-240,-449,1018,-25,-15,1025
938,-224,-593,1022,12,20,1906
939,-26,-566,711,24,22,1879
940,-65,-627,1188,55,28,1953
941,-223,-468,851,10,36,2131
942,-210,-372,851,59,-33,2558
943,-66,-186,1029,26,-11,2431
944,-165,-218,975,57,-60,2844
945,-94,-281,1045,53,-216,2658
946,-4,-98,1011,-1,-81,2760
947,18,-207,666,1,-257,3556
948,140,-227,1112,-3,75,3176
949,70,82,1130,1,3,3539
950,151,310,988,42,6,3898
951,332,251,786,-3,16,3435
952,174,506,1258,24,-7,3080
953,175,567,883,1,14,2869
954,174,403,888,10,30,2010
955,111,414,1016,-3,51,1418
956,350,669,998,8,24,1357
957,192,883,682,10,20,1623
958,286,459,1305,-64,46,1156
959,338,611,1142,-7,18,945
960,355,709,994,-3,14,1027
961,432,672,964,1,-1,613
962,17,16,1054,-3,-1,344
963,104,182,990,-9,-1,-2
964,297,333,986,-38,28,-762
965,433,652,878,-23,6,-717
966,372,669,1281,6,-11,-438
967,296,716,1050,14,-42,-401
968,177,669,1569,-1,-11,-547
969,252,686,1767,-1,-7,-949
970,206,523,985,1,-50,-1815
971,357,461,983,-1,-37,-2010
972,288,460,739,-9,-29,-2248
973,153,153,1021,-23,-19,-2324
974,306,294,1170,44,-50,-2338
975,258,143,758,-25,-9,-2328
976,244,135,1152,-5,-19,-2912
977,136,330,912,-17,-15,-3301
978,47,-2,1373,1,5,-3203
979,71,-338,1089,4,-78,-3281
980,17,-128,884,1,-21,-3274
981,-205,-228,966,28,206,-2840
982,-68,-293,901,-27,55,-3039
983,-10,-180,1049,-35,112,-3006
984,-189,-240,954,-17,44,-2727
985,-155,-582,886,-33,83,-2463
986,-353,-616,1124,-37,-3,-2321
987,-178,-701,909,-44,8,-2260
988,-227,-385,689,-79,-60,-2072
989,-280,-468,696,-38,-9,-1434
990,-522,-836,821,-21,22,-1305
991,-253,-758,944,22,12,-1469
992,-331,-706,1014,4,12,-1156
993,-109,-480,986,4,5,-930
994,-251,-536,1009,8,-15,-524
995,-343,-616,1014,1,-5,-492
996,-243,-683,990,-5,18,-344
997,-281,-780,847,8,-27,183
998,-156,-630,1082,1,6,428
999,-157,-505,1056,59,3,1474
1000,-57,-404,1180,26,14,1744
1001,-150,-240,1044,92,-50,2125
1002,-307,-325,356,36,-1,1713
1003,-400,-178,989,63,-9,1965
1004,-205,22,999,-15,-13,1740
1005,-276,-182,1059,-5,16,1603
1006,-140,-369,1159,-3,-85,2748
1007,-69,-446,1090,42,-199,3142
1008,-132,-303,679,18,-201,3806
1009,43,-118,827,-3,-23,3892
1010,68,252,1139,-7,14,3762
1011,72,411,2048,-17,-19,3881
1012,263,557,1182,24,-11,3369
1013,88,487,1056,-3,18,2888
1014,166,389,812,-17,63,1658
1015,310,407,684,-11,53,736
1016,483,270,528,-17,57,1043
1017,310,359,1034,-5,40,1111
1018,187,607,993,-1,8,1355
1019,390,621,1096,14,6,1732
1020,459,575,1110,6,5,1779
1021,478,705,651,8,5,1420
1022,582,812,921,4,6,1117
1023,540,613,1028,1,-1,709
1024,-4,13,1005,-7,-1,49
1025,345,572,974,-13,16,-158
1026,535,672,1025,-15,12,-758
1027,269,948,655,-1,-7,-434
1028,416,749,1233,-7,-13,-725
1029,235,681,710,-23,6,-1365
1030,369,522,921,-23,-3,-1721
1031,303,114,978,-13,-21,-1877
1032,380,392,565,-9,-21,-2278
1033,375,132,1430,12,-46,-2387
1034,453,428,548,6,-72,-2426
1035,228,273,977,4,-33,-2354
1036,250,419,947,-3,-21,-2928
1037,222,197,1093,-1,-46,-2697
1038,-26,91,1292,4,12,-2500
1039,110,-22,1696,20,-3,-2889
1040,47,-140,1185,-3,-29,-3279
1041,11,-272,1003,8,1,-2942
1042,15,-273,937,-31,130,-2756
1043,-107,-297,890,-3,198,-2221
1044,-188,-352,1236,1,47,-2008
1045,-27,-142,1161,-15,90,-1807
1046,-317,-507,383,20,63,-1658
1047,86,-222,1286,-42,12,-1908
1048,-352,-441,1039,-13,-27,-1526
1049,-40,-257,1051,-60,26,-1430
1050,-154,-327,1077,-48,-27,-1360
1051,-221,-540,1003,-42,42,-1170
1052,-262,-620,941,-13,10,-1154
1053,-383,-715,893,-1,-5,-600
1054,-420,-705,885,2,14,-272
1055,-146,33,1007,1,6,-264
1056,-289,-443,1003,1,-3,-76
1057,-473,-469,994,-3,-13,117
1058,-441,-603,1353,-7,-17,344
1059,-336,-520,935,-1,5,74
1060,-249,-561,993,20,-11,728
1061,-119,-450,1183,18,-21,941
1062,-223,-286,1109,30,38,1500
1063,-379,-511,744,61,-42,1910
1064,-210,-506,704,1,44,2334
1065,-346,-479,822,8,-15,2347
1066,-269,-104,1030,-19,51,2385
1067,-125,-216,1144,10,-187,2974
1068,-119,-142,1154,-15,-142,2338
1069,-248,-260,843,34,-300,2625
1070,-30,-339,1245,-1,55,2435
1071,116,-214,925,-31,5,3260
1072,52,62,1075,4,16,3351
1073,84,-111,912,43,51,4107
1074,322,99,915,12,44,3810
1075,189,138,781,40,47,4023
1076,385,221,1017,1,67,3418
1077,520,646,526,24,44,3017
1078,679,601,559,22,18,2658
1079,644,774,1030,1,30,1939
1080,481,791,1110,24,5,947
1081,325,624,1294,-1,20,258
1082,550,548,825,1,16,-67
1083,515,533,1064,-5,-3,-63
1084,541,341,933,-3,-21,60
1085,440,74,988,-1,-11,176
1086,11,8,1008,-3,16,33
1087,510,522,1015,-11,36,-197
1088,590,697,942,-35,44,-912
1089,465,692,927,28,-40,-670
1090,369,689,886,-9,-9,-1076
1091,555,504,813,-25,-5,-1446
1092,321,277,399,-11,-38,-1582
1093,201,345,707,-7,-27,-1717
1094,396,201,1414,-5,-35,-1723
1095,313,72,1018,-33,-7,-1633
1096,512,43,373,-21,-58,-1717
1097,290,119,1482,-1,-52,-1774
1098,198,275,880,-31,-44,-2434
1099,16,78,1432,1,-23,-2406
1100,422,361,1153,14,-76,-2668
1101,22,227,950,-11,-13,-2791
1102,1,48,975,18,-33,-3082
1103,-81,-601,874,26,-40,-3016
1104,-102,-469,887,-23,36,-2994
1105,-80,-208,1141,6,227,-2881
1106,-201,-375,892,-9,32,-2487
1107,27,-67,918,-15,131,-2465
1108,-361,-432,1058,24,49,-2459
1109,-29,-354,942,-58,22,-2680
1110,-359,-637,986,-5,-31,-2141
1111,-148,-465,979,-44,14,-1760
1112,-484,-588,1064,-27,-38,-1586
1113,-188,-558,932,-58,44,-1108
1114,-331,-536,796,10,12,-721
1115,-321,-546,1012,20,-1,-98
1116,-411,-408,1047,8,5,-102
1117,-253,-310,1001,1,10,-29
1118,-247,-359,1079,1,6,238
1119,-331,-425,985,4,3,568
1120,-274,-442,1140,2,-1,822
1121,-297,-502,1020,-1,-9,1289
1122,-283,-343,1032,2,-23,1592
1123,-341,-167,1001,2,16,1783
1124,-67,-169,1631,2,-23,1929
1125,-117,-72,1508,49,-68,1900
1126,-406,-6,926,-5,-1,2326
1127,-127,-161,1192,-3,-5,1576
1128,-370,9,1112,63,-15,1599
1129,-620,-167,716,-19,3,1773
1130,-364,-70,1082,20,8,1517
1131,-171,120,887,-21,-42,1810
1132,-254,94,877,22,-230,2283
1133,-282,44,1035,18,-234,2135
1134,-359,129,1206,-1,-19,1732
1135,137,269,894,-17,65,1304
1136,193,404,1377,-35,8,1152
1137,-9,328,1141,-5,-3,795
1138,351,-37,1087,2,75,508
1139,81,-23,639,12,79,125
1140,422,59,1725,-17,75,541
1141,277,15,907,14,-11,986
1142,201,83,746,1,40,1547
1143,305,61,884,4,6,1826
1144,133,108,549,-15,-27,1885
1145,374,107,1228,-13,-3,1758
1146,477,125,996,-21,5,1502
1147,401,105,1031,2,34,1166
1148,758,76,1008,14,40,801
1149,403,75,847,14,34,756
1150,502,-7,1133,6,14,812
1151,453,61,950,18,10,722
1152,196,-78,1015,1,8,572
1153,81,25,1005,2,6,13
1154,754,145,1037,2,-1,-164
1155,679,108,966,-19,-15,-854
1156,469,43,966,-5,-31,-444
1157,534,-45,820,-23,-25,123
1158,566,-38,1054,-9,-19,-67
1159,202,-89,958,10,-15,-113
1160,379,38,1060,14,30,-96
1161,940,-50,1058,-3,24,-367
1162,252,187,997,14,-56,-658
1163,321,-27,980,12,-54,-844
1164,419,-183,482,-35,-35,-1088
1165,130,-198,1610,8,-70,-1022
1166,302,-79,1172,30,-50,-944
1167,464,22,1169,38,-60,-1092
1168,28,81,812,10,10,-1098
1169,-80,-41,1019,-1,22,-1096
1170,-101,157,1138,-3,280,-1110
1171,-389,46,1188,8,194,-1524
1172,-75,-146,1313,-31,14,-1446
1173,276,-75,896,-11,-5,-1356
1174,-820,-87,1537,20,1,-1227
1175,-400,-191,858,-5,-58,-1121
1176,-716,133,1198,-7,-107,-973
1177,-372,-148,1414,-56,-150,-869
1178,-542,-79,1735,-62,-171,-860
1179,-867,-28,450,-29,-128,-608
1180,-733,-178,952,2,-62,-197
1181,-575,-45,1215,-9,-120,-295
1182,-786,64,950,-13,-37,-237
1183,-696,164,1012,4,-19,-172
1184,12,20,1008,1,-5,-33
1185,-724,-130,1041,-7,1,152
1186,-563,101,973,-17,26,631
1187,-887,-85,234,16,44,804
1188,-459,-125,905,-19,65,277
1189,-425,-163,1404,-9,118,115
1190,-514,53,1284,32,120,279
1191,-807,-57,1341,20,141,414
1192,-445,-119,1466,65,120,459
1193,-348,-111,816,-7,133,953
1194,-7,-214,909,-15,69,1097
1195,-248,-94,628,40,-74,1728
1196,-163,27,731,30,-17,1687
1197,-632,97,818,40,6,2092
1198,-128,240,936,-1,-48,248
1199,345,143,964,-17,-224,-45
1200,204,-53,1050,-13,-283,797
1201,270,-388,1229,4,14,1877
1202,453,-370,937,-5,-27,2388
1203,122,35,999,40,-9,2920
1204,184,-38,988,34,69,3082
1205,282,202,984,-11,85,2019
1206,195,377,446,-3,42,1496
1207,443,195,940,2,38,1369
1208,314,98,833,2,55,908
1209,329,116,1446,-3,34,185
1210,484,-152,1037,-7,-23,-41
1211,366,-205,970,-9,18,533
1212,767,-236,1005,-13,-25,967
1213,597,-108,981,-11,-11,1324
1214,610,120,991,2,1,1181
1215,133,-133,1009,8,5,832
1216,600,91,989,2,32,-72
1217,532,34,974,2,6,-1002
1218,696,-54,1049,1,-3,-1418
1219,566,8,1063,6,10,-793
1220,332,79,935,4,-11,-494
1221,453,-22,851,1,-3,-569
1222,224,-28,938,-33,-29,-719
1223,561,-199,933,-9,-9,-438
1224,417,-179,1095,-1,-66,-418
1225,283,-188,1088,-29,-23,-547
1226,169,191,-366,-3,-62,-701
1227,139,-5,1116,38,-68,-863
1228,439,-29,936,43,-62,-1061
1229,-5,-125,869,-13,-17,-1321
1230,-376,-104,825,-15,-3,-1010
1231,89,-69,1022,36,40,-940
1232,-407,-112,914,14,161,-1139
1233,-331,-131,1188,6,102,-1033
1234,-10,-176,993,-1,-9,-863
1235,-400,-83,926,-23,30,-768
1236,-609,-24,741,22,-31,-203
1237,-256,-1,1309,-89,83,-313
1238,-689,67,1030,8,-87,88
1239,-659,136,994,4,-52,304
1240,-769,-51,1145,-5,-64,406
1241,-450,124,780,2,-113,551
1242,-739,120,904,-21,-56,406
1243,-569,164,1091,-4,-35,537
1244,-567,222,1019,-7,-7,654
1245,-297,484,1009,6,-1,1017
1246,-566,-40,1004,-4,8,1074
1247,-791,70,844,4,14,906
1248,-571,197,1059,12,44,1096
1249,-850,219,1340,2,90,722
1250,-594,29,920,16,96,219
1251,-623,300,1364,6,53,135
1252,-136,75,629,10,87,849
1253,-597,20,984,-15,6,1430
1254,-100,150,953,26,-48,1119
1255,-20,53,1093,-9,28,1207
1256,-599,182,923,-13,-31,1535
1257,-149,23,954,24,-13,1455
1258,167,75,1217,-23,-64,957
1259,43,-21,884,-62,-367,1594
1260,-211,70,912,-9,88,1471
1261,42,-75,951,8,47,1170
1262,379,32,969,53,12,1037
1263,-67,-11,902,0,44,1515
1264,-227,105,707,-33,65,1488
1265,417,-74,1074,-50,69,861
1266,311,-86,1276,26,42,349
1267,550,-173,1154,10,26,625
1268,105,-136,874,4,44,879
1269,280,-176,799,0,16,678
1270,409,-79,994,-11,18,769
1271,559,-158,983,-9,-19,730
1272,299,-122,1017,-2,45,613
1273,347,-32,913,18,26,-67
1274,426,-119,1059,26,14,-297
1275,518,-229,1051,-7,4,-211
1276,570,-283,978,10,3,6
1277,452,-121,984,0,1,260
1278,4,-3,1010,-4,3,43
1279,742,-89,1006,-6,-1,-184
1280,609,-141,1030,4,-17,-1492
1281,412,-220,649,-13,-17,-1637
1282,644,-111,878,-7,-13,-990
1283,490,-140,1121,-29,-40,-840
1284,181,28,961,-13,-31,-901
1285,376,74,691,10,18,-891
1286,341,33,1131,16,-13,-799
1287,603,69,1416,-2,-11,-787
1288,182,-15,984,-2,-54,-1092
1289,339,-81,1434,6,-66,-1319
1290,473,-238,1282,-62,4,-1233
1291,567,-193,1214,-4,-58,-1078
1292,201,-148,780,6,-60,-1127
1293,160,-227,1118,-2,-56,-1051
1294,-295,92,1346,-13,28,-1104
1295,-29,14,739,28,-7,-1180
1296,-33,-69,1114,34,176,-1100
1297,-43,18,825,24,137,-1315
1298,-263,-36,1032,24,59,-1371
1299,-334,-202,1123,-41,45,-1330
1300,-735,13,931,-6,22,-959
1301,-153,29,830,-27,-9,-1151
1302,-689,36,1252,-39,-66,-945
1303,-429,62,1472,-2,-191,-752
1304,-443,-78,1074,-23,-128,-856
1305,-578,-106,1062,-60,-122,-662
1306,-727,-60,607,-41,-68,-209
1307,-897,130,854,47,-72,-43
1308,-691,169,901,45,-52,70
1309,-449,343,1025,16,-19,49
1310,-369,-57,1072,12,1,658
1311,-1210,-43,850,-17,26,1017
1312,-740,23,1133,-52,57,1226
1313,-385,-14,1226,-17,120,513
1314,-885,98,1839,-23,114,236
1315,-687,243,1013,49,47,377
1316,-616,90,619,-17,215,607
1317,-606,18,1942,22,69,840
1318,-492,122,1325,-19,55,1080
1319,-245,267,1273,90,-87,1137
1320,104,72,885,-4,22,1496
1321,-730,279,992,-6,-33,1642
1322,264,-49,1017,-49,-150,937
1323,120,42,1155,-9,-5,1004
1324,7,-60,1130,-47,-199,1865
1325,208,43,1236,18,34,1974
1326,401,-46,897,28,-21,1543
1327,92,164,732,-41,53,1953
1328,-39,205,496,-4,92,1297
1329,227,192,556,20,61,111
1330,533,-8,882,37,18,-434
1331,120,-93,1078,14,44,-225
1332,342,-276,748,2,40,-37
1333,243,-183,995,-31,-11,215
1334,567,-237,1004,-15,-33,490
1335,518,-195,1046,-4,28,430
1336,508,-267,945,24,30,217
1337,447,-115,1293,22,14,521
1338,495,-148,1047,-6,22,621
1339,501,-153,1099,0,8,330
1340,429,-157,1029,8,1,51
1341,138,-212,1002,24,-17,-121
1342,308,53,999,2,1,-153
1343,525,-117,942,-21,-5,-938
1344,421,-212,1091,-9,-11,-1309
1345,440,-328,919,0,-27,-1100
1346,430,-405,930,-17,-23,-721
1347,340,-375,1035,0,-33,-285
1348,144,-200,1021,-35,-17,-274
1349,264,-152,1153,18,3,-465
1350,142,-266,759,12,26,-602
1351,307,-306,1165,26,-13,-598
1352,282,-191,1004,-5,-25,-836
1353,144,-160,1039,-3,-54,-729
1354,320,-157,1120,22,-48,-561
1355,161,-135,1467,-48,-11,-553
1356,29,-182,1275,-5,-64,-293
1357,-185,-6,820,-9,-46,-225
1358,81,-103,963,30,-21,-213
1359,-61,-236,1066,20,-23,-201
1360,-190,-288,946,-23,26,56
1361,27,-154,1096,10,18,402
1362,-270,-205,937,34,57,545
1363,-181,3,914,49,241,471
1364,-258,338,1048,0,26,715
1365,-307,297,1066,0,22,781
1366,-452,446,921,32,32,375
1367,-368,361,1011,-21,6,285
1368,-358,384,1068,-13,6,603
1369,-481,351,1020,14,8,892
1370,-441,422,643,-5,28,1037
1371,-425,808,535,-11,14,894
1372,-392,571,1081,-11,-3,867
1373,-444,564,989,-3,-1,631
1374,-18,3,994,-7,-3,129
1375,-600,426,1024,-5,-7,29
1376,-604,637,934,4,6,1127
1377,-355,524,1177,12,14,2008
1378,-400,609,1050,18,-15,1320
1379,-267,523,1121,14,-27,451
1380,-449,605,662,26,-9,99
1381,-240,252,898,-5,1,113
1382,-263,319,1057,-7,-25,400
1383,-128,342,1132,-19,-29,490
1384,-54,212,1004,-39,-126,-39
1385,-135,176,971,-21,-38,29
1386,-383,376,856,-46,-290,-211
1387,-50,363,941,8,12,-223
1388,-40,116,674,-15,47,-570
1389,-28,269,986,10,-7,-856
1390,37,-71,608,-9,-35,-1102
1391,49,111,1057,-62,69,-949
1392,192,89,1286,-15,44,-885
1393,135,40,1289,0,20,-727
1394,242,-312,1045,36,6,-766
1395,-24,-254,1874,47,-54,-787
1396,101,-239,1052,-5,24,-490
1397,133,-253,931,-23,22,-389
1398,223,-382,974,-2,8,-340
1399,189,-427,869,-17,-42,-362
1400,221,-372,1029,-5,-25,-369
1401,326,-469,1346,2,-103,-518
1402,204,-378,909,10,14,-451
1403,269,-441,820,-2,34,-391
1404,372,-555,967,10,28,-246
1405,300,-580,919,14,18,-149
1406,285,-583,1045,2,8,-108
1407,3,-12,995,0,4,0
1408,453,-331,990,-2,-1,-12
1409,404,-543,1036,-2,-13,-445
1410,288,-545,878,-7,-21,-606
1411,381,-516,1194,2,-35,-326
1412,299,-501,951,2,-19,-18
1413,287,-621,896,-7,22,-96
1414,193,-674,1139,8,81,-133
1415,153,-537,991,0,20,-35
1416,91,-606,1092,28,22,-168
1417,307,-511,834,2,-9,207
1418,-67,-404,1426,22,-15,428
1419,92,-287,2048,36,-40,637
1420,181,-407,1748,26,22,748
1421,169,-142,1262,-27,10,566
1422,176,-59,712,-39,-25,816
1423,30,158,1088,-17,-62,586
1424,252,-248,1008,38,-25,430
1425,92,-217,975,-9,-27,287
1426,180,-269,1211,-46,53,615
1427,144,-4,809,4,20,890
1428,-148,160,974,38,153,879
1429,-249,399,955,43,231,721
1430,-71,166,1191,30,20,941
1431,-164,196,1022,12,6,793
1432,-335,546,725,2,16,711
1433,-200,296,1189,-15,18,1281
1434,-255,602,1134,0,10,1013
1435,-388,645,711,-39,4,1137
1436,-351,986,1068,6,-33,1090
1437,-270,1074,1441,-27,-35,664
1438,-134,726,958,-25,-7,363
1439,-289,618,994,-19,-29,2
1440,-401,709,1022,-7,-17,-39
1441,-451,219,993,-9,-5,58
1442,-13,34,1003,-4,1,2
1443,-376,511,1035,4,-7,-86
1444,-456,914,1044,12,8,664
1445,-319,582,1018,18,16,1244
1446,-480,595,457,10,10,920
1447,-332,752,1445,22,28,86
1448,-171,576,1153,4,24,-244
1449,-103,438,1141,39,8,-598
1450,-105,228,901,2,-15,-834
1451,-79,225,1090,26,-3,-936
1452,-133,662,1131,-2,-13,-973
1453,-84,425,924,-2,-21,-758
1454,-67,494,1147,-29,-27,-1217
1455,-73,553,946,-39,-35,-1176
1456,33,83,1126,-7,-140,-1313
1457,69,-121,1437,-52,-216,-1613
1458,249,191,1618,-17,-25,-1389
1459,-97,122,729,8,-11,-1473
1460,28,-96,953,8,-23,-1336
1461,161,-263,984,10,30,-1563
1462,-19,83,977,-6,8,-1504
1463,245,-147,683,-2,18,-1317
1464,-45,-122,254,8,4,-1397
1465,283,-385,-309,4,14,-1444
1466,195,-543,1220,49,-17,-1305
1467,171,-478,1203,12,8,-1137
1468,276,-751,1209,4,8,-969
1469,296,-695,1019,24,-17,-465
1470,327,-778,530,10,-7,-588
1471,283,-314,1204,407,182,-279
1472,419,-773,1129,-103,51,-309
1473,398,-534,1311,-4,38,-227
1474,328,-725,1304,71,-136,-403
1475,-41,-509,1054,14,-21,-164
1476,475,-331,951,-49,53,-237
1477,311,-423,915,53,-25,-471
1478,174,-416,1040,53,-29,-654
1479,188,-586,710,-60,4,-623
1480,206,-529,598,37,-1,-295
1481,143,-661,974,-86,-89,10
1482,147,-643,906,-519,-279,203
1483,153,-238,983,-41,18,-8
1484,188,-480,1150,-11,-3,703
1485,-132,-603,1289,-13,-31,359
1486,86,-227,2048,-19,-25,416
1487,72,-190,940,-15,-19,722
1488,90,-225,1103,8,-31,512
1489,55,-281,673,-7,-13,451
1490,246,-275,1327,-33,1,762
1491,96,-347,1022,45,-9,783
1492,-136,174,1362,-37,3,904
1493,-228,352,880,4,-3,1201
1494,76,135,822,6,24,1201
1495,66,-12,725,28,6,1158
1496,-257,30,885,2,-17,1060
1497,-201,146,1241,8,161,1133
1498,-100,216,929,34,141,1441
1499,-210,483,913,39,22,1904
1500,-104,598,903,16,-13,2078
1501,-221,601,988,2,26,1547
1502,-273,932,1165,-2,34,1299
1503,-215,990,1405,0,8,1138
1504,-290,955,1029,0,12,525
1505,-229,756,992,-4,10,101
1506,-252,678,994,-6,3,-14
1507,5,5,1010,-11,20,-6
1508,-127,379,1007,-2,-5,-8
1509,-344,653,1016,6,-7,269
1510,-483,1038,821,4,8,1012
1511,-239,924,1111,0,4,1025
1512,-160,947,949,0,1,523
1513,-146,667,988,14,3,10
1514,1,288,1041,8,-50,-320
1515,-78,441,1054,-11,-33,-651
1516,-104,566,953,-21,-15,-647
1517,-49,438,1103,-49,-46,-832
1518,74,238,1075,-35,-148,-1297
1519,-225,402,957,-39,-160,-1436
1520,-14,168,1043,30,32,-1194
1521,-40,0,949,-17,4,-1104
1522,-153,-52,802,-2,-21,-1510
1523,-66,-353,672,-4,-27,-1393
1524,86,-150,798,10,14,-1367
1525,105,-332,828,-21,8,-953
1526,139,-292,645,-9,24,-608
1527,66,-123,971,-13,1,-680
1528,277,-413,1040,34,-3,-973
1529,268,-605,1401,4,3,-1201
1530,306,-524,1075,20,-5,-1160
1531,303,-698,1148,10,4,-1094
1532,257,-730,930,4,8,-899
1533,312,-494,1375,8,-15,-764
1534,272,-745,1098,2,-3,-488
1535,231,-759,931,0,4,-301
1536,106,-769,980,-6,-1,-293
1537,202,-126,1000,0,8,-178
1538,341,-492,1066,-2,-3,-522
1539,150,-516,1126,-7,-9,-994
1540,359,-807,880,-15,-13,-791
1541,152,-652,958,-15,-7,-680
1542,102,-500,724,-10,-17,-725
1543,197,-310,1191,-19,3,-658
1544,240,470,558,2,3,-272
1545,128,-534,2048,20,-9,-154
1546,498,-154,893,-15,-35,72
1547,336,-231,1125,-4,-25,336
1548,50,-450,624,-2,-17,465
1549,-467,-352,463,-21,-11,596
1550,106,-681,1241,71,-25,1066
1551,-80,-767,-189,-58,22,863
1552,-119,-460,305,20,-7,1578
1553,16,-95,687,16,24,1896
1554,-262,-144,545,8,30,2226
1555,33,143,1058,2,8,2318
1556,-18,273,921,12,53,2412
1557,-118,570,1068,41,161,2301
1558,-230,855,1140,47,126,2181
1559,-167,695,1001,28,8,2129
1560,15,693,1278,0,12,1588
1561,-281,646,1012,-10,20,1107
1562,-268,746,1057,0,38,789
1563,-114,382,601,-4,18,1137
1564,-212,761,999,-2,-9,1250
1565,-217,815,967,6,-9,898
1566,-63,705,996,-2,-7,656
1567,-176,112,1000,0,-3,451
1568,-388,432,987,-2,-3,828
1569,-393,685,1003,0,10,1437
1570,-360,904,1000,-6,24,1094
1571,-203,794,995,-10,-1,580
1572,-232,784,937,-19,-44,-74
1573,-316,841,751,-8,-27,-631
1574,-174,604,936,-2,-31,-549
1575,-101,241,961,-12,-35,-506
1576,-70,113,1254,-49,-128,-914
1577,-426,445,633,-43,-85,-985
1578,-692,608,303,-17,-39,-916
1579,-249,429,633,4,-7,-1279
1580,272,164,1489,41,-44,-1346
1581,32,-100,858,0,1,-1545
1582,-1,292,980,-29,8,-1613
1583,195,187,1341,-12,40,-1350
1584,105,-9,454,-10,42,-1112
1585,298,-155,567,45,3,-1213
1586,465,-463,558,61,-23,-1490
1587,155,-101,1168,-10,12,-1694
1588,270,-239,852,0,4,-1930
1589,148,56,478,-21,10,-2125
1590,296,-363,1176,2,-21,-2240
1591,337,-396,1068,6,-19,-2574
1592,342,-575,1208,20,-48,-2332
1593,-488,-139,-1491,705,403,-1945
1594,448,-566,1198,-285,524,-1721
1595,347,-552,923,-140,155,-1473
1596,187,-619,809,-49,-23,-1197
1597,208,-797,1043,-41,102,-904
1598,71,-678,858,-27,-115,-947
1599,74,-613,1031,18,-29,-682
1600,258,-487,934,-2,-15,-764
1601,208,-557,1045,72,-44,-651
1602,274,-706,950,12,-5,-629
1603,232,-632,938,-49,10,-352
1604,-14,-814,575,-54,-58,-51
1605,-608,-110,241,-15,16,84
1606,-229,-930,466,0,-31,226
1607,72,-535,1325,-51,47,256
1608,464,-1542,2048,-82,-273,531
1609,-252,-134,742,113,-167,529
1610,55,-422,1825,-23,18,1324
1611,-121,-341,1037,-23,6,1471
1612,-356,-309,1464,-2,-15,1502
1613,210,-410,553,6,-7,1635
1614,-151,-433,925,-17,28,1777
1615,-102,-170,957,10,12,2045
1616,-46,-98,629,-33,-3,2463
1617,-53,67,1218,12,-9,2607
1618,-296,15,1109,-12,18,2562
1619,-102,-213,1737,-13,4,2428
1620,83,171,733,0,14,2664
1621,-77,294,753,8,-17,2875
1622,10,440,909,12,-3,2748
1623,64,430,1207,4,14,2328
1624,-83,587,911,16,-17,2221
1625,0,643,1033,-4,10,1728
1626,52,662,952,33,-7,1361
1627,78,678,1082,33,8,916
1628,150,743,965,-6,16,810
1629,178,786,1042,4,16,812
1630,216,891,984,10,4,861
1631,214,879,950,10,-3,865
1632,169,1128,1020,14,-7,660
1633,-118,734,1006,0,-1,340
1634,396,741,984,-29,3,-740
1635,157,1057,955,-23,-1,-934
1636,31,1077,920,-6,-9,-377
1637,127,984,1036,0,-7,-369
1638,72,997,833,-2,-11,-910
1639,115,719,1135,10,-13,-1213
1640,125,566,742,10,-23,-1588
1641,134,493,903,-13,-11,-1914
1642,21,378,970,-2,-25,-2057
1643,89,372,1183,-9,-27,-2061
1644,113,332,1100,10,-21,-2145
1645,272,403,1116,-13,-33,-2438
1646,79,176,771,-17,-11,-2707
1647,179,304,1017,-31,-3,-2793
1648,72,155,972,-4,-31,-2945
1649,-24,273,566,-15,-27,-2856
1650,76,44,1075,-11,-7,-2903
1651,71,-65,932,6,-23,-2893
1652,57,-363,1062,-4,-44,-3072
1653,25,-452,1162,0,-35,-3237
1654,-20,-383,931,-2,-3,-3205
1655,55,-560,879,-15,-5,-2903
1656,-38,-757,820,4,-29,-2631
1657,42,-819,958,-11,-3,-2272
1658,-43,-846,573,-41,-21,-1834
1659,-127,-1056,762,4,-27,-1434
1660,-84,-1096,1216,20,-19,-1244
1661,-158,-841,1675,-2,-15,-1029
1662,-54,-917,995,12,-21,-664
1663,-189,-797,1013,-15,-7,-260
1664,37,-381,1028,-2,-1,78
1665,-12,-577,935,-2,-3,133
1666,110,-909,954,10,-13,-59
1667,-219,-769,776,-8,10,-268
1668,-44,-558,1143,-11,1,-96
1669,-53,-659,1267,-4,26,197
1670,79,-579,1586,0,22,728
1671,23,-776,1069,0,4,1244
1672,-75,-511,1178,0,20,1447
1673,-91,-301,1116,26,6,1484
1674,-17,-545,897,-8,14,1613
1675,36,-511,1270,-6,16,1980
1676,-24,-537,1156,28,3,2131
1677,-135,-389,756,10,45,2090
1678,-136,-15,1655,-4,3,2174
1679,261,180,1195,-8,22,2209
1680,73,-16,909,-2,-15,2496
1681,-160,-157,676,2,6,2711
1682,-18,-122,1068,-11,30,2787
1683,-14,255,856,-6,-1,2586
1684,39,162,997,12,16,2500
1685,224,145,849,12,47,2260
1686,100,319,1044,2,45,2080
1687,104,502,902,30,10,2012
1688,280,542,1641,26,30,2197
1689,162,572,874,12,18,1955
1690,196,760,797,2,20,2088
1691,146,845,1075,20,44,1924
1692,208,985,952,2,14,1754
1693,213,1095,1219,16,8,1474
1694,86,1238,911,8,1,1123
1695,144,1355,1018,2,-3,517
1696,185,442,999,-6,12,49
1697,193,673,980,0,18,70
1698,167,855,1000,2,14,236
1699,49,823,1220,0,-11,455
1700,44,744,1107,-9,-1,158
1701,-16,679,1199,-2,-5,-367
1702,123,585,872,-9,-29,-690
1703,20,734,514,4,-19,-899
1704,-63,437,509,16,-33,-1078
1705,168,232,959,-6,-37,-1190
1706,116,258,1036,-13,14,-1289
1707,128,543,824,-11,-60,-1604
1708,43,206,1376,10,-3,-1705
1709,174,290,626,-2,-29,-1881
1710,54,158,991,-11,-11,-2170
1711,68,239,873,-2,-48,-2455
1712,18,64,777,8,-35,-2561
1713,74,-61,762,-4,1,-2699
1714,195,2,1171,-17,1,-2838
1715,192,179,1310,-6,-3,-2897
1716,-17,-16,766,10,-33,-2822
1717,17,-596,920,-9,-78,-2854
1718,99,-197,909,-4,-40,-2852
1719,96,-801,1236,8,-25,-2510
1720,-69,-590,1034,8,8,-2444
1721,16,-675,1097,-15,42,-2278
1722,-30,-777,1091,-15,98,-2141
1723,24,-632,940,0,88,-1871
1724,-112,-646,1193,-15,85,-1615
1725,-44,-971,1090,-8,69,-1426
1726,-108,-523,1068,-2,26,-1301
1727,-140,-798,999,-15,-1,-1293
1728,-185,-873,1039,-17,3,-1090
1729,41,-206,1012,-4,6,-313
1730,-7,-663,1047,0,-7,90
1731,-19,-870,1141,4,-15,-238
1732,-35,-798,1373,-4,-13,4
1733,44,-1040,50,-4,-9,537
1734,-152,-513,1559,0,-44,1273
1735,-67,-367,1056,22,-56,1553
1736,-83,-578,1012,18,-60,1492
1737,-132,-437,826,10,4,1293
1738,-45,-346,929,0,-15,1463
1739,-79,-491,1078,-19,-93,1836
1740,-35,-331,915,6,-85,2033
1741,100,-402,900,6,-1,2146
1742,17,-335,1190,-4,6,2406
1743,-138,-208,773,4,-15,2597
1744,-104,-145,875,-17,38,2754
1745,76,-68,1382,14,-7,2908
1746,147,242,1175,18,-9,2961
1747,-83,73,1236,-19,1,2912
1748,-80,107,788,-15,22,2787
1749,87,158,1052,16,26,2683
1750,-47,-112,1086,0,22,3055
1751,86,57,1563,-5,20,2869
1752,124,324,856,12,24,2984
1753,251,426,941,26,26,2836
1754,312,611,878,4,8,2638
1755,208,603,1460,-11,22,2422
1756,148,610,791,4,20,2154
1757,8,557,1078,14,16,1974
1758,82,499,822,6,-7,1908
1759,167,730,974,36,16,1801
1760,333,903,1192,8,4,1256
1761,286,1056,1137,2,-3,801
1762,331,890,1029,-2,-9,510
1763,412,289,1007,2,-5,320
1764,33,334,1004,-2,-5,205
1765,257,512,979,0,4,-141
1766,364,787,1027,-2,4,-240
1767,191,861,1058,-2,-1,17
1768,191,628,1014,10,3,-88
1769,127,760,808,-2,-7,-828
1770,166,714,962,-21,-17,-1623
1771,194,740,1062,-9,-15,-1998
1772,285,656,1078,-13,-19,-2367
1773,461,361,1203,0,-17,-2457
1774,309,294,978,0,-11,-2455
1775,285,283,1020,-27,-23,-2319
1776,174,361,481,-31,-19,-2613
1777,160,403,988,-5,-23,-2742
1778,92,499,1048,6,-38,-3076
1779,74,193,931,-44,-29,-3229
1780,117,-136,691,-2,-23,-3533
1781,336,69,1047,26,-46,-3940
1782,-129,-49,267,-25,14,-3875
1783,226,-152,810,-7,-25,-3643
1784,-35,-397,750,36,-33,-3162
1785,85,-387,1158,0,141,-2502
1786,-41,-485,876,-9,34,-2557
1787,168,-170,1108,-2,112,-2371
1788,93,-256,1398,8,71,-2260
1789,-47,-165,1045,18,71,-2051
1790,-162,-466,1201,-19,26,-2522
1791,87,-388,758,-25,3,-2879
1792,-192,-901,933,-48,-9,-2662
1793,-98,-1017,1145,-39,28,-2363
1794,-355,-1358,817,-31,-17,-2270
1795,-329,-1123,1038,-52,-1,-1881
1796,-339,-950,1034,-29,4,-1004
1797,-385,-807,1020,2,-5,-463
1798,-352,-347,1013,8,8,-256
1799,-101,-458,1006,8,1,103
1800,-248,-562,1025,4,-1,523
1801,-272,-750,1090,16,12,402
1802,-242,-956,843,2,-3,680
1803,-215,-799,1110,20,-13,1238
1804,-191,-759,1079,30,-15,1701
1805,-329,-655,831,41,38,1892
1806,-71,-353,959,63,-31,1922
1807,-249,-450,1037,24,-11,1424
1808,-203,-212,1180,65,-13,1449
1809,-295,-430,956,-13,-25,1664
1810,-258,-443,801,18,4,1469
1811,-225,-363,691,-46,6,2105
1812,-37,-72,1357,4,1,2351
1813,-174,-142,979,-2,-199,2859
1814,-158,-289,892,10,-85,2775
1815,56,63,1032,-41,-185,2722
1816,-182,-142,841,-5,77,2724
1817,140,134,1020,26,-74,2260
1818,128,534,1101,0,6,1615
1819,15,742,1165,-25,-3,1248
1820,101,703,1361,16,-5,447
1821,81,409,797,-5,26,344
1822,227,401,815,-9,26,318
1823,291,245,878,6,42,129
1824,545,483,1138,2,28,293
1825,391,569,977,-23,34,939
1826,414,570,1106,-7,20,906
1827,539,891,880,-9,16,980
1828,549,942,1045,2,6,713
1829,458,1025,957,0,1,287
1830,551,418,1042,-25,6,-184
1831,729,789,1133,-19,-7,-1494
1832,475,615,870,-13,-11,-1438
1833,601,821,1078,6,-31,-1330
1834,515,779,911,10,-25,-1588
1835,566,585,1145,10,-31,-1957
1836,366,242,1189,-35,-37,-2608
1837,527,283,764,26,-42,-2498
1838,376,-99,1030,-19,-21,-2365
1839,393,78,1235,-5,-15,-2248
1840,262,40,1192,6,-23,-2074
1841,160,-124,972,10,-40,-2238
1842,196,0,1364,28,262,-2301
1843,188,-22,745,4,196,-2348
1844,-123,-262,865,-9,-7,-3156
1845,42,-1,1236,-9,-9,-3315
1846,-288,-359,765,-15,-17,-3344
1847,23,-179,866,-13,6,-3203
1848,-590,-416,440,-8,12,-2526
1849,-198,-485,1023,-23,10,-2606
1850,-232,-470,-271,18,-1,-1881
1851,-269,-546,343,8,-50,-1524
1852,-528,-490,1551,-2,-72,-1467
1853,-135,-517,895,32,-89,-1516
1854,-426,-460,802,16,-50,-1240
1855,-319,-472,1076,12,-46,-1029
1856,-515,-498,1011,12,-31,-809
1857,-183,-65,994,8,-9,-404
1858,-348,-318,1028,4,-1,-108
1859,-397,-433,1082,2,8,191
1860,-553,-511,1089,-13,30,232
1861,-645,-720,702,-23,51,545
1862,-514,-400,1307,-6,47,1211
1863,-468,-514,882,-23,42,1490
1864,-394,-77,889,-15,90,1295
1865,-147,-154,999,-23,42,1523
1866,-342,-87,1012,-8,10,1416
1867,-254,-479,999,-19,18,1377
1868,-78,-175,1105,14,-44,1471
1869,-383,-559,889,32,-23,2242
1870,-60,-283,933,22,-13,2146
1871,-82,-180,1174,32,6,2197
1872,125,-103,1278,8,-19,2789
1873,182,147,1247,-9,-181,3185
1874,270,89,887,-8,-230,3680
1875,106,239,964,8,10,3388
1876,310,357,1161,2,40,2685
1877,175,734,1096,2,-21,2529
1878,347,678,994,20,-1,2144
1879,158,289,979,-13,32,1779
1880,285,84,1178,-29,61,1236
1881,328,202,1126,0,44,873
1882,-11,192,1140,-2,40,1221
1883,527,274,1090,0,28,922
1884,516,393,449,14,20,1017
1885,535,277,627,-4,10,1150
1886,478,450,977,0,10,1021
1887,486,262,1004,8,4,799
1888,25,49,1001,-6,4,322
1889,595,618,992,-9,10,301
1890,424,599,904,-2,-9,1023
1891,326,471,1048,14,-19,1156
1892,319,518,1193,-6,-1,1097
1893,271,389,1085,-9,-21,478
1894,463,392,1017,-9,-5,-47
1895,419,561,890,4,-44,-1053
1896,149,252,930,6,-52,-1461
1897,255,290,974,-27,-19,-1619
1898,276,417,747,37,-50,-1750
1899,112,298,1062,18,-29,-1760
1900,342,170,966,10,-15,-1908
1901,52,203,856,14,-29,-2190
1902,13,-147,1661,-21,1,-2436
1903,247,-5,932,-2,-54,-2662
1904,102,-156,1051,6,59,-2399
1905,47,29,807,24,30,-2362
1906,5,-310,1049,-25,163,-2569
1907,-263,-322,1034,0,145,-2436
1908,-207,-231,994,-56,26,-2633
1909,-156,-424,1037,-33,4,-2436
1910,-357,-253,719,0,-21,-2362
1911,-504,-526,934,14,12,-1801
1912,-80,-544,1157,-50,44,-1750
1913,-465,-720,723,37,-39,-1297
1914,-433,-525,980,-37,44,-904
1915,-349,-740,946,-9,1,-912
1916,-462,-615,1033,-15,-11,-1197
1917,-398,-490,990,-2,-31,-1110
1918,-15,1,980,-4,-11,-449
1919,-321,-304,1023,12,-13,-6
1920,-491,-511,985,4,-1,-258
1921,-409,-697,1110,-8,16,-475
1922,-380,-456,1443,8,1,-31
1923,-188,-363,1071,-17,3,453
1924,-349,-414,1618,14,-19,1138
1925,-250,-370,882,-43,36,1322
1926,-333,-405,839,33,-25,1562
1927,-277,-451,1403,-13,-11,1478
1928,-194,-193,860,-23,36,1680
1929,-314,-286,802,53,-11,1805
1930,-125,-268,1168,4,-7,1896
1931,-220,-367,943,30,-25,1892
1932,-113,-170,1034,-21,-23,2347
1933,-113,-235,1221,-8,-173,2816
1934,-36,-298,1036,4,-224,3500
1935,-191,-331,932,14,57,3513
1936,263,75,1152,0,30,3285
1937,158,-27,1432,-17,6,3195
1938,41,700,804,22,3,2943
1939,-127,197,998,-33,61,2658
1940,379,369,975,4,53,1088
1941,50,300,1003,-4,55,246
1942,685,354,543,8,53,-393
1943,297,264,976,-8,26,-262
1944,384,174,1492,-2,42,-41
1945,687,392,757,0,32,221
1946,307,81,1255,2,36,656
1947,417,401,1158,16,38,1265
1948,409,233,455,0,-3,1728
1949,305,338,895,-2,-3,1717
1950,529,498,1023,-2,-1,1129
1951,551,385,1001,-2,-3,838
1952,112,-88,1020,-6,-1,652
1953,49,101,996,-10,18,25
1954,584,583,957,0,14,-231
1955,377,453,958,-2,-1,-342
1956,307,320,1049,0,-5,-526
1957,435,156,1093,-2,-1,-776
1958,500,-29,600,-13,-35,-487
1959,520,175,971,2,-13,-674
1960,377,-114,1973,-4,-23,-70
1961,405,15,2040,0,-44,-117
1962,377,402,748,-2,-46,-356
1963,344,347,583,-11,-21,-500
1964,-89,140,1137,-41,-46,-748
1965,320,442,1066,18,-56,-1483
1966,123,218,1150,-43,-37,-2072
1967,418,305,970,53,-46,-2276
1968,163,186,712,-21,-35,-2549
1969,50,-146,955,35,-48,-2471
1970,110,-69,875,-6,-21,-2422
1971,103,-199,1253,-8,44,-2326
1972,-93,-236,1162,22,90,-2186
1973,-118,-357,981,-35,79,-2375
1974,-113,102,324,8,77,-2160
1975,-159,-174,957,0,128,-2326
1976,-227,-258,769,-8,24,-2268
1977,-318,-385,1297,-15,40,-1801
1978,-177,-361,1024,37,-76,-1778
1979,-161,-369,200,-60,22,-1676
1980,-405,-328,1183,-49,-56,-1561
1981,-695,-413,1596,-19,-42,-1067
1982,183,-333,212,28,-103,-1098
1983,-824,-586,1529,-21,-93,-971
1984,-339,-557,768,28,-76,-920
1985,-479,-598,859,-6,-15,-910
1986,-613,-502,980,-23,-31,-738
1987,-238,-340,1010,4,-1,-494
1988,-641,-453,1019,16,12,115
1989,-337,-631,1202,12,30,857
1990,-576,-562,934,-15,61,1301
1991,-520,-483,858,-11,100,1258
1992,-692,-206,962,-37,77,1441
1993,-487,-248,2048,-15,49,1527
1994,-319,-274,1051,-11,110,1597
1995,-477,-608,999,0,18,2058
1996,-391,-328,755,-29,45,2164
1997,-349,-130,820,24,-25,2498
1998,-325,-223,761,12,-39,2611
1999,-414,-355,920,57,-46,2998
2000,-135,-314,850,0,20,2515
2001,92,-81,1004,-15,65,2678
2002,41,-16,979,10,-179,3894
2003,3,-30,1026,-37,-283,3967
2004,-39,174,1076,-11,14,3088
2005,179,556,1170,-27,-11,2693
2006,311,398,1207,20,18,2488
2007,175,237,837,0,42,2248
2008,483,228,1434,-25,59,984
2009,498,135,940,0,44,849
2010,533,495,322,2,20,1605
2011,363,326,994,8,14,2330
2012,538,381,864,12,20,2234
2013,536,525,925,18,14,1744
2014,544,538,940,0,14,1363
2015,651,540,995,4,4,1053
2016,204,-28,1013,0,1,951
2017,160,299,983,-6,18,271
2018,535,618,926,-8,6,-369
2019,509,825,849,-8,-3,-242
2020,350,542,1241,6,-23,-305
2021,240,423,1089,6,-17,-520
2022,397,352,1007,-6,-29,-1154
2023,495,223,778,-8,-33,-1526
2024,416,92,1501,-10,-25,-1535
2025,441,128,1432,-19,4,-1455
2026,255,134,1331,-54,18,-1643
2027,325,25,842,-2,-62,-1789
2028,320,353,945,35,-50,-2291
2029,300,333,916,0,-58,-2944
2030,364,362,1083,20,-64,-3229
2031,304,192,380,10,-40,-3444
2032,177,64,894,-17,-33,-3862
2033,130,-25,1017,-37,-33,-4102
2034,-125,-467,900,22,-107,-4229
2035,159,-269,837,0,133,-3756
2036,-163,-527,1160,-8,139,-3444
2037,-67,-486,950,-27,100,-3278
2038,-276,-423,1115,-25,75,-2881
2039,-270,-762,1100,-2,-25,-2865
2040,-155,-564,1071,-45,-3,-2572
2041,16,-317,1890,33,-29,-2162
2042,-321,-751,485,-27,61,-1346
2043,16,-432,813,24,-27,-922
2044,-109,-370,1436,-19,24,-994
2045,59,-365,381,-47,-31,-676
2046,-88,-304,641,2,-52,-195
2047,-97,-198,1169,43,-99,-195
2048,-137,-220,682,-8,-95,-225
2049,-126,-265,1660,0,-95,-248
2050,-20,-292,467,22,-85,-266
2051,-121,-339,1085,-31,-74,-199
2052,-193,-92,755,-19,-60,101
2053,-287,-281,787,-4,-42,318
2054,-553,-149,967,-31,-29,221
2055,-341,-196,896,-15,-9,234
2056,-357,-466,1281,-15,-3,353
2057,-474,-378,709,32,24,558
2058,-492,-409,1082,-6,20,978
2059,-278,-411,154,24,61,1146
2060,-454,-185,1756,-29,51,1328
2061,-630,-100,-204,45,96,1457
2062,-611,-146,1087,-37,112,1658
2063,-460,-60,1197,-33,104,1683
2064,-200,-97,483,-2,61,1619
2065,-197,-81,49,-2,110,1822
2066,-27,157,1409,0,-3,1898
2067,-483,137,982,-9,-1,1783
2068,40,188,985,-31,24,1392
2069,-492,232,822,55,-54,1347
2070,-285,-87,1273,69,-3,1293
2071,211,-29,1027,-27,-40,1072
2072,283,-24,1119,-6,-249,1965
2073,312,93,1167,-21,-246,2461
2074,17,221,697,-6,69,2201
2075,202,185,865,-35,10,1803
2076,202,297,921,4,-7,1398
2077,142,286,802,-2,55,998
2078,212,108,839,2,49,-139
2079,552,23,1015,10,61,-297
2080,499,-94,1319,0,57,230
2081,702,-52,1017,4,20,607
2082,443,47,1147,0,6,896
2083,521,135,812,-2,16,803
2084,611,138,978,2,12,342
2085,484,5,1020,6,4,-49
2086,292,-65,1014,-2,-3,-404
2087,434,288,991,-9,4,-774
2088,630,306,1019,-11,4,-774
2089,413,60,1005,8,-31,-621
2090,612,28,1010,-2,-13,-621
2091,492,-165,900,-11,-35,-612
2092,591,-424,314,-4,10,-315
2093,323,-94,1469,-23,-29,41
2094,289,-191,1047,0,-48,-76
2095,380,-74,1020,22,-46,-254
2096,276,-54,967,4,-66,-586
2097,194,4,796,16,-25,-854
2098,222,241,1544,-19,-19,-1307
2099,-70,58,742,6,-5,-1506
2100,106,-263,915,35,-33,-1531
2101,-19,-258,983,0,153,-1373
2102,-8,-286,1067,-11,157,-1256
2103,41,-244,956,-6,69,-781
2104,-176,-356,779,-27,14,-613
2105,-67,-130,959,4,26,-295
2106,-270,-20,840,-43,63,-328
2107,-459,-62,967,-6,-62,-363
2108,-583,130,769,-27,-83,-692
2109,-34,-56,935,-6,-103,-750
2110,-469,77,1522,-39,-158,-1028
2111,-453,-137,1228,0,-152,-908
2112,-285,-218,892,39,-124,-487
2113,-846,4,2026,4,-62,-221
2114,-619,44,1127,4,-72,-88
2115,-594,181,952,-19,-31,33
2116,-633,226,868,-9,-23,49
2117,-64,132,997,8,-9,121
2118,-537,-52,1024,-17,6,287
2119,-741,132,1109,-8,20,1074
2120,-470,12,973,-31,57,1687
2121,-749,237,1126,53,40,1574
2122,-824,184,264,-39,77,754
2123,-527,254,488,-41,116,474
2124,-411,-89,299,4,163,713
2125,-374,-113,2048,16,129,806
2126,-240,-123,1225,20,163,572
2127,-157,-54,1073,2,81,640
2128,-20,-11,1226,-29,112,1060
2129,-129,193,1069,22,-68,1162
2130,189,-36,1131,4,-11,1203
2131,-302,-123,891,69,-46,1672
2132,-76,-37,1097,-11,-25,1513
2133,110,-15,1111,-15,-5,752
2134,34,22,999,-15,-230,1435
2135,-221,83,930,-8,-54,1732
2136,455,-50,1051,-27,42,1213
2137,236,43,1019,22,-13,857
2138,-173,143,975,-25,69,1207
2139,264,115,1384,-37,61,400
2140,169,-58,2025,-11,67,-199
2141,872,-304,1047,10,-13,92
2142,535,-417,893,2,42,875
2143,323,-213,993,4,30,1389
2144,682,-139,1108,6,30,1422
2145,270,15,814,-8,-17,1055
2146,451,53,898,-16,-19,994
2147,470,4,1000,-23,-27,447
2148,509,-104,890,-4,2,-119
2149,687,-242,1076,-6,-3,-215
2150,573,-284,1001,0,4,264
2151,64,-41,1008,4,10,72
2152,731,-120,1016,10,24,271
2153,923,-84,969,4,8,-690
2154,232,30,1025,-12,-23,-813
2155,680,-81,1065,12,2,-252
2156,185,0,992,10,12,-391
2157,804,-74,1005,-10,-3,-436
2158,160,-58,1207,-2,-13,-664
2159,620,-130,1125,-8,-25,-416
2160,381,-143,693,12,-54,-590
2161,226,50,1461,-29,-3,-682
2162,419,-151,637,-4,-54,-865
2163,272,-24,1093,31,-70,-967
2164,432,-28,737,80,-81,-1051
2165,81,-70,1083,4,-1,-1176
2166,107,-59,1487,-37,36,-1352
2167,245,60,908,22,178,-1162
2168,-52,1,894,22,241,-1578
2169,-259,-156,1237,14,114,-1805
2170,-39,-150,1272,-60,18,-1922
2171,-261,-327,1523,12,-9,-1760
2172,128,-280,999,-47,24,-1682
2173,-693,-176,620,-23,-29,-1176
2174,-962,8,853,-25,-121,-602
2175,-258,-245,375,0,-93,-383
2176,-589,47,937,57,-142,-678
2177,-703,451,1014,26,-91,-461
2178,-291,112,974,20,-121,-106
2179,-908,14,1233,2,-44,-98
2180,-578,106,1092,-2,-48,-39
2181,-585,169,970,-16,-9,-14
2182,-17,-56,967,2,-9,-74
2183,-844,144,1182,0,8,736
2184,-457,0,1007,-10,4,8
2185,-566,66,1063,6,32,1722
2186,-756,-40,943,-21,63,1955
2187,-697,270,750,20,63,834
2188,-698,157,531,-84,127,363
2189,-485,-43,1129,2,122,264
2190,-474,-142,1429,16,83,603
2191,-482,-80,1356,-2,139,797
2192,134,-176,1156,-10,57,910
2193,-382,-101,948,-23,22,1705
2194,120,26,1041,29,16,1873
2195,9,22,1221,31,-56,1920
2196,-368,93,1189,20,-56,1883
2197,211,135,1053,12,-62,715
2198,-143,207,935,-25,-302,340
2199,-115,242,727,-16,49,232
2200,297,-172,902,12,30,-117
2201,608,-486,818,-8,-9,318
2202,99,-250,1272,0,28,1305
2203,294,-254,981,22,49,1849
2204,279,-72,1076,-12,75,1521
2205,413,123,-114,0,42,1056
2206,668,122,805,10,-11,969
2207,373,129,954,0,42,678
2208,312,127,822,-6,28,-125
2209,478,-35,1066,4,24,-903
2210,743,-307,942,0,-23,-746
2211,518,-294,1024,-16,-21,140
2212,691,-129,1035,-2,-11,830
2213,414,77,1011,0,16,703
2214,75,-30,1003,8,38,60
2215,738,-138,983,0,12,27
2216,542,-88,1145,-8,-15,-731
2217,478,-11,1140,16,1,-217
2218,565,-38,765,-14,12,-510
2219,215,72,1246,-2,-31,-815
2220,443,-31,951,-14,-15,-1076
2221,282,48,1119,-4,-54,-1432
2222,797,-114,92,0,-37,-1565
2223,540,-100,926,-31,-33,-1328
2224,158,-221,801,16,-74,-1084
2225,184,2,876,-37,-27,-848
2226,488,-41,1123,16,-29,-615
2227,201,87,970,16,-5,-951
2228,-50,-97,862,8,-1,-891
2229,138,-129,1025,20,190,-1197
2230,-173,-193,942,22,202,-1492
2231,-459,-103,1198,-2,-31,-1035
2232,266,-112,1061,-12,-19,-785
2233,-157,-55,780,4,28,-772
2234,-465,-3,878,2,-39,-317
2235,19,-153,632,-64,57,-629
2236,-572,142,630,57,-85,-322
2237,-595,268,1387,-8,-87,-469
2238,-581,379,1002,-17,-136,-475
2239,-603,44,1121,-47,-101,-422
2240,-1031,305,1217,6,-72,-404
2241,-621,0,1094,-21,-70,-195
2242,-752,88,980,2,-29,133
2243,-630,296,1030,0,-11,219
2244,-246,-59,1010,24,-13,148
2245,-943,135,923,16,1,551
2246,-745,50,912,-11,28,799
2247,-486,167,1601,-8,75,308
2248,-493,55,1051,6,65,23
2249,-523,-44,1790,43,100,119
2250,-596,149,1139,14,169,283
2251,-554,38,740,-4,92,357
2252,-400,-54,805,-45,85,783
2253,-528,-362,885,18,-25,1033
2254,-173,79,1030,30,8,1351
2255,-421,-75,1010,41,-42,1885
2256,-569,-35,916,2,-15,1545
2257,205,19,1174,-2,-1,439
2258,60,159,1050,-21,-285,1015
2259,-182,97,1159,-25,16,1053
2260,418,-127,890,-29,18,99
2261,522,263,1061,33,-31,-8
2262,-89,2,986,-25,85,822
2263,96,-131,1130,-23,81,486
2264,307,-117,383,12,63,269
2265,361,-8,1058,8,12,621
2266,483,-132,1033,12,45,953
2267,455,-46,972,0,22,935
2268,539,-53,982,14,10,892
2269,521,31,958,-19,-3,890
2270,738,-8,1053,-15,-25,869
2271,625,-13,1047,-8,-29,777
2272,523,0,1015,2,18,539
2273,657,59,1020,6,10,558
2274,18,0,1001,-2,14,174
2275,812,107,1005,2,30,-250
2276,370,18,1045,-2,-7,-1129
2277,566,9,1129,-4,-11,-1080
2278,684,-53,974,0,6,-580
2279,206,-101,1150,4,4,-20
2280,500,-152,1074,20,-9,211
2281,297,-127,853,-25,-21,-270
2282,423,-158,864,16,-33,-199
2283,456,-186,1171,-2,-58,-442
2284,184,-177,1840,-25,-5,-752
2285,214,32,996,-23,-66,-928
2286,639,23,1063,33,-74,-922
2287,553,-212,1094,-8,-58,-1026
2288,388,-23,887,-27,-5,-725
2289,45,-114,796,-23,16,-604
2290,177,-36,1014,26,-74,-840
2291,-191,-95,1051,16,210,-820
2292,-275,-218,1348,-2,147,-1194
2293,-34,-104,1054,6,6,-1395
2294,-215,-368,1641,-11,42,-1440
2295,-593,-98,779,14,-40,-1170
2296,-13,-122,1039,-35,12,-961
2297,-834,29,2048,-15,-46,-842
2298,-618,124,1090,-10,-101,-569
2299,-556,-170,1038,2,-83,-543
2300,-580,170,903,-8,-97,-707
2301,-468,43,859,14,-117,-406
2302,-632,87,1106,-13,-80,-293
2303,-639,142,908,49,-68,-227
2304,-620,95,924,-15,-33,-348
2305,-469,152,981,-10,-13,-211
2306,-253,-77,1000,8,-9,60
2307,-748,-146,949,-19,12,482
2308,-610,-208,950,-41,45,847
2309,-498,-83,875,-21,49,1127
2310,-655,-13,929,-64,110,592
2311,-611,116,1410,-19,102,685
2312,-203,161,938,55,63,750
2313,-89,-80,1634,57,81,681
2314,-390,49,855,-10,163,646
2315,-156,145,590,2,57,332
2316,-15,4,860,-21,88,1144
2317,181,42,1068,26,-42,1781
2318,155,-185,1335,28,4,2285
2319,32,116,714,14,12,2570
2320,-348,80,920,14,6,2344
2321,232,180,1245,4,-3,1574
2322,218,163,1320,6,-27,1472
2323,213,63,980,-23,-40,1545
2324,433,-48,978,-25,-122,1170
2325,260,-40,1058,-19,-214,1437
2326,401,-63,969,24,-39,1140
2327,612,-54,1049,10,12,1992
2328,427,25,947,0,-21,1803
2329,723,101,1367,-21,28,1619
2330,564,161,972,-25,24,1373
2331,269,402,952,-4,-3,838
2332,287,591,953,-19,22,305
2333,313,676,1083,-10,24,388
2334,209,572,1118,0,10,635
2335,236,432,1099,20,-5,342
2336,182,299,1117,-4,-7,-360
2337,62,136,949,-2,-19,-729
2338,35,168,923,-4,-15,-867
2339,82,452,758,-10,-13,-1057
2340,-87,209,893,-2,-15,-1223
2341,36,349,909,-4,-33,-1617
2342,-60,335,709,-17,-9,-1930
2343,9,181,1065,0,-5,-2088
2344,17,110,935,-4,-17,-2303
2345,43,100,985,-2,-19,-2522
2346,51,-161,1158,-23,-15,-2520
2347,13,-94,758,-37,-5,-2326
2348,-28,-103,882,20,-27,-2147
2349,7,-82,769,20,-11,-2037
2350,-24,-301,1042,-10,2,-2072
2351,-68,-490,1384,10,6,-2002
2352,-22,-447,1014,4,-11,-2170
2353,-28,-548,1039,8,8,-1916
2354,-28,-723,1010,-10,8,-1787
2355,2,-661,919,-12,6,-1699
2356,-7,-636,1038,2,-5,-1375
2357,-72,-718,952,-6,-5,-942
2358,-79,-692,986,-6,-7,-572
2359,-38,0,999,-2,-1,-231
2360,18,-214,998,8,-5,6
2361,34,-405,998,10,-5,154
2362,26,-615,944,-18,-1,-453
2363,127,-814,1040,-4,-13,-528
2364,36,-774,1025,-20,-3,-336
2365,107,-798,969,-4,-29,322
2366,-2,-495,904,8,-39,705
2367,-99,-395,1063,-16,-15,789
2368,-104,-315,1090,0,-15,949
2369,-31,-443,856,-16,10,1158
2370,-33,-363,955,-2,-15,1262
2371,-98,-343,797,-10,28,1328
2372,21,-578,826,-33,38,1639
2373,-12,-400,1080,2,1,1988
2374,-102,-244,1075,12,18,2185
2375,-105,-206,1361,18,32,2148
2376,-44,-297,953,18,4,2357
2377,37,-159,965,6,2,2463
2378,-152,74,735,14,10,2658
2379,-116,-6,1039,37,47,2615
2380,-107,194,684,2,2,2857
2381,44,216,1008,10,18,2801
2382,-71,106,911,-6,18,2826
2383,152,349,772,-12,24,2969
2384,75,408,1469,6,-9,3222
2385,-139,415,499,29,10,3515
2386,-41,420,1413,18,28,3139
2387,145,559,1007,6,20,3078
2388,210,649,1025,-4,14,2889
2389,230,754,886,22,10,2615
2390,323,1128,1213,0,18,2258
2391,285,1051,1222,8,10,1846
2392,238,1190,1004,-6,10,1279
2393,281,1344,992,0,10,859
2394,-1,42,1018,-14,6,176
2395,382,646,1033,-10,1,-555
2396,331,924,1062,-16,-5,-778
2397,202,1031,1046,8,-9,-43
2398,64,978,1012,-6,-1,-45
2399,115,871,1075,-12,-5,-1209
2400,64,890,941,-14,-7,-2010
2401,196,720,857,-18,-19,-2512
2402,170,624,1189,-6,-7,-2826
2403,74,198,1416,-10,-21,-3201
2404,184,176,943,-20,-19,-3151
2405,151,203,1211,0,-17,-2977
2406,314,217,784,-10,-17,-2949
2407,177,-1,1222,-18,-29,-2912
2408,284,180,1167,-8,-21,-2654
2409,210,54,1079,-8,-11,-2500
2410,122,88,1004,20,-27,-2699
2411,235,101,941,-21,-44,-2916
2412,164,72,974,-33,-13,-3180
2413,280,89,892,-16,-9,-3250
2414,274,-217,1436,-14,-37,-3252
2415,393,-227,467,-12,-13,-3440
2416,174,-205,662,18,-46,-3477
2417,260,-365,813,-2,-3,-3135
2418,202,-321,930,10,2,-3369
2419,66,-514,1098,-14,196,-3029
2420,138,-418,1315,22,71,-2766
2421,42,-421,824,-47,-39,-2897
2422,-129,-429,1205,105,-162,-2871
2423,-121,-579,1203,45,67,-2619
2424,57,-542,1138,18,90,-2637
2425,-72,-759,1110,-6,118,-2492
2426,-249,-848,845,-31,1,-2531
2427,-224,-826,1128,-123,143,-2278
2428,-425,-1055,912,-221,-5,-2033
2429,-415,-850,765,-74,26,-1266
2430,-457,-626,1006,-16,26,-850
2431,-313,-863,987,82,12,-807
2432,-343,-1038,583,74,-37,-170
2433,-282,-866,1421,84,-82,14
2434,-140,-669,1211,8,-62,613
2435,-237,-784,766,137,-115,1140
2436,-242,-537,1210,-4,-89,1670
2437,-168,-533,1133,0,-27,1863
2438,-174,-591,1318,0,-50,2305
2439,-331,-552,1247,-195,186,2342
2440,-307,-117,1157,162,-263,2404
2441,-258,-307,1101,64,-156,2680
2442,-326,-343,759,-16,-80,2896
2443,-276,-198,816,-39,42,2512
2444,26,-40,1268,-64,51,2808
2445,-223,-163,785,10,24,3459
2446,-50,-189,1312,61,61,3336
2447,82,-231,586,-43,77,3217
2448,316,240,1120,25,26,2967
2449,511,340,1513,20,38,2836
2450,306,370,1828,25,49,2719
2451,268,480,974,4,38,2168
2452,426,592,807,-8,59,1480
2453,302,577,995,10,12,1174
2454,452,683,1149,4,16,1244
2455,426,465,998,-6,-3,1062
2456,669,466,1246,6,-7,1070
2457,624,580,1078,10,-1,1139
2458,502,752,953,4,8,920
2459,450,903,986,0,8,545
2460,-68,362,1009,-4,8,82
2461,613,465,970,0,10,-436
2462,422,514,947,-8,-25,-1496
2463,654,522,1028,-12,1,-836
2464,467,640,848,8,2,-307
2465,234,386,1910,0,16,-514
2466,326,440,991,-2,12,-1082
2467,331,491,936,-12,-29,-1533
2468,273,230,1202,-16,-17,-1770
2469,340,355,1031,-4,-40,-1799
2470,157,65,984,-17,-52,-1963
2471,377,83,811,10,-52,-2133
2472,413,209,670,-33,-21,-2279
2473,215,266,1040,8,-82,-2531
2474,82,139,1572,-19,-82,-2983
2475,-3,-26,880,4,-78,-2947
2476,-150,-170,959,0,-27,-3184
2477,-14,-198,415,14,-9,-2852
2478,-291,-424,1066,2,45,-2744
2479,-23,-443,898,-37,155,-2615
2480,-178,-332,1033,-27,167,-2774
2481,-262,-401,1095,-62,137,-2492
2482,-322,-470,863,-16,30,-2270
2483,-240,-697,1226,-21,10,-2447
2484,-304,-566,947,-21,-35,-2442
2485,-297,-453,1060,-17,-5,-1908
2486,-432,-558,849,-80,-25,-1832
2487,-512,-740,1151,-10,-9,-1567
2488,-181,-542,958,2,30,-1367
2489,-504,-625,1031,12,-9,-1059
2490,-452,-395,1002,0,8,-510
2491,-91,-186,983,4,-3,-72
2492,-295,-344,1016,2,-17,359
2493,-433,-727,976,0,1,580
2494,-437,-717,984,-16,10,603
2495,-398,-645,888,4,-31,678
2496,-346,-390,940,6,-9,697
2497,-322,-637,1215,27,-11,1633
2498,-254,-670,934,82,34,1713
2499,-40,-22,1039,51,30,2033
2500,-267,-126,858,18,-60,2849
2501,-186,-171,980,12,-56,3156
2502,-203,-365,886,66,-197,2898
2503,-58,-108,1127,12,-117,3010
2504,-170,-151,991,41,-175,3242
2505,70,55,940,-8,4,3055
2506,28,-105,1374,-16,49,3377
2507,314,11,1228,-14,2,4103
2508,-307,-229,849,12,73,4150
2509,192,-50,1083,-31,38,3156
2510,278,132,970,-6,81,3129
2511,63,455,1769,-2,73,3142
2512,526,757,1396,33,-21,2943
2513,245,705,1158,-6,43,2582
2514,44,591,1144,22,22,1644
2515,606,735,1889,20,30,654
2516,146,386,997,-14,-1,404
2517,289,333,963,-19,-21,68
2518,559,418,1106,4,-17,-156
2519,416,214,974,-2,-9,55
2520,486,170,1016,4,6,363
2521,599,270,1016,-8,8,646
2522,522,482,1011,0,12,760
2523,131,41,1002,-2,8,549
2524,632,258,999,2,30,359
2525,283,304,973,-4,-5,-1100
2526,430,318,1088,-2,-11,-1469
2527,451,654,1098,-6,2,-447
2528,260,561,920,0,8,-63
2529,220,342,1178,-4,4,-514
2530,285,355,1206,-8,26,-881
2531,221,333,1660,-19,-31,-1276
2532,441,312,638,12,-48,-1248
2533,349,266,993,-21,-29,-1492
2534,357,198,908,4,-62,-1826
2535,-124,126,1471,-8,-7,-1986
2536,99,64,844,-19,-78,-2473
2537,542,78,764,-2,-78,-2840
2538,185,98,833,6,-25,-2990
2539,342,77,971,-21,-42,-3299
2540,-40,-169,1257,16,-27,-2899
2541,-53,-111,1052,59,-50,-2791
2542,-189,-326,1279,-2,-21,-2971
2543,107,-136,1141,-4,186,-2824
2544,-346,-415,1098,-6,90,-2746
2545,-195,-407,889,-68,120,-2815
2546,-259,-446,1030,-41,92,-2449
2547,-408,-442,1004,-49,57,-2379
2548,-349,-433,919,-61,16,-2406
2549,-400,-711,875,-4,6,-2180
2550,-344,-721,897,-22,34,-1852
2551,-474,-688,1153,8,16,-1592
2552,-557,-595,1040,6,2,-754
2553,-491,-785,1080,29,-31,-1055
2554,-121,-197,1007,-2,-7,-391
2555,-406,-714,974,-20,18,400
2556,-487,-476,970,6,-21,160
2557,-409,-721,984,-8,4,742
2558,-414,-630,1000,-8,-23,1574
2559,-427,-569,799,12,10,1769
2560,-189,-146,1089,18,-9,2176
2561,-476,-274,922,43,10,2324
2562,-213,-355,1370,80,-33,2283
2563,-282,-374,1033,33,12,2664
2564,-63,-42,1292,6,-91,2785
2565,-302,-367,1070,27,-205,3156
2566,-43,-127,1002,2,26,3043
2567,-236,-301,1078,4,-271,3461
2568,-29,-88,1162,-12,49,2988
2569,49,182,829,-29,32,3053
2570,336,106,1429,0,10,2861
2571,-242,-73,883,-2,61,2652
2572,241,17,1222,4,32,1787
2573,285,-111,819,-10,77,1951
2574,277,34,1145,-2,61,2250
2575,535,181,1081,0,12,2846
2576,295,230,1246,0,49,3076
2577,241,236,1106,23,14,2826
2578,491,432,1066,16,28,2267
2579,480,629,1136,-2,6,2012
2580,413,538,951,0,-7,1660
2581,535,592,998,-2,-11,1006
2582,502,552,1037,-4,-21,705
2583,407,509,993,4,10,418
2584,362,52,1020,-6,42,74
2585,547,-20,993,0,12,-639
2586,395,143,926,-4,14,-1133
2587,379,274,1035,-2,-3,-512
2588,455,251,1176,8,6,-246
2589,189,305,1564,-14,-27,-397
2590,453,5,545,-10,-29,-666
2591,391,179,860,-10,-41,-1453
2592,199,214,866,-29,4,-1760
2593,59,32,1782,-35,-35,-1608
2594,368,-378,1060,-2,-58,-1279
2595,385,-344,1351,-8,-50,-1656
2596,391,-495,965,-14,-39,-977
2597,288,-362,1168,37,-58,-746
2598,124,-266,980,-27,20,-1104
2599,-91,-267,1039,29,40,-1016
2600,-89,-304,1087,-6,57,-1201
2601,52,-283,975,27,34,-842
2602,-358,-271,933,14,57,-865
2603,-22,-322,1076,18,233,-733
2604,-387,-121,1074,2,49,-592
2605,2,-211,1014,-6,-13,-139
2606,-604,-201,937,-31,53,-197
2607,-3,-169,723,4,-17,361
2608,-349,-45,681,-4,1,451
2609,-285,241,932,-45,40,197
2610,-99,105,866,-8,-50,254
2611,-165,-107,288,-4,-29,178
2612,-140,339,1111,6,-35,-26
2613,-587,348,1399,-10,-50,-53
2614,-471,282,986,-12,-46,90
2615,-443,317,1244,-6,-11,236
2616,-523,368,993,-8,-5,224
2617,-19,2,981,-2,-5,37
2618,-649,167,1002,-2,-7,14
2619,-594,403,1112,4,8,851
2620,-575,484,986,6,10,1363
2621,-489,772,1107,12,83,662
2622,-287,278,1230,12,45,115
2623,-607,656,464,-12,30,-69
2624,-327,331,795,2,83,-295
2625,-268,419,826,6,8,-254
2626,-1,123,1077,45,-68,-328
2627,-266,358,862,-16,18,150
2628,39,162,1060,-4,-41,-16
2629,-432,474,1011,20,-41,-266
2630,50,410,1111,-18,-105,-330
2631,71,73,1122,14,-142,-367
2632,53,106,927,-22,-46,-444
2633,9,81,951,-12,-263,-522
2634,100,-89,1105,-10,-7,-526
2635,103,-245,1126,-16,10,-377
2636,37,-325,1401,-49,-15,-350
2637,288,-465,1050,-6,-1,-494
2638,25,-126,1085,16,10,-629
2639,438,-211,1184,-18,45,-313
2640,410,-254,1622,-16,36,-533
2641,306,-327,1002,18,38,-559
2642,573,-692,729,12,22,-447
2643,361,-506,238,-4,16,-348
2644,217,-351,1329,25,36,19
2645,283,-378,597,100,59,56
2646,363,-441,1526,-25,174,187
2647,308,-565,865,-25,176,213
2648,392,-459,1067,18,75,135
2649,97,-210,1009,18,-3,66
2650,322,-373,971,2,-11,53
2651,448,-745,1187,-6,-56,-682
2652,448,-627,927,-16,-164,-785
2653,413,-549,627,39,-132,-451
2654,229,-378,1001,-90,-46,-233
2655,434,-529,1010,-33,-123,-125
2656,193,-312,1453,-10,6,-276
2657,409,-676,945,2,-15,-395
2658,-307,-240,481,-14,-21,-225
2659,288,-371,726,-10,-25,281
2660,328,-462,1383,35,-39,601
2661,-149,-105,1746,-2,-11,627
2662,147,-305,1215,-19,-21,1107
2663,111,-276,1131,41,-3,1144
2664,162,118,1683,25,12,1461
2665,-54,113,1365,29,20,1846
2666,-173,374,876,-10,34,1722
2667,-75,411,976,37,-76,1765
2668,-76,235,888,6,69,1291
2669,-64,229,897,16,143,1162
2670,6,457,928,29,145,1232
2671,-358,695,1082,-6,79,1275
2672,-197,704,1000,0,12,1303
2673,-268,664,942,31,20,1150
2674,-232,701,995,10,47,683
2675,-427,769,1180,-25,-19,555
2676,-284,685,1159,-21,10,467
2677,-465,629,949,8,14,357
2678,-470,551,959,-2,6,275
2679,-10,4,1003,-6,1,82
2680,-129,193,993,-4,-9,2
2681,-455,468,1086,0,-7,297
2682,-511,715,985,-4,-5,1314
2683,-147,390,1125,-4,-19,1299
2684,-511,795,1170,20,-5,558
2685,-190,505,898,8,20,-61
2686,-260,425,908,-18,-44,-307
2687,-199,515,1096,-16,-3,-361
2688,-134,365,937,-6,-25,-447
2689,-128,426,809,-23,-62,-502
2690,-68,248,984,-18,-132,-574
2691,-44,189,1087,-16,-154,-643
2692,16,187,1044,-23,28,-553
2693,90,247,1091,0,63,-627
2694,73,80,1058,-8,-33,-795
2695,162,17,1073,-19,-27,-881
2696,21,67,943,-29,36,-791
2697,47,42,1191,-29,-5,-1111
2698,227,-357,1123,-6,16,-586
2699,150,-355,1251,-6,18,-678
2700,168,-246,925,14,-1,-842
2701,256,-523,946,0,40,-799
2702,179,-598,1136,6,10,-1004
2703,242,-400,697,18,22,-1147
2704,308,-401,980,8,2,-1143
2705,389,-628,1054,-4,-21,-1074
2706,378,-498,1215,4,-13,-1111
2707,428,-539,1082,320,172,-354
2708,355,-536,901,70,40,-469
2709,325,-537,984,133,-113,-322
2710,315,-162,1016,18,-29,-174
2711,483,-357,1026,4,-31,-848
2712,496,-554,1206,-47,-33,-1688
2713,422,-438,1100,-4,18,-1832
2714,514,-956,889,-166,-17,-1393
2715,79,-518,760,-379,-134,-1363
2716,19,-305,971,-45,55,-889
2717,225,-381,701,-29,-11,-533
2718,113,-258,1047,-10,-9,-217
2719,0,-427,830,0,-37,-57
2720,-35,-234,832,27,-46,-63
2721,39,-123,1725,37,-29,76
2722,65,-315,1173,-41,14,-317
2723,-110,-166,879,16,-37,-141
2724,-21,-322,888,12,-25,297
2725,-19,-297,1093,14,-9,514
2726,-214,-23,800,-2,20,658
2727,-342,171,1301,-8,-3,1256
2728,-264,64,888,29,-1,1264
2729,-222,115,1019,4,-40,1369
2730,-296,222,1088,20,1,1260
2731,-145,322,1098,10,-17,1506
2732,-169,77,1298,-10,-31,1674
2733,-253,110,854,0,14,1818
2734,-176,606,933,2,10,1890
2735,-189,539,1037,-14,36,1687
2736,-212,713,931,2,18,1476
2737,-151,897,1037,6,-7,1105
2738,-82,909,1024,-2,-9,615
2739,41,469,1019,-2,-15,402
2740,-184,158,1000,2,-15,836
2741,-420,387,994,0,14,826
2742,-301,487,953,-4,14,742
2743,-295,622,920,4,-9,219
2744,-135,498,1057,0,-11,-156
2745,-287,577,1057,4,22,-168
2746,-189,371,922,2,42,-252
2747,-317,206,942,8,14,-418
2748,-291,-214,848,-2,-29,-647
2749,-293,-148,852,18,-21,-633
2750,-312,-449,869,-21,-5,-264
2751,-276,-370,971,-33,55,242
2752,-161,-568,1701,0,38,303
2753,-143,-434,1306,-21,67,197
2754,-177,-504,766,8,38,215
2755,-300,-422,889,22,22,482
2756,176,-364,1236,18,34,933
2757,97,-238,1379,12,34,1154
2758,327,-183,1120,-8,-31,1353
2759,220,-104,926,-2,-39,1289
2760,201,-165,1187,-8,71,1029
2761,342,-82,832,8,43,1199
2762,223,-16,891,14,40,1367
2763,477,17,1391,20,8,1478
2764,342,-101,484,29,-17,1361
2765,457,189,1395,43,-37,1185
2766,417,28,846,4,24,947
2767,223,31,923,6,28,881
2768,419,1,913,39,-17,722
2769,391,47,1011,23,-11,613
2770,298,-108,1000,-14,12,396
2771,106,166,1011,-105,73,10
2772,555,319,992,-70,45,-504
2773,429,413,1031,-12,-7,-584
2774,368,168,1149,8,-25,-721
2775,564,46,877,66,-83,-543
2776,467,47,1138,-18,10,-240
2777,481,126,1059,-39,28,-445
2778,491,215,972,-6,-13,-512
2779,410,152,1052,-14,-11,-604
2780,278,225,741,-14,-31,-815
2781,142,200,999,-39,-27,-1061
2782,224,228,976,-6,-21,-1438
2783,363,181,993,-6,-17,-1754
2784,631,386,1078,16,-54,-1785
2785,253,166,1063,6,-52,-2078
2786,69,100,1018,14,-62,-2195
2787,129,68,862,-86,6,-2467
2788,239,-76,702,-12,-70,-2748
2789,-111,12,764,-19,-44,-2736
2790,4,65,1141,35,-39,-2752
2791,-47,44,1288,23,34,-2590
2792,-55,125,979,20,-91,-2842
2793,-157,108,869,27,26,-3328
2794,-146,44,1063,-8,210,-3178
2795,-191,-91,971,10,178,-3205
2796,-117,-238,1082,-4,112,-3354
2797,-609,-369,977,-27,45,-3098
2798,-202,-275,850,-68,22,-3014
2799,-571,-487,1020,-60,81,-2529
2800,-735,-744,1525,-2,-25,-2522
2801,-684,-867,1843,-21,24,-2121
2802,-690,-812,1366,16,-13,-1602
2803,-644,-715,742,10,-7,-1059
2804,-36,-67,1010,0,-1,-602
2805,-635,-585,1022,-2,-9,-238
2806,-585,-571,1012,-4,10,330
2807,-632,-794,1051,-19,10,525
2808,-658,-441,956,-12,-15,683
2809,-462,-214,1489,0,1,1062
2810,-585,-594,882,-10,-11,1744
2811,-470,-472,1070,68,2,1592
2812,-378,-424,1110,61,-52,1865
2813,-332,-426,937,37,-5,2082
2814,-180,-288,1181,22,-207,2394
2815,-208,-171,974,8,-267,2808
2816,-284,-391,862,-18,-222,2971
2817,-184,-218,1006,16,38,3265
2818,224,100,994,-35,43,3142
2819,78,160,864,0,8,3648
2820,-217,5,971,23,40,3637
2821,280,29,1926,-18,47,2662
2822,214,107,2048,-25,79,1904
2823,775,234,1729,39,24,1545
2824,598,486,1289,0,43,1498
2825,524,471,1071,14,32,1406
2826,590,292,908,4,36,1045
2827,670,319,1110,14,1,781
2828,652,413,1062,-2,-3,685
2829,609,425,978,-8,-11,730
2830,507,445,1011,-4,-9,556
2831,537,582,989,0,-3,144
2832,408,337,987,-4,36,-272
2833,641,103,946,8,40,-973
2834,401,126,1088,-4,2,-1680
2835,524,273,1038,-23,12,-1266
2836,671,168,109,10,-27,-822
2837,677,93,297,8,-21,-643
2838,293,70,835,-14,-31,-830
2839,362,121,1161,-19,-46,-955
2840,458,189,273,-19,-52,-1145
2841,341,-112,254,-49,-5,-1111
2842,178,-34,1115,-2,-74,-1268
2843,534,33,1081,0,-44,-1391
2844,590,35,988,23,-85,-1412
2845,117,-24,1367,21,-27,-1463
2846,72,-102,853,-8,-39,-1490
2847,-53,-25,976,21,-128,-1703
2848,-321,-137,1111,25,22,-1627
2849,-201,-245,917,-6,133,-1803
2850,-250,-202,1182,20,172,-1631
2851,-582,-245,1255,-37,129,-1520
2852,-219,-215,812,0,51,-1250
2853,-492,-113,1547,-63,90,-879
2854,-211,-186,1044,-20,-19,-820
2855,-581,-144,1067,-33,12,-490
2856,-792,43,1519,-4,-52,-553
2857,-709,-259,1086,14,-113,-471
2858,-806,90,1005,-14,-17,-592
2859,-827,-53,1075,-14,-13,-502
2860,-569,-71,995,-10,-17,-309
2861,-241,-80,1001,14,-7,-51
2862,-964,59,838,6,4,-166
2863,-438,199,840,0,12,748
2864,-644,151,1104,27,10,769
2865,-586,21,788,-6,100,480
2866,-257,88,433,-8,69,232
2867,-342,-79,1113,21,16,244
2868,-270,-35,1076,-27,67,806
2869,-667,40,1211,43,-54,785
2870,82,56,1263,-31,30,1015
2871,-499,-21,1454,43,-48,1140
2872,-242,168,772,33,-48,1111
2873,-165,109,755,-23,-187,635
2874,-194,79,1030,8,-296,709
2875,107,85,1191,18,-52,560
2876,379,-115,1203,-29,40,344
2877,244,-69,1075,-55,18,433
2878,36,143,1105,-27,61,369
2879,-59,-49,1021,29,47,242
2880,26,-98,1015,-37,20,797
2881,93,-83,665,-8,47,1195
2882,398,-307,798,12,42,1258
2883,411,-58,882,8,30,1445
2884,228,-79,1049,-2,6,1344
2885,419,32,1069,-20,-39,1236
2886,277,56,1006,-33,-152,982
2887,343,15,1053,12,42,771
2888,448,-40,982,0,90,207
2889,517,-128,1030,16,42,-125
2890,506,-188,887,2,38,142
2891,441,-183,1048,6,18,363
2892,489,-210,950,0,28,541
2893,518,-140,1004,-2,14,721
2894,70,92,1008,2,2,494
2895,55,-1,1002,-8,4,15
2896,716,36,983,-12,1,96
2897,398,-10,990,-12,-17,-352
2898,404,20,956,0,-39,-418
2899,183,-62,958,-2,-41,-467
2900,403,-109,984,-4,-44,-467
2901,470,-205,926,-10,-41,-713
2902,383,-114,1148,0,-66,-537
2903,494,61,898,18,77,-611
2904,372,104,1334,-2,38,-740
2905,239,83,900,31,20,-592
2906,555,34,1036,6,-54,-1113
2907,177,247,1591,0,-37,-1475
2908,90,8,872,-10,-76,-1619
2909,401,-164,1146,16,-56,-1518
2910,58,-83,942,23,-66,-1399
2911,67,-128,1195,53,-37,-1393
2912,-20,-46,864,14,-19,-1463
2913,-302,-6,1249,18,-74,-1461
2914,30,41,1149,-4,55,-1361
2915,-127,-26,1172,-27,153,-1856
2916,-165,-90,916,-2,231,-2020
2917,-388,-294,1030,-18,83,-1920
2918,-344,-435,1094,-29,2,-1551
2919,-386,-172,1083,31,1,-942
2920,-375,-227,943,-39,57,-711
2921,-838,-257,976,27,-39,-375
2922,-523,-37,1011,-25,12,-334
2923,-642,-32,1282,-27,-42,-236
2924,-442,-85,881,0,-46,-45
2925,-424,-177,1307,-2,-62,166
2926,-545,-457,1049,-2,-23,213
2927,-486,-442,830,-2,-25,680
2928,-533,-448,1134,0,-5,1232
2929,-488,-225,1182,4,1,1488
2930,-516,26,1292,0,8,1955
2931,-335,-365,470,-2,59,2097
2932,-351,-96,1935,12,38,2222
2933,-146,8,867,12,12,2582
2934,-186,286,865,14,53,2933
2935,-167,265,943,-18,28,2984
2936,-9,267,885,0,-3,3209
2937,-121,224,927,31,-7,3031
2938,40,254,1326,-8,-3,3074
2939,167,545,1013,64,-41,2633
2940,-418,240,970,-4,-46,2795
2941,68,381,1056,-18,-9,2068
2942,184,497,1041,-16,6,1469
2943,192,293,1134,-12,-70,2051
2944,218,281,1086,-25,-179,2287
2945,226,314,1139,-6,-93,2121
2946,396,308,1117,2,14,2023
2947,111,345,686,-4,-7,1951
2948,294,275,946,16,18,1826
2949,374,278,897,22,22,1601
2950,345,271,1011,33,-1,1125
2951,181,412,726,-8,2,959
2952,136,375,759,12,-3,699
2953,162,535,1056,-4,10,543
2954,259,474,1101,-35,43,365
2955,124,388,784,2,-1,39
2956,272,104,1410,8,16,-361
2957,323,197,1047,2,14,-363
2958,170,341,819,-12,2,-627
2959,179,74,1392,10,4,-885
2960,301,294,915,-4,-9,-1108
2961,179,318,863,12,-25,-1500
2962,137,305,1122,-6,-15,-1815
2963,59,212,891,-2,-19,-2281
2964,11,267,735,2,-23,-2799
2965,-131,-230,778,8,-5,-2914
2966,-133,27,1675,-14,1,-3016
2967,3,-54,989,-12,-17,-3006
2968,271,-726,1808,8,34,-2727
2969,-61,-257,888,8,4,-2660
2970,26,-632,510,33,-3,-2565
2971,-426,-157,1218,0,1,-2354
2972,-157,-612,1002,14,-1,-1869
2973,285,-223,748,-4,28,-1682
2974,-147,277,-1098,100,-15,-1750
2975,193,-9,-254,27,12,-1680
2976,164,-196,437,-8,-7,-1746
2977,211,-1046,1389,-19,1,-1750
2978,70,-324,696,-41,22,-1580
2979,51,-230,1099,-4,-7,-1422
2980,-44,-880,1376,-21,8,-1236
2981,13,-745,1015,-43,14,-758
2982,-3,-23,999,2,-3,-82
2983,55,-212,1010,-10,1,183
2984,101,-340,998,25,-17,404
2985,18,-190,942,6,-13,72
2986,173,-568,992,-8,-11,-354
2987,132,-723,1111,-4,-23,-88
2988,62,-524,325,20,-29,414
2989,-130,-499,514,10,1,597
2990,-45,-263,452,-19,-13,613
2991,-215,-10,335,-49,20,453
2992,-61,-361,1579,-10,-11,523
2993,231,-416,699,-6,-15,930
2994,-29,-466,960,-8,-7,1080
2995,-9,-475,1000,-4,-25,1105
2996,-58,-447,1177,-8,-27,1301
2997,-74,-264,1066,-6,-23,1697
2998,-251,-357,1217,-21,-3,1896
2999,67,-486,1066,-4,-3,2158
3000,-161,-301,1114,20,-13,2504
3001,-329,-31,524,-4,6,2703
3002,-118,-349,695,0,2,3033
3003,87,-56,1243,-14,24,2906
3004,112,-57,1144,-14,47,2814
3005,193,62,829,6,34,3193
3006,-83,447,590,-10,2,3347
3007,153,608,1471,22,-11,3480
3008,-75,700,1159,0,18,3117
3009,-37,778,923,-8,22,2881
3010,115,673,1152,-2,-1,2781
3011,108,808,1158,6,-17,2562
3012,175,753,1021,-6,-7,2137
3013,128,1063,1285,0,-1,1885
3014,198,1109,1075,6,2,1271
3015,167,1035,993,18,-11,703
3016,29,803,960,-6,4,281
3017,342,463,1001,-45,16,-291
3018,293,647,1079,-10,-9,-848
3019,123,772,1078,-2,-13,-221
3020,130,837,1086,14,-17,49
3021,73,864,936,6,-15,-365
3022,69,959,1100,-2,-7,-1029
3023,17,819,1139,-10,-1,-1654
3024,53,752,663,20,-17,-2098
3025,129,528,617,-18,-15,-2391
3026,194,610,279,8,-31,-2514
3027,127,440,583,-19,-1,-2529
3028,143,503,1175,-16,8,-2625
3029,41,248,865,8,-3,-2772
3030,137,212,1419,-29,-37,-3092
3031,109,117,817,-12,-23,-3250
3032,21,60,1330,6,-33,-3250
3033,86,-13,1023,16,-37,-3186
3034,42,-113,790,-14,-31,-3125
3035,113,-255,925,-45,-11,-2983
3036,33,-285,617,-31,-11,-2885
3037,33,-483,926,23,-42,-2815
3038,-20,-417,810,29,-25,-2547
3039,-76,-607,964,41,-50,-2303
3040,-146,-530,920,10,-1,-2194
3041,-7,-890,885,4,16,-2125
3042,-63,-775,848,-41,4,-2281
3043,-41,-864,888,4,6,-2024
3044,7,-982,1059,-2,-1,-1570
3045,-18,-1028,967,12,-13,-977
3046,-131,141,993,8,-11,-406
3047,-123,-594,1012,4,-1,340
3048,-22,-816,1018,-6,4,242
3049,31,-728,1020,-2,-5,43
3050,2,-808,677,-20,10,140
3051,69,-881,529,0,-1,623
3052,-78,-776,694,2,-9,978
3053,-29,-695,869,-8,-21,1297
3054,-10,-543,716,-6,-9,1539
3055,-32,-597,967,-37,49,1805
3056,-44,-417,1027,0,10,1894
3057,-157,-528,1016,-23,49,2033
3058,-45,-217,1134,16,28,2252
3059,-113,-86,933,20,4,2506
3060,86,-181,1505,-12,45,2615
3061,35,-434,953,12,16,2797
3062,170,-199,401,-2,32,3267
3063,597,-462,1315,-20,43,3826
3064,339,32,1748,-8,59,3855
3065,236,268,884,2,30,3764
3066,267,409,1595,27,4,3529
3067,278,358,1667,10,12,3256
3068,152,584,907,33,4,2869
3069,206,470,1191,-23,2,2517
3070,303,717,939,4,-29,2250
3071,392,763,1119,-4,2,1937
3072,382,795,859,6,1,1408
3073,407,837,986,25,-9,1226
3074,487,721,991,-20,4,976
3075,407,779,992,-43,16,625
3076,432,802,1021,4,-21,357
3077,563,743,1158,41,-37,-117
3078,415,772,1053,-2,-1,-736
3079,276,807,1062,21,-25,-1088
3080,128,489,1380,4,-25,-1500
3081,388,924,987,-31,-21,-2078
3082,162,615,1205,-16,-17,-2697
3083,294,736,1183,-16,24,-3313
3084,326,439,1071,-16,24,-3789
3085,290,627,876,41,20,-4033
3086,215,408,1001,14,116,-4481
3087,346,432,528,31,104,-4678
3088,111,37,1302,-25,30,-4897
3089,169,-111,1163,-8,-11,-5043
3090,206,217,912,-22,-35,-4770
3091,-105,-309,944,-12,42,-4447
3092,-63,-720,895,-57,16,-4602
3093,-448,-969,834,16,-29,-4137
3094,-420,-465,773,-49,32,-3834
3095,-499,-965,655,21,-11,-2895
3096,-513,-931,719,0,10,-2164
3097,-567,-884,1374,-14,-13,-1887
3098,-484,-1070,1359,10,-46,-1414
3099,-437,-793,1004,-8,-3,-889
3100,-372,-704,1024,2,-3,-414
3101,-591,-401,1067,0,12,-334
3102,-602,-382,836,-6,30,291
3103,-472,-462,1008,0,24,847
3104,-519,-511,904,0,10,1433
3105,-414,-259,995,-4,-21,1418
3106,-100,-408,1314,-10,20,1926
3107,-128,-77,696,62,-78,2164
3108,-630,-262,1163,4,-1,2849
3109,-203,-209,963,107,-15,1656
3110,-42,-150,1466,-16,-39,2029
3111,-255,-230,974,-6,-17,1951
3112,-104,-118,740,21,-138,2629
3113,-103,-173,1002,4,-220,2775
3114,-231,-250,1002,-4,-23,2580
3115,51,-137,1018,-14,86,2613
3116,-13,286,644,-31,14,2881
3117,183,293,1195,20,1,2508
3118,-67,-4,1124,-39,92,2426
3119,-54,58,1965,-10,55,1865
3120,370,151,788,-29,79,1838
3121,222,385,768,16,6,1508
3122,229,131,991,8,32,2027
3123,269,78,875,18,61,2256
3124,511,13,826,8,28,2053
3125,256,73,1000,16,2,2084
3126,481,242,1060,-6,-23,2058
3127,430,258,973,-2,-21,1703
3128,226,281,925,6,20,1314
3129,561,379,985,8,30,783
3130,523,271,1101,0,26,594
3131,553,230,1015,-12,18,623
3132,-2,-27,1008,-2,-1,408
3133,514,413,1000,-2,6,-67
3134,509,317,1049,-4,-5,-404
3135,478,488,809,-2,-9,-471
3136,372,370,1021,-8,-3,-610
3137,340,355,1022,-10,16,-1147
3138,422,446,1523,-25,34,-1469
3139,469,204,520,0,-11,-1444
3140,367,226,1092,10,-23,-1399
3141,330,276,957,-23,-35,-1967
3142,147,198,1031,4,-39,-2037
3143,70,61,1045,16,-58,-2418
3144,164,65,1289,-31,-58,-2770
3145,-193,-111,1635,-41,-76,-2961
3146,239,-45,800,-12,-58,-3338
3147,-12,-313,1067,4,-31,-3367
3148,296,-101,895,-33,-33,-3217
3149,-457,-326,1176,25,-11,-2750
3150,10,-164,1051,37,-40,-2512
3151,-300,-381,1151,4,-21,-2701
3152,-216,-335,941,-6,172,-2365
3153,-292,-404,964,-10,131,-2069
3154,-322,-519,1039,-6,96,-1555
3155,-276,-514,965,-21,77,-1475
3156,-616,-633,898,6,65,-1096
3157,-361,-575,1002,-21,16,-1233
3158,-528,-539,1136,-12,-1,-983
3159,-520,-426,1198,-8,6,-422
3160,-427,-427,1043,10,-15,68
3161,-454,-632,894,0,-7,555
3162,-589,-794,1072,16,-1,988
3163,-533,-715,1005,29,-3,1228
3164,-336,-312,1016,-14,1,1539
3165,-473,-439,1116,10,-7,1297
3166,-316,-91,1314,10,24,1588
3167,-251,-131,994,-31,-46,2047
3168,-360,-156,1004,6,-115,1894
3169,-235,-102,937,-2,-119,1685
3170,-225,-117,1149,16,-195,1654
3171,-84,-61,907,-14,-19,1435
3172,-40,-403,471,-19,18,1639
3173,60,-354,1036,-12,26,2480
3174,112,-56,930,31,-19,2699
3175,-115,-387,909,8,67,3412
3176,169,122,1163,2,30,3123
3177,100,-45,1120,25,51,3396
3178,-3,324,1624,6,65,2885
3179,222,565,285,33,40,2533
3180,381,557,810,25,-3,2396
3181,317,436,811,-4,40,1887
3182,547,418,951,18,12,1275
3183,350,302,1013,14,12,1418
3184,539,431,1020,2,-21,1564
3185,388,382,1016,0,-3,1465
3186,507,438,1076,4,12,1197
3187,551,631,967,-2,2,1055
3188,519,551,970,4,-1,779
3189,4,4,1004,0,2,435
3190,412,487,1004,-10,32,6
3191,389,261,1066,-10,14,-641
3192,418,576,999,-2,-15,-863
3193,400,442,1048,0,2,-360
3194,307,481,951,-6,-11,-486
3195,370,318,1031,0,6,-819
3196,446,289,865,0,-7,-1014
3197,426,382,994,-23,-15,-1287
3198,338,247,1010,-18,-23,-1600
3199,350,316,948,-4,-46,-1944
3200,206,386,2048,-23,-19,-2170
3201,273,524,629,-25,-37,-2406
3202,360,386,1078,-10,-48,-2582
3203,355,449,868,16,-52,-3039
3204,154,178,1400,14,-56,-3319
3205,132,247,950,16,-82,-3569
3206,66,323,789,-18,-11,-3574
3207,200,95,719,2,-13,-3709
3208,53,-179,846,29,-60,-3783
3209,-143,-365,1019,-27,32,-3936
3210,46,77,1036,-23,235,-3860
3211,-199,-403,860,-35,85,-3758
3212,65,-173,889,-31,118,-3738
3213,-262,-365,893,-19,94,-3268
3214,-329,-796,967,-39,-3,-3410
3215,-103,-372,938,-86,-50,-3289
3216,-459,-640,874,-31,-23,-2440
3217,-297,-730,1092,10,-1,-1981
3218,-434,-852,1097,-2,-31,-1988
3219,-492,-931,1006,12,24,-1492
3220,-350,-832,1014,2,1,-1078
3221,-17,-23,1003,4,-17,-186
3222,-530,-505,1036,2,-13,476
3223,-323,-594,965,-8,1,949
3224,-364,-742,924,-16,-7,426
3225,-317,-485,1037,4,6,84
3226,-279,-473,847,2,18,871
3227,-62,-399,1195,2,-27,1410
3228,-459,-706,754,61,-7,1713
3229,106,-606,1356,6,-7,1865
3230,-252,-631,890,20,53,1984
3231,-86,-281,1047,55,-60,2492
3232,-45,-327,1176,27,-58,2924
3233,-336,-333,867,111,-236,2986
3234,-34,43,1014,29,-160,2762
3235,-72,-275,1135,37,-132,2877
3236,123,-151,968,-27,12,3021
3237,241,139,1336,-16,36,3189
3238,272,236,994,8,-1,3779
3239,39,70,1349,27,32,3961
3240,-46,-204,783,20,77,3185
3241,39,169,630,6,51,2836
3242,238,139,1280,-41,79,2705
3243,225,526,1432,8,55,2049
3244,17,475,669,17,-11,1885
3245,339,512,1488,15,26,1445
3246,416,299,1039,10,32,1295
3247,345,225,981,0,28,1267
3248,316,184,955,11,-3,1578
3249,395,211,1012,2,6,1730
3250,463,321,1023,-10,2,1775
3251,477,564,976,2,-15,1887
3252,447,635,1013,2,4,1705
3253,457,646,1004,0,14,1244
3254,106,-18,999,-2,-5,920
3255,168,345,999,-10,30,242
3256,453,475,1032,-39,67,-49
3257,184,565,972,6,-27,240
3258,127,511,1025,13,-11,248
3259,219,523,889,4,6,-328
3260,283,516,1005,0,-23,-1031
3261,202,358,789,8,-13,-1627
3262,297,406,1139,8,-11,-2067
3263,26,381,584,2,-23,-1983
3264,143,345,1027,-35,-11,-2102
3265,73,243,1071,-12,-37,-2416
3266,155,319,1019,-12,-21,-2660
3267,115,75,1143,-14,-48,-2676
3268,106,245,1768,-12,-31,-2842
3269,233,212,1069,-18,-37,-3063
3270,33,150,1418,-2,-27,-2951
3271,219,-220,1798,11,-35,-3047
3272,100,48,1065,-6,-27,-3279
3273,128,-141,1044,-6,-44,-3535
3274,65,-3,815,0,-42,-3736
3275,-41,-427,616,-8,-37,-3455
3276,91,-240,945,-24,-35,-3342
3277,-11,-479,881,6,-44,-2746
3278,-103,-598,945,-2,-62,-2447
3279,-36,-507,1054,-6,-7,-1762
3280,-179,-513,1001,70,-85,-1625
3281,-111,-352,709,35,-31,-1285
3282,-109,-720,1092,10,-11,-981
3283,-215,-715,1052,13,-42,-1178
3284,-183,-836,1118,0,-23,-852
3285,-162,-558,987,-10,28,-361
3286,35,-366,1030,4,-7,84
3287,-75,-575,1039,10,-13,469
3288,-36,-552,1131,0,0,242
3289,98,-733,892,4,0,355
3290,-17,-542,1080,-2,6,627
3291,147,-767,980,-10,26,939
3292,143,-502,961,-4,6,1035
3293,-51,-447,864,-22,22,1408
3294,72,-491,978,-2,18,1426
3295,108,-603,752,-26,30,1633
3296,178,-252,1068,-6,6,1898
3297,-62,-339,1022,-30,32,1838
3298,70,-243,1114,8,12,1957
3299,66,-298,864,0,8,2043
3300,-151,-431,889,2,10,2336
3301,78,-413,901,13,8,2637
3302,124,-328,1072,49,-13,3066
3303,110,-250,1130,10,30,3260
3304,56,176,1294,-10,26,3324
3305,3,270,946,41,-27,3662
3306,-45,230,927,49,-3,3639
3307,-72,272,1142,29,12,3154
3308,91,483,1175,-22,38,2818
3309,135,585,1117,6,14,2820
3310,115,651,1063,-16,30,2615
3311,99,438,915,15,24,2574
3312,167,435,1093,21,8,2443
3313,91,408,935,0,12,2385
3314,99,805,1090,-6,20,2209
3315,83,870,1021,0,10,2191
3316,50,899,919,-4,14,1806
3317,108,1031,1002,-4,14,1426
3318,215,970,985,6,0,1062
3319,-121,485,1006,-39,24,158
3320,98,525,1000,-20,10,330
3321,41,865,882,-14,12,754
3322,96,721,971,-2,4,1053
3323,14,850,1015,11,-5,664
3324,28,893,862,2,-7,92
3325,7,637,1103,-12,-7,-680
3326,60,640,1018,-10,-11,-1024
3327,72,367,981,-16,-3,-1526
3328,99,448,864,4,0,-1674
3329,126,288,982,-2,2,-1623
3330,58,254,1008,4,-1,-1854
3331,263,253,946,15,-31,-1944
3332,138,276,529,6,-11,-2166
3333,50,169,859,-31,6,-2678
3334,0,61,1572,8,-3,-2567
3335,142,-116,744,6,-27,-2586
3336,108,-178,1207,-26,-29,-2807
3337,41,-376,1232,-2,-25,-2863
3338,79,-532,798,-33,-11,-2637
3339,120,-569,880,-10,-17,-2217
3340,-95,-509,846,2,-17,-2205
3341,30,-562,1161,-16,-3,-2184
3342,24,-605,889,2,-11,-1694
3343,-34,-588,1221,12,-25,-1694
3344,120,-807,804,-2,-7,-1504
3345,10,-689,1040,-6,-5,-1260
3346,40,-657,983,4,-9,-998
3347,-92,-749,1089,4,-5,-533
3348,-45,-792,977,2,0,-360
3349,-7,-13,1013,0,-1,-301
3350,113,-503,989,0,-7,-14
3351,2,-539,983,51,-56,-256
3352,-16,-645,1044,0,-17,-729
3353,-7,-739,979,-37,8,-444
3354,108,-766,1094,-63,32,-106
3355,55,-602,1263,-4,10,711
3356,-64,-554,1208,-12,2,973
3357,-19,-498,1103,2,6,898
3358,-110,-377,884,-8,18,834
3359,25,-546,1085,6,8,1094
3360,-50,-326,1369,0,18,1146
3361,-24,-263,940,8,4,1221
3362,-127,-392,960,-2,2,1670
3363,-45,-389,1027,-20,22,1953
3364,162,-409,1091,25,18,2586
3365,27,-178,1265,23,28,2928
3366,70,-33,980,-31,30,2947
3367,204,81,1203,29,-15,3328
3368,65,92,912,8,26,3234
3369,313,-126,416,14,22,3060
3370,-2,461,833,-18,12,2998
3371,-120,419,622,8,-9,2867
3372,89,426,1102,12,-5,2615
3373,300,570,1289,-14,14,1797
3374,82,933,1081,17,6,1826
3375,224,798,1264,-16,16,1806
3376,245,865,1459,0,8,1713
3377,200,1044,1383,-8,8,1639
3378,232,1014,1132,-4,0,1346
3379,124,55,998,-6,8,890
3380,253,612,1000,-24,22,-27
3381,151,896,887,-10,6,-266
3382,127,825,920,8,-11,371
3383,26,844,1027,4,-5,238
3384,95,711,812,16,-25,-545
3385,245,387,1090,-4,-3,-1053
3386,21,583,1110,-2,-3,-1117
3387,133,267,1267,12,-9,-1197
3388,198,333,1008,0,8,-1426
3389,168,503,179,10,14,-1395
3390,146,220,832,29,-23,-1580
3391,133,328,1386,-14,-21,-2100
3392,86,441,942,-8,-9,-2213
3393,47,123,894,-12,-3,-2305
3394,167,78,1064,12,-13,-2522
3395,45,-40,195,-6,-27,-2606
3396,63,-431,1785,-8,-42,-2731
3397,-92,295,1198,-12,-29,-2799
3398,-145,-176,-149,4,-27,-2451
3399,130,-583,810,-22,-3,-2299
3400,-124,-482,1116,2,-15,-2184
3401,-3,-661,1005,2,-19,-2049
3402,60,-545,884,-14,-15,-2045
3403,-1,-458,991,25,-33,-2053
3404,-9,-657,796,37,-23,-1873
3405,22,-721,956,10,0,-1729
3406,43,-724,873,8,-17,-1619
3407,-55,-784,1012,-2,-11,-1291
3408,-64,-959,1051,-2,-3,-1022
3409,-131,-425,996,-4,-9,-709
3410,161,-636,995,2,-13,-147
3411,-15,-726,901,4,-11,-305
3412,-26,-785,1032,-10,-9,-453
3413,1,-669,1051,-18,-9,-299
3414,155,-652,1088,-8,-3,39
3415,151,-760,610,-51,10,389
3416,7,-680,849,-31,0,721
3417,-112,-573,830,-12,-3,828
3418,54,-576,1162,-14,12,1070
3419,-60,-423,1076,2,12,1514
3420,-6,-559,1237,12,4,1844
3421,169,-587,912,14,4,2072
3422,34,-424,1174,-6,0,2308
3423,-29,-264,1074,-20,38,2310
3424,-132,-239,873,-10,28,2326
3425,-76,-48,880,4,26,2426
3426,-33,82,947,-22,20,2461
3427,-6,0,716,0,-1,2590
3428,-148,61,891,-12,16,2750
3429,-19,230,804,-14,4,3041
3430,58,300,1013,35,-35,3021
3431,-30,304,977,14,16,3129
3432,85,475,1104,43,-1,2971
3433,83,687,989,4,20,2537
3434,141,703,880,4,24,2275
3435,171,801,1087,17,10,2035
3436,78,800,1796,94,-42,1738
3437,62,884,1803,-10,16,1519
3438,155,793,991,-20,24,1531
3439,173,952,1202,-8,4,1523
3440,105,1134,982,0,4,1303
3441,346,-2,996,2,4,728
3442,118,660,1009,-35,12,-51
3443,127,634,969,-14,6,-250
3444,62,839,958,6,-1,525
3445,23,684,1070,17,-9,765
3446,-5,795,956,4,-5,117
3447,31,704,889,8,-13,-680
3448,92,701,957,-31,4,-1260
3449,100,583,1030,-24,-1,-1260
3450,55,408,971,-26,-3,-1537
3451,22,218,960,-12,-3,-1709
3452,28,415,1067,-16,-7,-2078
3453,-18,261,1202,-10,-15,-2051
3454,116,543,1059,2,8,-2127
3455,169,318,768,2,-3,-2180
3456,40,94,1647,0,8,-2485
3457,63,118,1029,6,-19,-2631
3458,180,-137,1194,-2,-11,-2539
3459,31,-11,879,-12,12,-2428
3460,131,-241,464,13,-25,-2385
3461,3,-169,973,-8,-29,-2545
3462,-33,-436,869,-2,-41,-2326
3463,69,-534,1130,-2,-21,-2178
3464,-18,-598,1007,0,-13,-1994
3465,61,-515,915,-8,-7,-2008
3466,-8,-684,973,-6,-19,-2111
3467,30,-607,1015,-12,2,-1860
3468,6,-730,1156,-4,-11,-1785
3469,-1,-622,1388,-2,-9,-1475
3470,48,-857,953,-6,-9,-1186
3471,35,-902,853,-2,-9,-1047
3472,-83,-819,1039,0,-5,-654
3473,-18,-18,1008,-4,-5,-377
3474,198,-553,992,6,-7,-16
3475,1,-488,978,13,-17,-313
3476,22,-806,1008,11,-15,-764
3477,29,-790,1019,-16,10,-422
3478,-64,-725,1043,0,0,150
3479,-38,-699,1045,-28,18,723
3480,-71,-522,1092,-35,28,961
3481,87,-399,965,-6,10,994
3482,5,-434,776,-4,16,1176
3483,9,-597,765,-2,6,1506
3484,-136,-409,1012,11,-1,1674
3485,-119,-627,744,2,22,1658
3486,-33,-344,973,8,26,1713
3487,-9,-337,1607,15,30,2025
3488,-63,-222,1198,-20,32,2230
3489,114,-313,911,10,-3,2500
3490,11,-314,1290,0,20,2689
3491,212,-5,1294,-8,34,2834
3492,282,31,1644,-16,8,2871
3493,-22,222,441,43,-35,3246
3494,156,227,668,6,12,2988
3495,187,606,1424,31,-3,2785
3496,162,678,1140,-6,16,2683
3497,101,837,939,-26,24,2406
3498,229,807,1218,15,-1,2267
3499,97,882,927,54,-11,2281
3500,192,927,946,23,-3,1969
3501,182,1025,947,-30,20,1490
3502,204,1096,1018,2,-1,1180
3503,-35,1037,995,-14,4,599
3504,195,274,1007,-41,24,-6
3505,110,470,1004,-24,14,-402
3506,87,879,920,-4,-1,258
3507,106,772,1124,6,-1,629
3508,-4,795,1084,8,-5,279
3509,72,908,785,4,-13,-666
3510,84,850,747,-18,-1,-1361
3511,135,569,1147,2,-11,-1557
3512,145,366,900,0,-7,-1662
3513,33,375,909,-6,-11,-2012
3514,-18,931,993,-12,-3,-2113
3515,-41,326,1186,13,-17,-2295
3516,86,161,963,2,6,-2338
3517,-8,252,727,8,4,-2393
3518,68,191,1032,25,-25,-2473
3519,-47,-177,1299,-2,-19,-2664
3520,162,60,343,-14,-1,-2393
3521,-130,81,898,29,-13,-2330
3522,177,-223,943,-18,-23,-2192
3523,-308,-132,1668,-8,-44,-1959
3524,40,-227,467,-22,-19,-2016
3525,-123,-555,413,4,-35,-1932
3526,-92,-257,1739,15,-5,-1701
3527,136,-620,744,-2,-3,-1701
3528,59,-704,857,-2,-3,-1584
3529,62,-764,986,4,-15,-1373
3530,-71,-609,1506,13,0,-1209
3531,-56,-783,1383,4,2,-1102
3532,-65,-709,915,6,10,-1102
3533,-43,-639,878,-2,8,-1277
3534,-58,-515,879,-6,10,-912
3535,-36,-416,826,2,0,-926
3536,-93,-282,996,-2,-9,-1328
3537,9,-335,941,0,-15,-1549
3538,-8,-310,1021,-6,-5,-764
3539,5,-2,1005,-2,-1,-84
3540,4,4,1009,0,0,2
3541,-4,2,1013,-2,-1,-4
3542,-11,-3,1004,-2,-1,0
3543,6,-11,1004,-2,-3,4
3544,0,-10,1008,-2,-3,2
3545,-10,-4,994,-4,-1,4
3546,-10,-2,1001,-2,-3,-2
3547,-6,1,1013,-2,-1,6
3548,0,-1,1002,-2,-1,2
3549,0,-6,985,-2,-3,-2
3550,-9,-12,1007,0,0,-2
3551,1,-2,1013,-2,-1,0
3552,-5,0,1004,0,0,2
3553,-4,-6,1006,0,2,-2
3554,0,-5,1007,-2,-1,-2
3555,-9,6,1016,-2,-3,6
3556,-2,2,1005,-2,-1,-2
3557,-5,-13,1003,0,-1,0
3558,-2,-7,1008,0,-5,-2
3559,-10,-5,1007,-2,-1,0
3560,-3,-4,989,0,0,0
3561,-14,-2,994,-2,-1,0
3562,-5,-6,1013,-4,-1,-2
3563,-4,-4,1002,-2,-1,-2
3564,-11,-2,1002,-4,-3,0
3565,-3,-7,1000,-2,-5,0
3566,-2,-9,1002,-2,-5,2
3567,-5,-9,1006,-4,-1,-2
3568,1,1,1007,0,0,0
3569,2,0,1010,-2,-1,2
3570,-1,-1,1011,-2,-3,-2
3571,-12,-6,1005,0,2,2
3572,-4,-9,1016,-4,-1,-4
3573,-3,-12,1006,-2,-1,0
3574,-1,0,1002,2,2,0
3575,1,-10,1006,-2,-1,-2
3576,-4,3,1000,2,0,-2
3577,-3,0,991,0,0,-6
3578,-1,5,1012,-2,-1,0
3579,-5,1,1007,-4,-3,0
3580,-7,2,999,-2,-3,2
3581,-8,-4,1007,-2,-3,0
3582,4,-1,1009,-2,-3,0
3583,-4,6,1007,4,0,0
3584,2,2,1001,2,2,2
3585,8,-4,1000,2,0,0
3586,0,0,986,0,-1,0
3587,-7,-6,1005,-2,-1,0
3588,-8,-7,999,-4,-1,-2
3589,-5,-7,991,-4,-1,4
3590,-1,5,1013,-2,-3,2
3591,-12,3,1007,0,0,2
3592,-9,1,1011,0,0,-4
3593,-10,-9,1005,0,-3,-2
3594,-10,0,1019,-4,-1,4
3595,4,-1,1025,-2,-3,-2
3596,-3,2,1014,-2,-1,0
3597,1,-4,1002,-4,-1,-2
3598,1,-6,1007,-4,-3,0
3599,-8,-5,1014,-1,1,-2
3600,-2,-6,1016,-5,-1,0
3601,0,0,999,1,1,2
3602,-7,-2,1002,-1,-3,0
3603,2,-4,1011,1,1,2
3604,-2,-7,1027,1,1,2
3605,-10,1,994,-1,-3,4
3606,-3,1,1014,-1,1,4
3607,-8,1,993,-1,-1,-2
3608,-7,0,1002,1,3,4
3609,-9,-1,998,-1,-1,0
3610,1,0,1003,-1,-1,0
3611,-6,2,1014,1,1,-2
3612,-1,0,995,-1,-3,0
3613,-7,-3,1004,1,1,-2
3614,-3,-4,992,-1,-1,-2
3615,-4,-5,1010,-5,-5,4
3616,-12,4,1001,1,1,4
3617,-4,-8,992,-3,-3,-2
3618,-12,-4,985,-1,-1,-2
3619,-2,2,1009,-1,-3,2
3620,2,0,1006,1,-1,-2
3621,2,-4,1024,1,-1,0
3622,-3,-2,1000,1,1,2
3623,-10,-2,1010,1,1,0
3624,-6,-3,1008,3,3,-2
3625,-6,6,993,-1,-1,0
3626,-5,-5,1002,1,1,0
3627,-2,0,1008,-1,-1,-2
3628,-7,-7,999,-3,1,4
3629,-1,-9,992,-1,-1,0
3630,-12,2,1007,-1,-5,0
