sequence,AccelerometerX,AccelerometerY,AccelerometerZ,GyroscopeX,GyroscopeY,GyroscopeZ
0,-10,-2,1006,1,1,-1
1,-7,-2,1009,-1,-1,-1
2,-5,-3,1000,3,1,0
3,-1,1,1024,-3,-1,2
4,-8,0,1012,-1,-3,-1
5,-12,-8,1003,-1,-1,-1
6,-4,-2,1006,1,3,2
7,-3,-9,1006,1,3,-1
8,-8,0,1005,1,3,-1
9,-3,-7,995,-1,-3,-1
10,-4,-5,1008,1,1,-3
11,-10,-3,1012,-1,-1,-3
12,0,1,1013,1,1,-1
13,-7,-2,1008,-3,-1,-3
14,2,1,1013,1,1,2
15,-3,-4,1007,-1,-3,-1
16,-1,-8,1000,-1,-1,-3
17,-10,-4,1011,-1,-3,-1
18,-15,-7,992,-1,-3,-1
19,-14,-11,1005,1,3,0
20,-9,-11,994,1,1,0
21,-2,-3,993,-3,-1,0
22,-10,3,992,-1,-1,0
23,3,2,995,-1,-3,-1
24,-11,-4,1007,-1,-1,-3
25,-6,4,1006,3,1,-3
26,-10,-8,992,-3,-3,0
27,-10,-3,1005,-1,-1,-1
28,-3,-4,1006,-3,-3,-5
29,-7,-5,1002,-1,-1,-3
30,-7,1,1012,1,3,-1
31,-10,-3,1007,1,1,0
32,-2,-10,1007,1,1,-3
33,-5,-8,1000,-5,-1,0
34,-8,-6,1007,-1,-3,0
35,-4,-5,1010,1,-1,-1
36,-3,-11,1005,-3,-1,2
37,-8,-7,1006,1,-1,-1
38,-6,4,1002,-3,-1,-7
39,7,5,1010,1,1,0
40,-3,5,1011,1,3,2
41,-6,1,1001,1,1,0
42,-4,-7,1011,1,1,-3
43,-5,-3,996,-3,-1,-3
44,-3,-6,1006,1,1,-5
45,3,3,997,-1,1,-1
46,-10,1,1008,1,3,0
47,-1,-6,1009,-1,-4,-5
48,-7,-5,1005,-1,-3,0
49,-4,2,1001,-3,-1,-1
50,3,3,1002,-1,-1,-1
51,-5,-6,1000,1,3,2
52,-4,-9,988,1,-1,-3
53,-10,-4,987,3,1,0
54,-15,-7,1010,-1,-3,0
55,-4,2,993,3,-3,0
56,-12,-2,997,-5,-1,2
57,-3,-7,992,-1,-3,-5
58,-6,-2,1003,-3,-1,-3
59,-8,0,1004,-1,-1,-1
60,-12,0,999,1,-1,-1
61,1,-8,1017,1,1,-3
62,1,-6,1005,-3,-3,-1
63,-1,7,1007,-3,-4,0
64,-3,1,1015,-1,-1,0
65,-1,-4,987,1,3,-1
66,-9,-8,1000,5,1,-1
67,-12,-3,1007,-1,-1,0
68,-5,-1,1005,1,-1,-1
69,-7,2,1014,-1,-1,-1
70,-10,-3,1007,-1,-1,0
71,-10,-6,989,-1,-3,-1
72,-6,-3,1014,-1,-1,0
73,-10,3,1005,-1,-3,-1
74,-7,-2,1000,-3,-3,-1
75,-6,-7,1005,-3,-3,-1
76,-11,-4,1009,1,1,-1
77,-9,-5,993,-1,-3,-1
78,-12,5,1001,3,1,-1
79,-8,-1,995,-1,-3,-1
80,-7,0,1009,1,1,2
81,-7,2,996,1,1,-1
82,-4,-6,992,1,1,-1
83,-16,1,1001,-1,-1,-1
84,-9,-7,1019,-1,-1,-1
85,-7,-8,987,-1,-4,-1
86,-8,-7,995,1,3,-1
87,-10,-1,1005,-1,-3,-7
88,1,-2,996,3,1,4
89,-6,-7,1001,1,1,-1
90,-8,-8,998,1,1,0
91,-11,-9,1001,-1,-3,-1
92,3,-6,1006,1,3,-3
93,1,-2,993,-1,-1,-1
94,-7,-4,1013,1,1,-3
95,-14,1,1008,1,3,-1
96,-6,-7,1002,-3,-1,-5
97,-9,-8,998,1,1,-3
98,-1,-13,985,1,1,-1
99,-15,0,994,-1,1,0
100,-10,-2,1012,1,1,-3
101,-14,4,991,-3,-1,0
102,-3,0,1010,-1,-1,-1
103,-6,-6,993,-1,-1,0
104,-7,-9,1013,-1,-1,0
105,1,-4,1006,1,1,-1
106,-12,-1,1019,1,1,-1
107,-15,-14,1009,-3,-1,-1
108,-9,3,1001,3,3,-1
109,-5,6,1005,2,2,-2
110,-4,0,1010,-2,-4,0
111,0,-3,1014,0,2,1
112,-3,-13,992,-6,-4,-4
113,-8,-15,997,-2,-2,1
114,-13,-5,1004,-4,0,-4
115,-8,0,1017,-2,-4,0
116,-14,1,1000,0,0,0
117,-5,-3,1013,-2,-2,0
118,-1,-7,1007,-4,-6,-2
119,-3,3,994,0,0,-2
120,-1,-6,1002,-2,-2,0
121,-2,-4,984,0,0,0
122,-7,-1,1010,-2,-4,1
123,-1,-6,1010,2,2,1
124,-6,1,1004,-2,-2,3
125,-2,-6,1006,0,-2,1
126,-6,-2,999,0,0,1
127,-12,-2,1005,-2,-4,-2
128,-8,-12,1004,0,0,0
129,-8,4,1006,-2,-4,0
130,-12,4,1003,-4,-2,0
131,-19,0,1006,2,2,5
132,-7,0,1010,0,2,-4
133,-11,2,1002,2,0,-2
134,-11,5,998,-2,-2,0
135,-6,10,1010,-2,-4,0
136,4,4,1006,0,0,0
137,-2,-4,985,0,2,1
138,-12,0,1000,-2,-2,1
139,-7,-1,1011,2,2,0
140,0,-6,1006,-4,-2,0
141,-9,0,1004,-2,-2,0
142,-7,4,1017,-2,-2,-2
143,-3,-11,1022,-4,-8,0
144,-1,-2,991,0,0,0
145,-6,4,993,0,0,0
146,-8,-5,994,-2,0,1
147,-15,-13,1016,0,0,-6
148,-7,-1,999,-6,-2,1
149,-6,1,1005,0,0,0
150,-3,-13,994,0,0,0
151,-4,-3,1002,-2,-4,0
152,1,1,1009,-2,-2,-2
153,-13,-7,1013,-4,-2,0
154,-4,-9,1005,0,0,1
155,-3,-8,1006,0,0,-2
156,4,-5,1002,0,0,-4
157,-6,-2,1002,-2,-2,0
158,0,1,1014,-2,-2,-2
159,-8,1,1001,4,0,-2
160,-17,-2,996,-2,-2,5
161,-11,-1,1009,0,4,-2
162,-9,-8,1007,0,0,0
163,-7,-9,1002,-2,-8,1
164,1,-1,1008,-2,-4,0
165,-6,1,1011,-4,-6,-2
166,-13,-6,1012,0,0,-2
167,-9,-2,1007,0,4,3
168,2,-4,1010,2,0,0
169,-4,1,1002,-2,0,1
170,-11,-3,1009,2,0,-4
171,-2,5,1008,-2,-2,1
172,-6,-11,997,-2,-4,-4
173,-8,0,999,-4,-2,-2
174,-4,-9,1007,0,2,1
175,-12,-2,998,0,-2,1
176,-3,0,1002,-2,-2,0
177,-9,-4,991,-2,-2,0
178,-9,-16,1020,-2,-6,0
179,0,4,986,-2,-4,1
180,-5,-2,999,0,4,0
181,0,4,1002,-2,-2,-2
182,-13,-2,1009,-2,-2,3
183,-8,0,1004,-2,-4,3
184,-5,-3,1014,0,-2,0
185,-9,-3,997,0,0,-2
186,-7,-4,1003,-4,-4,0
187,-12,2,1008,-2,0,0
188,-3,2,1006,-4,-2,1
189,-9,-3,1001,-2,-4,0
190,-3,-7,1004,-2,-2,1
191,-2,-4,1010,-4,0,-2
192,2,-8,991,-4,-4,0
193,-9,0,999,-4,-2,-2
194,-3,-2,965,-2,-4,-2
195,33,-36,1114,-4,-13,3
196,-2,-4,1022,0,12,5
197,-16,5,986,-8,-11,0
198,-17,-11,964,0,4,0
199,-6,9,985,-2,-2,3
200,-15,-8,1058,-2,-4,1
201,-4,0,1014,-4,-2,-2
202,1,-4,1026,-2,-4,0
203,-3,-4,961,-4,6,0
204,0,-6,1014,-2,-9,3
205,-7,-2,998,-4,4,0
206,-7,0,1019,-2,-6,-4
207,-4,0,1000,2,2,1
208,-8,-4,994,-2,0,-5
209,-1,5,1009,0,-2,1
210,-8,2,1008,2,0,-1
211,2,-4,1021,-2,-2,-1
212,-6,3,994,2,4,1
213,-2,-1,1009,0,-4,-1
214,-8,-5,985,-4,0,3
215,-7,-5,979,0,-2,-1
216,-3,6,992,2,4,-1
217,-10,-3,1019,2,0,1
218,17,11,1211,0,-4,1
219,-4,-4,981,2,7,1
220,-4,13,931,-4,-6,-1
221,-1,-5,960,0,6,1
222,-7,-5,994,2,2,1
223,-7,-2,1079,0,-8,-1
224,-16,9,998,2,7,-1
225,-1,-6,1034,0,-8,1
226,-8,6,961,2,9,1
227,-1,-2,1042,0,-8,1
228,-9,-5,1004,2,6,-1
229,-8,-11,1014,-2,-2,-1
230,-8,-1,991,2,2,-3
231,-8,1,983,0,0,-1
232,-10,-2,1007,-2,-4,-1
233,-12,4,1000,4,4,3
234,0,-7,1017,2,-4,-1
235,-4,4,989,2,2,1
236,-15,-16,1103,-6,-6,-1
237,-13,6,954,4,2,-1
238,-1,-1,933,2,6,-1
239,1,2,1045,0,-6,-1
240,-6,2,986,0,7,-3
241,8,0,1049,0,-4,-1
242,-15,-3,978,2,9,-1
243,-9,-8,1011,-6,-6,-1
244,-21,-5,989,2,4,1
245,-6,0,1015,-2,-6,1
246,-35,25,1191,2,-10,-1
247,0,3,928,2,9,-3
248,6,2,913,-2,-2,-3
249,-8,-7,1001,-2,-6,1
250,-18,-1,1001,0,6,-3
251,-6,-3,1105,0,-8,-3
252,-14,-1,955,2,11,-1
253,0,1,1034,-2,-12,3
254,-3,4,945,0,7,-1
255,1,-13,1015,0,-8,-3
256,-9,-6,996,2,4,-1
257,-4,2,998,-2,-4,-1
258,-14,-14,1006,0,-2,5
259,-13,-5,982,-2,2,3
260,-2,-2,1030,0,-4,-3
261,-6,3,984,2,4,1
262,-3,-11,1013,-2,-8,3
263,1,1,984,0,2,3
264,10,-11,1123,0,-14,1
265,4,13,1041,2,9,-1
266,-11,2,985,-4,-10,1
267,-4,-8,973,2,4,-1
268,-8,8,972,2,4,3
269,-11,-7,1070,0,-10,-1
270,-17,4,971,2,9,-3
271,-20,-4,1038,-2,-14,-5
272,-15,-2,974,2,11,1
273,2,-2,1024,-4,-10,5
274,-1,-5,990,2,6,-3
275,-2,10,1009,0,-6,-3
276,0,-3,995,0,0,-3
277,-14,-3,995,2,4,1
278,-10,-9,1049,-6,-8,-1
279,-8,1,980,2,7,-3
280,-1,1,975,2,4,-3
281,7,8,1030,-4,-6,-1
282,1,-1,1003,0,-2,-3
283,-3,-7,1023,-6,-14,-1
284,-38,-14,1015,0,0,-1
285,7,-2,978,2,13,-5
286,15,-6,1066,-2,-14,1
287,-10,-12,994,2,9,1
288,-13,9,972,-2,-4,-1
289,-12,6,1001,0,0,-1
290,-25,4,983,2,4,1
291,-2,-16,1032,2,-6,-1
292,-10,-14,972,2,6,1
293,6,-4,1019,-2,-10,-1
294,-12,1,976,4,6,1
295,-8,4,1006,-2,0,1
296,-9,7,1008,0,2,-1
297,-4,5,1004,0,0,-1
298,19,-28,1146,0,4,-1
299,-24,-9,904,-2,-4,-1
300,-19,2,940,2,8,-3
301,13,14,1082,2,-2,-1
302,1,12,978,2,2,-3
303,5,6,1033,-2,-6,1
304,-12,-3,981,0,8,-1
305,-63,-12,1125,2,-6,-3
306,7,-31,957,0,-2,1
307,3,-14,924,2,9,3
308,14,3,1097,0,-16,1
309,-11,14,952,2,17,-1
310,-2,1,1079,-2,-20,3
311,-26,4,936,2,21,3
312,-9,-15,1033,-2,-14,-5
313,-11,-9,984,4,8,1
314,1,3,1026,2,-2,-5
315,-7,12,1023,4,2,1
316,-14,11,975,0,4,5
317,1,-8,1145,0,-2,1
318,-33,8,969,2,8,-9
319,20,9,992,0,-4,-1
320,-15,4,968,2,4,-3
321,-1,-2,1011,0,-2,3
322,-20,-15,1036,0,0,1
323,-10,-3,984,2,4,-3
324,-6,-3,1031,0,-6,-7
325,-2,-2,972,2,2,1
326,-16,6,1147,0,-12,1
327,11,5,806,0,-8,-1
328,16,4,1027,2,11,-7
329,28,-8,975,-4,-10,-3
330,-2,-5,981,2,6,5
331,-19,-9,974,4,4,3
332,-18,-1,1028,0,-4,-5
333,-13,5,987,2,6,-1
334,-5,7,1038,-6,-8,3
335,-7,4,937,2,13,-1
336,5,-12,1024,0,-10,-1
337,11,-7,910,0,8,-3
338,-1,-9,1020,-2,-14,-3
339,13,5,1054,0,-2,-3
340,4,18,1011,-2,-4,-1
341,-6,-2,1000,2,2,5
342,-11,-6,990,0,-2,-1
343,-8,-28,1005,4,2,-3
344,-18,1,986,2,8,-3
345,-10,-12,1020,0,-2,-3
346,-1,-7,992,2,9,3
347,-18,1,984,4,-8,-1
348,-11,14,978,0,-12,-7
349,2,15,904,4,25,-3
350,27,-14,1115,0,-24,1
351,-17,-22,942,4,19,3
352,-9,-23,1031,-2,-10,1
353,-13,-7,987,2,6,-3
354,-13,11,1003,0,-4,-1
355,-3,10,1025,0,0,1
356,-12,-6,982,0,6,3
357,18,-2,1043,-2,-6,-3
358,6,-23,920,-2,2,-3
359,21,14,1099,-4,-10,-3
360,-11,12,1036,0,0,3
361,20,0,970,0,-8,3
362,-10,-4,997,0,0,1
363,-16,1,997,-2,-4,-5
364,-9,-5,1019,0,0,-7
365,-17,-18,1024,2,4,3
366,-9,-15,1003,0,-2,3
367,-8,-9,984,0,0,1
368,-17,13,998,-2,-2,-1
369,-26,-15,1133,0,-30,-3
370,9,1,929,-2,4,3
371,19,-12,871,2,25,-1
372,31,-25,1137,0,-26,-1
373,-18,0,921,2,23,-3
374,-8,1,1089,-4,-16,-3
375,-20,20,934,2,17,1
376,-4,12,1013,0,-12,1
377,-6,-1,1007,2,2,-1
378,-1,-1,993,0,-2,-3
379,-6,-14,1046,0,-2,-1
380,-15,-2,970,2,6,3
381,-29,-30,1169,0,6,1
382,-12,-2,982,2,11,-1
383,-1,60,922,0,4,-5
384,6,28,996,2,2,3
385,-5,5,993,0,0,7
386,-5,-35,1042,-2,-6,-1
387,-13,-21,991,2,2,-3
388,-15,-5,1020,0,-6,-5
389,-15,6,969,2,6,7
390,-40,9,834,2,-4,7
391,-15,16,1163,0,-32,-1
392,38,21,1020,4,45,-9
393,22,-7,1015,-4,-18,-7
394,-6,-17,958,2,9,3
395,-26,-11,954,2,6,1
396,-24,-9,1077,-2,-8,5
397,-26,13,984,4,15,-3
398,-3,15,1067,0,-20,-1
399,-12,-3,934,2,17,3
400,46,2,812,2,-10,-3
401,-4,-26,977,0,-4,-3
402,5,17,1109,0,-4,-9
403,16,16,1017,0,-12,-1
404,-2,13,963,0,8,3
405,-8,3,988,0,-4,1
406,-16,-3,980,4,4,-7
407,-8,-15,1033,-2,-6,-7
408,-10,-23,1021,0,0,1
409,-5,-10,989,-2,-2,5
410,1,0,989,0,0,1
411,-25,16,945,0,-6,-3
412,-8,26,1100,-2,-32,-7
413,-8,7,963,8,37,-5
414,27,-24,1051,0,-14,1
415,-2,-28,966,4,13,3
416,-13,-7,986,0,2,-1
417,-12,8,1031,0,-2,1
418,-23,17,962,2,9,5
419,-6,-1,1052,0,-12,5
420,-6,-2,949,4,15,-1
421,-16,10,889,-4,-10,-7
422,-24,-16,984,0,-2,-1
423,1,-4,1039,0,0,-1
424,20,-1,1040,0,-4,1
425,-6,6,974,0,6,-1
426,-3,10,1013,0,0,-3
427,-17,-3,963,4,9,-5
428,-11,-8,1016,0,-6,-3
429,-8,-13,1006,2,4,1
430,-2,-20,1001,0,0,-1
431,-7,-3,1011,2,6,1
432,73,-41,864,0,-2,-1
433,-2,20,1155,2,-28,1
434,2,7,946,4,41,-1
435,11,-22,1058,-2,-18,-3
436,0,-25,973,0,8,-3
437,-8,3,956,4,6,-1
438,-16,8,1043,0,-6,3
439,-18,12,965,0,13,1
440,4,2,1062,0,-12,-3
441,-17,0,960,2,15,-3
442,-11,-5,1033,0,-10,-3
443,-20,-1,979,-2,9,-1
444,-49,-38,963,0,-2,1
445,-17,-18,998,0,-14,-3
446,2,18,1005,2,8,-5
447,23,17,1085,0,-12,-1
448,-1,7,969,2,17,-1
449,-10,-28,1025,-2,-6,3
450,-16,-24,942,0,8,-1
451,-7,-7,1001,2,0,-3
452,-5,-3,997,2,-2,3
453,-6,14,983,2,2,7
454,-33,18,998,-2,-32,7
455,-4,-5,992,2,2,-5
456,-2,4,899,2,27,-3
457,22,-27,1123,0,-26,-3
458,-20,-17,963,2,19,1
459,0,-9,1040,-2,-10,1
460,-15,11,972,2,11,1
461,-8,23,998,0,0,1
462,-2,9,1029,-2,-4,-1
463,27,3,813,0,2,-3
464,12,-27,1067,0,-22,-5
465,-11,9,1070,2,8,-1
466,16,20,1043,-2,-18,-1
467,-8,20,972,2,15,7
468,-3,4,1002,0,-6,3
469,-3,-1,988,0,2,-7
470,-7,-7,996,-2,0,-7
471,-10,-15,1028,0,0,3
472,-13,-12,979,2,4,5
473,-3,-8,1007,0,-2,1
474,-9,15,969,2,6,-3
475,-25,10,974,0,-4,-5
476,-4,6,1187,-2,-32,-3
477,-20,-13,1015,2,21,1
478,10,-21,937,0,2,-3
479,7,-17,1059,0,-6,-3
480,-24,16,930,2,13,1
481,-17,11,1059,-2,-14,1
482,-25,18,960,2,13,3
483,-48,-36,1189,-6,2,-3
484,-4,-8,885,0,11,-7
485,14,-19,949,0,0,-7
486,1,5,1027,4,2,5
487,-13,4,1001,-4,0,7
488,-1,-11,1058,-2,-10,1
489,-6,8,955,0,9,-7
490,-4,-12,1022,0,-8,-5
491,-8,-9,962,2,6,-1
492,0,-13,1023,-4,-8,5
493,-4,-14,1003,0,0,3
494,-2,6,999,-2,-2,-7
495,-55,-14,897,2,-4,-3
496,4,-8,1071,0,-14,1
497,6,2,971,2,25,1
498,18,-16,1051,-2,-12,-1
499,-10,-11,989,2,9,-1
500,-13,-3,972,0,2,-1
501,-31,11,1009,0,-6,1
502,-11,-3,976,2,9,3
503,-4,-7,1064,2,-4,3
504,-2,5,958,4,13,-7
505,-1,-8,1030,0,-10,-5
506,-15,-2,985,2,7,-1
507,12,-5,916,0,-2,1
508,52,-23,976,0,-16,-3
509,21,17,1169,4,6,-5
510,-15,23,1061,-2,-18,-3
511,12,7,926,2,15,3
512,-6,-14,980,0,-2,3
513,-17,-20,993,2,2,-5
514,-5,-10,1011,0,0,-3
515,-16,-9,913,0,-4,1
516,-15,-11,1072,0,-20,1
517,3,15,980,2,11,3
518,5,5,921,2,7,3
519,14,-6,1060,0,-4,-5
520,-18,5,960,2,15,-1
521,-2,-13,1066,-4,-8,-1
522,-15,-7,948,2,11,1
523,-7,-8,1021,-2,-8,1
524,-18,14,984,2,7,-5
525,-12,12,1019,2,0,-3
526,-7,-8,1015,0,0,-1
527,6,-4,918,2,2,3
528,7,-28,994,-2,-12,1
529,-4,12,1066,-4,-18,1
530,4,3,1077,2,7,-3
531,-10,14,934,2,4,3
532,-3,3,998,0,-8,3
533,-7,-12,1020,0,-4,-1
534,-15,-10,1012,4,4,-7
535,-15,-29,1034,0,-4,3
536,-1,-10,962,2,4,1
537,-48,41,1086,-2,-18,1
538,-7,8,966,0,-6,-1
539,-4,9,981,0,19,-5
540,6,-11,1122,0,-16,1
541,-9,-28,935,2,13,3
542,-4,-19,1014,0,-10,-1
543,-20,-6,988,2,4,-1
544,-17,12,992,0,-2,3
545,-11,12,1048,2,0,3
546,-18,1,970,2,4,1
547,-2,-11,1032,-4,-8,-3
548,-11,-23,968,2,2,-1
549,-36,-42,1197,-6,-4,-1
550,7,-6,965,2,9,-1
551,9,9,1005,0,-4,1
552,-2,24,1019,0,-2,3
553,-6,7,982,2,4,-1
554,-8,-17,1074,0,-8,-5
555,-19,-17,969,0,7,-3
556,-6,-15,1034,0,-4,-1
557,-11,-8,952,2,9,5
558,-5,26,1139,2,-12,-1
559,-33,23,973,-2,-4,-5
560,13,-2,891,-2,19,-3
561,26,-22,1080,-2,-16,-3
562,-12,-29,952,0,17,-1
563,0,-16,1074,-2,-12,-1
564,-22,-2,987,2,7,-1
565,3,15,1005,-2,-4,1
566,-9,17,1011,-2,-4,-1
567,-10,13,987,2,4,-5
568,11,-6,1040,0,-6,-3
569,-7,-18,959,2,6,-1
570,-6,-20,1030,-4,-6,3
571,-9,-8,991,2,6,-3
572,-7,-50,1095,-2,0,1
573,-38,25,904,0,-6,-3
574,-2,21,919,4,11,-1
575,17,3,1086,4,-6,3
576,-11,-4,1001,2,9,-1
577,0,-21,1043,-2,-10,-1
578,-13,-22,963,2,11,-3
579,-10,-2,982,0,-6,-3
580,-58,-29,1098,2,-6,3
581,18,-18,988,-2,0,3
582,43,5,923,0,11,-1
583,18,-13,1035,2,-14,-1
584,-38,-11,935,4,17,1
585,-29,-9,1089,0,-12,1
586,-9,0,973,6,11,5
587,4,6,1024,0,-12,5
588,6,15,989,2,6,-1
589,-15,-4,1026,0,-4,1
590,6,15,1004,0,-2,-7
591,-20,-18,975,2,2,1
592,-22,1,872,-4,-4,-7
593,-10,-41,1278,-8,-2,1
594,-4,9,965,0,8,-3
595,13,21,1101,4,-2,-1
596,-4,14,980,2,6,3
597,-10,-4,1029,0,-10,-3
598,-18,-11,967,6,8,-5
599,-8,-24,995,0,-4,-3
600,-2,-13,988,6,8,3
601,-1,-5,1014,2,0,3
602,-6,15,1008,0,0,-1
603,-11,17,991,2,4,-3
604,-59,6,1229,2,-12,1
605,-5,-49,1014,4,15,1
606,27,-36,906,-4,0,3
607,8,-32,1019,0,0,1
608,-15,-4,979,2,11,-3
609,-9,11,1123,0,-16,1
610,-21,31,975,2,17,1
611,9,7,1025,2,-14,3
612,-7,-14,936,2,17,-5
613,7,-18,1044,0,-10,-9
614,-39,-31,1222,-10,11,-3
615,-32,15,1021,0,0,1
616,10,9,905,0,4,5
617,20,17,987,0,-2,-1
618,-3,21,1033,2,4,-5
619,-7,-4,1055,0,-6,-1
620,-13,-18,994,0,2,-3
621,-16,-33,994,0,-2,-3
622,-5,-20,980,2,2,1
623,5,4,1016,0,-2,3
624,2,22,1025,-2,2,-1
625,-52,43,1156,2,-2,-5
626,2,-6,865,-4,-2,1
627,8,-8,917,0,9,-1
628,18,-27,1081,0,-12,-1
629,-10,-15,974,2,15,-3
630,-11,-2,1097,2,-12,7
631,-24,23,966,2,11,3
632,-6,20,1011,0,-12,1
633,-9,4,974,4,9,-7
634,2,-14,1025,2,0,-3
635,-7,-23,1020,0,0,-5
636,-6,-17,987,2,4,1
637,-59,21,1185,-6,0,3
638,-15,-2,911,0,-10,-1
639,4,20,942,4,11,-3
640,26,35,1084,0,-6,-1
641,-12,12,1004,2,8,-1
642,1,-31,1013,0,0,-5
643,-14,-27,968,8,8,-3
644,-19,-12,999,0,-2,-3
645,-2,-2,1019,2,2,3
646,1,20,1001,0,4,3
647,2,11,1024,-2,-2,3
648,6,10,1112,0,-6,-9
649,20,23,1074,0,0,-3
650,28,-36,917,2,13,-3
651,21,-41,1010,-2,-18,3
652,-22,1,955,0,15,3
653,-3,10,1085,0,-16,5
654,-21,21,966,2,13,1
655,1,10,1024,-2,-8,1
656,-18,-18,986,2,6,-1
657,-10,-24,992,-2,-2,-9
658,-10,-6,1021,2,4,-5
659,-4,-4,995,-2,6,1
660,-3,0,1017,0,-8,5
661,-24,8,1088,-6,0,1
662,-2,-8,1005,0,-4,-1
663,11,17,966,0,0,-3
664,0,-6,991,0,-2,-1
665,-11,-7,977,2,2,1
666,0,-29,1033,0,-2,-1
667,-23,3,997,2,4,1
668,-10,10,1004,2,-2,-3
669,-3,16,967,2,4,1
670,-4,4,1009,-2,-4,1
671,-8,-9,998,2,-2,-3
672,-5,-13,762,4,6,-5
673,-29,10,1002,-4,-30,1
674,10,4,1024,2,29,5
675,42,-6,1122,0,-22,5
676,-9,-12,936,2,15,1
677,-18,18,962,0,-6,-3
678,-22,3,1009,0,-2,-3
679,-18,-1,969,4,8,1
680,4,-9,1075,-2,-10,5
681,-12,-9,960,2,13,-3
682,-7,0,1033,-8,-8,-3
683,-8,2,953,0,9,-1
684,12,11,929,0,-14,5
685,52,23,1022,0,-6,-1
686,7,18,1203,2,6,-3
687,19,12,991,0,-16,-5
688,-1,2,935,2,9,1
689,-7,-4,978,0,-2,3
690,-14,-14,980,6,6,3
691,-7,-18,1019,0,-2,-3
692,-4,-4,1033,4,-2,-3
693,-9,11,989,2,2,3
694,-17,-17,751,0,-2,3
695,-65,0,1083,0,-10,3
696,34,-19,1006,4,9,-5
697,34,-13,956,-2,-8,-1
698,15,-4,1007,0,0,1
699,-16,-12,960,-2,4,1
700,-11,2,1033,-2,-6,1
701,-24,7,988,0,9,1
702,-1,12,1043,0,-4,1
703,-18,-6,970,2,2,-3
704,-2,-11,1002,-2,-6,3
705,-5,-15,1011,0,4,1
706,1,-3,1007,0,-2,-1
707,0,-15,999,0,-8,3
708,19,18,1029,2,2,1
709,31,12,1028,-2,-10,-3
710,3,20,925,0,2,3
711,-3,-9,969,0,-2,-3
712,-8,-21,1027,0,-2,-1
713,-23,-13,1018,2,4,-1
714,0,-7,1035,-2,-8,3
715,-1,13,983,2,6,1
716,10,-5,937,0,-2,1
717,-21,25,1096,0,-16,-3
718,7,13,1029,-2,13,-1
719,30,-13,1032,0,-8,-1
720,-1,-31,985,2,9,3
721,-21,-3,969,2,6,3
722,-20,3,1030,2,-6,-1
723,-17,21,982,2,4,3
724,6,14,1053,0,-8,-3
725,-8,-7,970,0,9,-1
726,-9,-12,1027,2,-2,-3
727,23,-12,415,2,7,-5
728,-35,-2,1126,0,-24,-1
729,18,5,1000,6,9,-1
730,21,16,1013,0,-14,1
731,6,29,1008,0,6,-3
732,-14,4,965,-2,-2,-5
733,-20,-23,977,2,4,-3
734,-24,-16,994,2,2,1
735,2,-15,1033,0,-10,5
736,1,22,1006,0,-6,-1
737,-10,8,979,-2,6,3
738,-17,27,981,2,4,-1
739,-82,29,1208,0,-12,-5
740,16,-32,1001,2,6,-3
741,27,-26,924,4,7,1
742,28,-36,1031,-2,-14,1
743,-34,-3,925,2,19,1
744,-14,8,1080,0,-16,3
745,-33,21,948,2,19,3
746,-2,20,1031,0,-12,-3
747,1,-9,989,2,9,-1
748,0,-24,1003,0,-2,-1
749,-13,-18,1015,0,0,-5
750,-13,-9,990,2,4,-1
751,-3,-3,1031,0,-6,1
752,-29,18,987,-4,0,-1
753,4,-10,1093,2,0,-1
754,4,23,1008,-4,-4,-1
755,-2,-5,966,-2,-2,1
756,-18,-25,966,2,7,3
757,-3,-25,1066,0,-8,-3
758,-13,-12,1013,2,7,-7
759,-2,6,1044,0,-10,1
760,-12,10,968,0,2,5
761,-2,11,1014,-2,-2,3
762,-23,5,1129,4,2,-3
763,-15,-15,920,-4,-10,-3
764,12,4,947,0,11,1
765,24,-26,1065,0,-12,1
766,-4,-3,942,2,13,-1
767,-7,-3,1059,0,-12,1
768,-11,13,993,0,-6,-1
769,-22,19,967,4,9,-3
770,-3,-12,1004,0,0,-1
771,-1,-21,1002,0,0,-3
772,1,-15,1033,0,-2,-1
773,-13,13,741,2,7,-5
774,-9,-6,1061,-2,-20,3
775,4,9,1019,4,11,5
776,26,13,1015,2,-16,-1
777,-4,17,982,2,11,-1
778,-7,0,959,2,-2,-5
779,-18,-18,969,2,2,-1
780,-2,-15,1000,-2,-2,1
781,1,-2,1046,2,-4,1
782,0,-2,983,2,4,-1
783,-7,4,1029,-2,-4,1
784,-30,-1,1145,4,7,-5
785,-2,-5,927,-2,-16,-3
786,9,-5,937,2,21,3
787,25,-17,1118,0,-18,3
788,-16,-11,946,2,15,-1
789,-11,7,1051,-2,-12,-1
790,-20,20,983,4,7,3
791,-8,19,1000,-2,-8,3
792,6,-5,1006,0,0,-5
793,-1,-9,991,2,4,-1
794,-34,-23,977,-4,-6,-5
795,-15,-28,970,-4,-4,-3
796,8,4,1004,4,7,1
797,6,13,1036,0,-10,3
798,0,5,1011,-2,0,5
799,-11,-10,977,4,2,-3
800,-25,-9,959,2,4,-3
801,-10,-14,994,2,2,3
802,0,-12,1024,4,2,3
803,-9,0,1010,0,-2,5
804,-12,16,938,0,0,-7
805,-10,23,917,0,-10,-3
806,-7,17,990,2,6,-1
807,12,-21,1074,0,-6,1
808,-6,-23,998,2,2,-1
809,-7,-24,975,2,2,-3
810,-15,-1,1006,-2,0,-1
811,-11,12,995,0,2,1
812,-4,14,1030,0,-8,3
813,-7,-2,984,2,2,-3
814,-37,-40,1166,-8,0,-1
815,-17,-13,952,2,6,-5
816,-10,-1,892,2,9,1
817,19,-11,1044,2,-6,3
818,-15,18,982,2,6,5
819,-1,7,1062,0,-12,-5
820,-10,6,969,2,11,1
821,-2,-16,997,-2,-10,3
822,-3,-15,966,2,9,-1
823,8,-11,1013,2,0,3
824,20,-28,688,-2,0,-3
825,8,31,1136,0,-18,-3
826,17,23,1108,4,11,1
827,16,-9,999,0,-16,3
828,-15,-12,985,0,4,5
829,-8,-17,948,0,6,-1
830,-16,2,1025,0,-4,-1
831,-20,3,985,2,9,1
832,0,-2,1053,0,-10,1
833,-9,11,963,0,7,3
834,4,-18,1002,-2,-8,-3
835,-2,-23,813,-2,7,-3
836,-14,-16,1011,0,-14,-1
837,-1,-5,1000,2,9,-1
838,17,10,1044,2,-16,3
839,2,15,985,2,7,3
840,-10,8,988,0,-4,1
841,-7,11,980,2,2,-1
842,-21,-11,1010,2,2,5
843,-12,-37,1032,-2,-2,1
844,-20,-12,975,0,6,-3
845,23,-13,911,0,-6,-3
846,14,18,1053,0,-12,1
847,9,22,1128,2,9,3
848,-2,-8,1057,-2,-16,3
849,-2,-8,927,0,9,-7
850,-10,-12,959,0,2,-9
851,-17,-2,1021,0,-2,-1
852,-12,0,1008,0,6,3
853,-6,-4,1038,-2,-8,1
854,-2,8,973,2,6,-7
855,10,7,1012,-2,-6,-7
856,2,1,994,2,4,-1
857,-10,-8,1017,0,-6,5
858,-18,-23,1003,-2,-2,1
859,-12,-33,1022,-10,-8,-3
860,-28,14,906,0,-4,-1
861,-1,23,874,4,25,1
862,40,21,1145,0,-16,7
863,-1,-12,936,2,21,3
864,-5,-18,1056,-2,-14,-3
865,-37,-13,943,2,13,-9
866,-28,-14,995,-2,-10,-1
867,-6,-7,1011,0,-2,5
868,14,-22,1110,2,-6,3
869,47,22,1032,2,4,3
870,24,21,893,-2,-2,-3
871,-2,-3,974,-2,-6,-1
872,-45,-13,937,2,15,-3
873,-32,-26,1113,4,-12,-1
874,-30,-7,983,2,15,-3
875,2,7,1042,-2,-14,-7
876,14,20,950,2,7,1
877,27,3,1014,0,-8,-1
878,5,-35,1228,-12,-14,1
879,-17,3,894,6,15,-1
880,-11,9,946,0,-2,-1
881,-18,-1,1016,0,0,1
882,-20,8,973,0,4,1
883,-5,-4,1089,0,-10,1
884,-11,-7,966,2,11,-5
885,14,-7,1025,0,-12,1
886,-4,-7,956,2,9,1
887,-6,-6,1032,0,-6,-1
888,-21,3,1007,2,4,3
889,-18,-13,933,0,-6,-3
890,-1,11,1224,2,-24,-5
891,8,1,1013,-2,21,-3
892,19,-11,1025,-2,-20,3
893,9,-13,954,2,15,-3
894,-20,-5,948,0,0,-1
895,-12,16,1066,0,-4,-1
896,-32,5,967,2,13,1
897,-18,-13,1060,0,-16,-3
898,-4,2,932,4,17,1
899,21,-4,1039,0,-14,-3
900,10,5,976,2,9,-3
901,-2,-6,1045,0,-4,1
902,-42,-31,1309,0,15,-3
903,-11,-2,955,2,7,-3
904,-6,7,909,2,6,-1
905,-6,-2,1004,4,2,3
906,-3,0,1047,0,-2,-3
907,11,-12,1061,0,-4,1
908,-13,6,984,2,6,-5
909,-15,-1,992,0,-6,-5
910,-32,4,969,4,7,3
911,-8,0,1032,0,-6,1
912,-20,6,1087,0,-8,-1
913,0,-13,812,-2,6,-5
914,2,-7,831,2,15,-1
915,22,9,1151,2,-12,-5
916,-7,-19,1018,2,11,1
917,2,-8,1022,-4,-16,-3
918,-26,6,923,2,11,1
919,-4,12,1001,0,-4,-1
920,-2,0,1014,2,4,-1
921,5,-8,1020,-4,-2,-1
922,-23,-22,1157,0,6,-1
923,-16,-6,804,2,-12,-1
924,-24,-9,1000,4,6,1
925,-3,7,1089,2,-4,3
926,-2,11,991,2,6,1
927,5,-9,992,0,0,-5
928,2,-9,918,0,6,-5
929,2,1,986,-2,-8,-3
930,-3,-4,993,2,2,3
931,-5,4,1036,0,-2,1
932,-16,-10,999,2,2,-1
933,-72,2,660,-2,0,-1
934,6,-9,1006,0,0,-1
935,6,6,1125,6,25,-1
936,13,-17,1183,0,-28,1
937,2,-9,812,2,33,-1
938,6,-3,983,0,-18,-3
939,-4,4,969,0,13,-5
940,-7,-1,1022,0,-4,-3
941,-17,-11,1038,0,-4,3
942,-2,-14,959,2,9,-5
943,9,-11,1019,0,-10,1
944,-3,0,960,2,9,-3
945,-26,-20,834,0,-10,3
946,-18,16,1038,2,-4,-1
947,-20,4,995,2,7,-5
948,18,-2,1064,0,-8,-5
949,-9,3,971,2,9,1
950,7,-4,1018,0,-10,1
951,-3,-5,936,2,7,3
952,-3,-6,1013,0,-4,-1
953,-11,-1,1010,2,4,-1
954,-13,6,1005,0,-2,-1
955,-14,8,1007,2,2,1
956,-13,0,899,2,2,-3
957,-23,17,1045,2,-8,-3
958,1,6,1109,4,25,-5
959,7,-12,1183,-2,-26,-1
960,-40,26,826,0,23,1
961,-7,-5,961,0,-10,1
962,-17,-1,1005,2,4,1
963,-4,1,1023,2,2,-5
964,-7,-9,1052,0,-4,-3
965,-8,-13,958,2,9,-1
966,2,-8,1038,0,-10,1
967,-7,3,961,2,9,-3
968,8,0,1042,0,-8,3
969,-13,-2,999,2,11,3
970,-6,-5,986,0,-2,-1
971,-7,3,1006,-6,0,-1
972,-8,14,947,0,-2,1
973,1,-9,1143,-2,-12,-1
974,-1,3,1076,2,19,-3
975,12,-27,1039,-2,-20,3
976,-14,-3,894,2,15,-1
977,-10,-14,988,0,-4,-1
978,-12,-14,1054,0,-2,-5
979,-9,-11,1009,0,6,-1
980,25,-14,1096,0,-24,-3
981,-9,26,980,2,27,1
982,10,-2,993,-4,-20,1
983,-16,-2,866,2,13,-3
984,-6,11,1089,-2,-8,1
985,-13,-1,1073,0,0,1
986,-23,-1,977,2,6,-3
987,0,-5,1065,-2,-12,-3
988,-23,-1,938,4,11,-1
989,12,-10,1024,-2,-14,-1
990,8,5,985,2,6,-1
991,7,-5,1034,-2,-8,1
992,-16,-9,986,-2,6,-3
993,-13,0,993,0,-2,-3
994,-6,-4,1018,0,0,-1
995,-11,-14,1183,-6,-10,-1
996,-3,6,900,4,2,1
997,17,-25,982,2,13,-5
998,10,-8,1109,0,-20,-3
999,-32,7,937,2,13,-3
1000,-4,-19,1087,0,-14,3
1001,-14,-9,955,4,11,-1
1002,4,1,1022,0,-10,-3
1003,-34,-27,1093,2,2,-1
1004,8,1,1070,2,13,-1
1005,32,-3,1029,0,-12,3
1006,-24,-14,866,2,9,1
1007,-35,12,1072,0,-6,-5
1008,-11,-10,1043,2,4,-1
1009,-17,-5,1038,2,0,-1
1010,6,-13,1022,0,-2,-1
1011,-4,5,948,2,7,-1
1012,9,-3,1022,0,-6,-1
1013,-1,4,975,2,9,3
1014,-12,-4,1045,2,-2,3
1015,-28,-9,990,4,2,-3
1016,-4,-10,984,0,-4,-3
1017,-2,2,1005,2,4,1
1018,-2,3,1004,4,4,-1
1019,-3,-2,1063,0,-14,-1
1020,-3,-6,1012,0,-2,1
1021,-4,-6,990,-2,4,-5
1022,-29,0,1009,2,13,-1
1023,-14,0,938,2,4,-3
1024,-21,-2,976,2,9,1
1025,0,-16,1054,0,-6,1
1026,0,-3,1015,2,6,-3
1027,-1,-13,1032,-2,-6,1
1028,-10,-3,953,2,4,1
1029,-7,0,1005,-4,-8,-5
1030,0,1,1013,4,4,1
1031,2,-5,1025,0,-4,-1
1032,1,-3,1005,2,4,3
1033,0,-11,985,0,0,-7
1034,0,3,998,0,-2,1
1035,-6,-2,996,-2,0,3
1036,-9,-15,1208,-2,-26,-1
1037,-9,15,988,2,11,-1
1038,1,5,950,-2,-12,1
1039,-7,-2,957,2,9,1
1040,-13,0,1018,2,2,1
1041,-13,-17,1078,0,-6,1
1042,-19,-7,987,2,6,-3
1043,2,-6,1029,0,-6,-1
1044,-17,4,947,2,7,1
1045,14,5,1036,0,-6,-1
1046,-29,33,1021,-2,-2,-1
1047,27,-31,1048,4,7,1
1048,-3,6,1111,-2,-24,3
1049,-28,-11,906,2,13,1
1050,-27,-3,998,0,-6,-1
1051,-20,-12,1043,2,0,1
1052,-8,-1,1062,0,-4,-1
1053,-8,11,1044,2,-2,-1
1054,5,1,963,2,6,1
1055,8,-6,1002,0,-8,-1
1056,-8,-7,976,2,6,-1
1057,-8,-15,1054,0,-2,1
1058,-9,-8,885,2,4,1
1059,-11,-3,1087,4,-10,-1
1060,-2,10,1001,2,17,1
1061,9,10,1017,0,-12,-1
1062,-20,-4,940,4,9,-1
1063,-15,-4,1000,-2,-6,-1
1064,-10,-16,1046,2,0,-1
1065,-34,15,827,2,6,-3
1066,9,-11,1014,-4,-18,1
1067,-4,6,977,4,13,-1
1068,-10,11,1085,0,-14,3
1069,-8,-17,1029,0,-10,-1
1070,-18,-9,970,2,11,-1
1071,-10,-4,978,0,-2,-1
1072,6,3,989,2,19,1
1073,1,2,1020,0,-4,3
1074,2,1,989,0,0,-1
1075,-1,-3,1036,0,-2,-5
1076,-5,4,1198,-8,-2,-5
1077,-41,7,1015,2,4,1
1078,21,-17,927,2,9,3
1079,-4,-12,1105,0,-8,-1
1080,-17,2,940,2,7,-7
1081,4,4,1075,-2,-12,-3
1082,-1,6,1004,-2,6,-1
1083,-6,6,1010,-2,-4,-1
1084,-10,-2,995,0,0,-7
1085,-17,-5,988,-2,0,-5
1086,-42,56,1237,-4,-16,-5
1087,-38,7,1049,8,25,3
1088,17,21,1043,-6,-28,5
1089,-15,-7,851,2,15,1
1090,-4,5,1016,0,-2,-1
1091,-16,-5,1102,0,-6,-5
1092,-35,-8,1015,-2,4,-3
1093,0,-13,1046,0,-14,1
1094,-20,4,912,2,15,3
1095,24,-15,1049,0,-16,-3
1096,-8,3,948,2,6,-3
1097,-23,8,1174,-4,-20,-3
1098,-16,-11,1029,4,19,3
1099,-13,-11,972,-2,-8,3
1100,-12,-19,990,4,6,-1
1101,-9,4,1007,2,9,-5
1102,-3,1,1053,0,-10,-1
1103,-25,15,946,2,11,1
1104,-4,-7,1039,0,-16,3
1105,-11,-8,965,4,13,-1
1106,6,-5,1037,-4,-14,-3
1107,7,16,1364,6,4,-3
1108,-2,-26,748,-10,-2,1
1109,-12,9,880,0,17,1
1110,8,5,1182,-2,-22,-1
1111,-16,-2,962,2,15,-5
1112,-2,-8,1051,0,-14,-1
1113,-28,-4,924,2,13,5
1114,-4,-10,1006,0,-4,-1
1115,-7,-4,1007,4,4,-7
1116,1,4,1013,0,0,-5
1117,6,0,1033,0,-2,-3
1118,-63,-16,1206,-6,-2,-1
1119,-11,-15,815,6,2,1
1120,-45,0,905,2,19,-5
1121,34,12,1186,4,-14,1
1122,-3,5,954,4,21,1
1123,8,-14,1052,-4,-20,-1
1124,-15,6,931,2,17,1
1125,-3,-19,998,-2,-12,-1
1126,-6,-4,1010,4,4,-3
1127,-19,-12,730,0,-2,1
1128,0,-10,1099,0,-10,1
1129,-11,5,1091,6,27,1
1130,36,-15,1132,0,-34,-1
1131,0,6,900,4,29,-3
1132,-3,2,994,0,-14,-1
1133,-23,-3,1014,2,7,1
1134,-26,-2,989,2,2,-1
1135,-6,-3,1068,0,-6,-3
1136,-6,7,923,2,11,-3
1137,3,8,1032,0,-16,-5
1138,8,-7,964,2,11,-1
1139,1,-9,1078,0,-8,1
1140,-32,-8,996,2,4,1
1141,2,-2,1249,-10,-10,-1
1142,-13,-6,848,6,6,-3
1143,-24,11,868,0,17,1
1144,40,7,1137,0,-14,-3
1145,-8,9,968,2,21,-1
1146,0,-16,1087,-4,-18,-1
1147,-28,2,907,4,15,1
1148,-23,-7,1014,-2,-10,1
1149,-7,-16,993,2,4,-3
1150,-2,44,1008,0,-6,1
1151,26,-12,900,-6,-10,-1
1152,-7,15,946,2,19,-3
1153,22,-7,1146,-4,-30,-3
1154,-7,-7,922,2,27,1
1155,-6,-12,1037,-4,-20,1
1156,-35,-8,907,2,17,-5
1157,6,-4,1005,-4,-8,-3
1158,10,-4,1024,2,2,3
1159,2,5,990,2,2,1
1160,-1,-6,1019,-2,-8,-1
1161,-15,10,828,2,11,-7
1162,-8,-7,1285,-6,-26,-3
1163,-20,8,956,4,27,3
1164,14,-6,983,0,-16,3
1165,7,-9,980,2,15,1
1166,0,7,989,0,-6,-1
1167,1,-1,1085,0,-4,-5
1168,-23,8,952,2,11,-1
1169,-9,-12,1056,0,-12,3
1170,-23,1,936,0,9,1
1171,10,3,1039,0,-16,1
1172,-9,63,870,2,11,-5
1173,11,-11,901,-8,-16,1
1174,-6,-3,1003,4,21,-1
1175,1,-12,1181,0,-26,1
1176,-13,3,899,2,21,1
1177,-8,1,970,0,-6,-3
1178,-8,-3,943,2,9,-1
1179,3,3,996,0,-4,1
1180,9,-3,1046,-2,-2,-3
1181,3,-3,979,2,4,-1
1182,-36,-19,1083,-4,-8,-5
1183,-25,-16,830,4,7,-1
1184,-32,-6,962,2,7,-3
1185,17,-7,1100,4,-2,-1
1186,-3,4,971,2,9,-1
1187,10,0,1031,0,-6,-3
1188,-15,9,928,2,11,5
1189,-11,-9,1007,0,-12,-3
1190,-4,-10,984,2,7,-1
1191,-5,3,1023,-4,-4,-1
1192,0,-3,1015,0,-2,1
1193,-4,4,996,0,0,-1
1194,-9,-6,1012,0,-4,-1
1195,-46,-15,757,2,4,-3
1196,27,-8,1150,0,-12,-3
1197,-8,-5,974,2,25,-1
1198,21,-8,1057,0,-20,1
1199,-10,-3,953,0,17,-1
1200,0,-4,1009,0,-12,1
1201,-11,-3,1009,2,7,-3
1202,-20,0,981,2,2,-3
1203,1,-11,1179,-6,-14,1
1204,20,-15,864,4,11,-1
1205,34,22,1088,0,-12,-1
1206,-18,1,1004,2,2,-1
1207,-15,-2,972,2,2,-1
1208,-21,-5,1032,0,-6,-1
1209,-29,-4,983,2,4,-5
1210,-8,-9,1045,0,-4,1
1211,-7,-1,971,2,9,-5
1212,16,0,1040,0,-10,-1
1213,4,4,992,2,4,1
1214,2,6,1016,-2,-8,3
1215,-11,-7,1009,-2,0,-1
1216,-24,-6,1323,4,-6,-3
1217,-20,-8,952,0,9,-3
1218,-19,-10,778,0,15,1
1219,26,-9,1071,2,-12,3
1220,-18,3,986,2,17,-1
1221,2,-17,1129,0,-26,1
1222,-21,6,889,4,19,-1
1223,-8,-2,1032,0,-18,-3
1224,-4,-7,966,2,11,-1
1225,7,0,1040,-2,-8,3
1226,9,1,1035,0,0,-3
1227,-12,-3,961,2,6,-1
1228,-11,4,1014,-2,-6,-1
1229,-12,-23,1199,-8,-6,-3
1230,-14,-9,963,2,11,-1
1231,-5,-1,912,-6,-2,-1
1232,1,0,992,2,2,-3
1233,-23,13,998,2,6,-3
1234,-10,-21,1133,0,-12,-3
1235,-36,0,994,2,7,-1
1236,-8,-9,1031,0,-10,-1
1237,-12,7,947,-2,13,-3
1238,-19,37,1062,2,-10,-3
1239,-2,-17,849,-4,-4,1
1240,4,15,968,2,17,1
1241,17,-2,1181,0,-30,-3
1242,-27,-10,908,2,19,1
1243,-17,-7,1063,-2,-22,1
1244,-28,0,932,0,15,1
1245,-7,-5,1024,-2,-10,-5
1246,-5,-2,1019,2,6,1
1247,1,2,991,2,2,-1
1248,5,-3,1025,0,-6,-1
1249,-15,1,948,2,6,-1
1250,-27,1,879,0,-8,1
1251,-20,-56,907,2,6,1
1252,-2,-4,1046,6,6,-5
1253,2,3,1066,0,-8,-3
1254,17,4,954,0,-2,-3
1255,-3,-7,990,0,0,-3
1256,-17,-9,963,0,-2,1
1257,-26,-17,976,0,2,-1
1258,-24,-7,1024,0,-2,1
1259,-8,0,1012,0,0,1
1260,19,3,1006,0,-2,3
1261,-3,10,1251,6,-2,-7
1262,-32,-2,803,-2,6,-3
1263,-26,-5,716,2,23,-1
1264,11,-19,1281,2,-24,-3
1265,-11,-25,1011,4,19,-1
1266,5,-9,1079,-2,-28,3
1267,-22,9,890,2,23,-1
1268,2,18,1007,0,-14,-3
1269,11,-5,1001,2,13,1
1270,1,-3,1008,4,2,-1
1271,-4,-12,1024,-2,-4,-3
1272,-18,1,940,4,7,1
1273,-17,-8,1011,0,-4,-3
1274,-12,-42,963,2,9,3
1275,-29,-8,1106,0,-16,-1
1276,5,-1,880,4,29,-5
1277,26,3,1088,-2,-24,1
1278,-19,-3,943,2,19,-5
1279,-18,-8,1008,0,-6,-3
1280,-28,-15,1027,2,2,-1
1281,-26,-11,981,0,2,1
1282,8,-1,1053,-2,-14,-3
1283,2,10,959,2,11,-1
1284,15,5,1034,-4,-8,-1
1285,-15,-22,1248,4,-6,-5
1286,-20,-5,1027,2,13,-3
1287,-4,-11,883,-4,-4,-3
1288,-11,-16,966,2,2,1
1289,-14,-1,976,2,4,1
1290,-19,-4,1162,-2,-12,-3
1291,4,12,977,2,15,-3
1292,-1,1,1034,0,-10,-1
1293,-1,-12,930,2,11,7
1294,11,-19,1123,-12,-14,1
1295,9,1,892,6,9,-5
1296,-10,10,909,4,17,-3
1297,2,17,1111,0,-16,-1
1298,-11,12,957,2,21,3
1299,-1,-21,1097,-2,-20,3
1300,-21,-5,925,0,17,-9
1301,-10,-4,1015,0,-14,-3
1302,-9,1,971,0,7,-1
1303,1,-7,1022,-2,-2,3
1304,11,1,1034,0,-2,1
1305,-1,-17,1338,6,-10,-7
1306,-36,11,777,-2,2,-1
1307,-17,-1,700,2,31,-3
1308,49,-26,1188,2,-18,-1
1309,-26,-9,959,6,25,1
1310,0,-14,1143,0,-24,-3
1311,-11,14,890,2,25,-7
1312,-12,4,981,-2,-16,-1
1313,7,-11,987,2,11,3
1314,11,-4,1026,2,-2,1
1315,-56,35,1059,-8,-8,-3
1316,-3,-28,809,7,2,-3
1317,4,8,958,2,17,-1
1318,10,-4,1150,2,-16,3
1319,10,8,927,0,17,1
1320,1,-6,990,0,-12,-3
1321,-12,6,890,4,13,-5
1322,-10,-9,1013,0,-12,1
1323,-2,-16,1036,4,4,3
1324,1,-1,1002,0,0,1
1325,6,4,999,-2,-6,1
1326,38,-40,1365,2,-12,-7
1327,-45,27,790,-6,0,-1
1328,-25,-24,670,2,23,1
1329,9,5,1247,2,-24,-1
1330,-9,2,915,2,23,1
1331,-5,2,1149,-2,-28,-3
1332,-31,7,884,2,25,1
1333,3,4,1033,-4,-20,1
1334,-4,-7,973,6,11,-3
1335,-1,1,1029,0,-8,-1
1336,-3,-11,1046,-4,-2,-3
1337,-8,-3,954,2,6,-7
1338,-11,-23,918,-8,-24,-3
1339,-38,-7,978,6,19,-1
1340,9,3,940,0,2,-3
1341,21,10,1050,6,-2,-3
1342,-2,2,990,2,13,-1
1343,2,-9,1074,0,-12,-1
1344,-24,-5,932,2,13,1
1345,-10,-15,1027,0,-12,1
1346,-10,-3,978,2,11,-1
1347,12,3,1040,0,-6,-1
1348,3,16,1403,0,-16,-1
1349,-3,-2,859,0,17,1
1350,-5,0,860,-2,-6,1
1351,-19,-19,962,2,7,-3
1352,-6,-19,1123,-2,-14,-1
1353,-48,-14,1056,4,4,1
1354,-27,4,960,2,15,-1
1355,17,10,1025,-2,-12,3
1356,2,5,927,0,9,-1
1357,15,-3,1051,0,-10,-1
1358,-23,12,689,-2,4,1
1359,-3,-26,1032,4,-4,-1
1360,-23,2,1013,2,19,-1
1361,4,5,1088,2,-22,-1
1362,11,6,963,2,17,1
1363,6,19,985,-2,-10,-3
1364,2,-5,957,4,6,1
1365,-18,-10,986,0,-2,1
1366,-5,-17,1057,2,0,-1
1367,-4,-4,971,4,9,-1
1368,-3,1,1019,0,-4,3
1369,-51,90,1327,6,0,-3
1370,-24,-34,661,-2,-8,1
1371,-28,-3,849,6,27,-3
1372,-30,2,921,2,23,1
1373,62,0,1183,4,-22,3
1374,5,-27,1069,-2,-22,-1
1375,-19,-2,871,2,21,1
1376,-15,8,985,0,-14,-1
1377,0,3,1015,2,4,-1
1378,4,11,1018,2,4,-5
1379,5,-11,1033,2,-4,-5
1380,-15,-23,939,2,9,1
1381,-28,-24,813,0,-8,3
1382,-15,-25,953,4,4,-1
1383,11,12,1063,2,11,1
1384,24,22,1091,2,-24,1
1385,5,-1,875,2,23,-1
1386,16,-1,998,0,-14,-3
1387,-24,-7,959,2,11,-3
1388,-25,-13,1049,-2,-10,-3
1389,-17,-7,1021,0,-2,-5
1390,-11,7,979,-4,0,3
1391,2,12,1029,-6,-8,-3
1392,-9,-21,1475,7,-4,-7
1393,-12,-1,824,-2,11,-3
1394,-12,-16,721,2,25,-1
1395,21,-17,1152,6,-16,-3
1396,-33,-18,956,2,17,1
1397,-2,-6,1164,-2,-26,-1
1398,-6,14,905,2,23,-3
1399,4,13,990,0,-16,1
1400,-21,2,1063,2,6,-1
1401,12,6,1024,-4,-8,1
1402,-29,6,1000,2,19,-3
1403,14,7,1037,0,-6,-3
1404,-15,-1,961,2,4,3
1405,-14,4,1012,0,-4,1
1406,-2,-3,1024,2,2,-1
1407,-11,-1,982,2,4,1
1408,14,-6,1028,-2,-4,1
1409,-7,-1,987,2,6,-3
1410,7,-5,1028,2,-2,1
1411,-13,-3,981,2,7,-1
1412,-7,4,1013,0,0,1
1413,-11,-6,992,-2,-2,-1
1414,33,-50,1456,4,-12,-3
1415,-32,23,721,-4,11,-1
1416,-1,-11,725,2,17,-1
1417,16,0,1207,0,-16,-1
1418,-30,-3,974,4,17,-1
1419,-2,-25,1104,-4,-28,-1
1420,-67,1,826,6,23,3
1421,11,1,941,0,0,-5
1422,23,4,1094,0,-4,-1
1423,10,3,965,0,7,-3
1424,0,-16,1037,-2,-10,-1
1425,-27,-4,929,0,9,1
1426,-29,-3,1020,2,-12,7
1427,-35,-9,1004,2,9,-3
1428,-6,-1,1037,-4,-8,3
1429,17,6,1006,-2,0,1
1430,8,1,973,2,6,-3
1431,12,-8,1022,0,-4,-1
1432,-26,-5,1001,2,2,1
1433,-24,-5,1015,0,-6,3
1434,-17,-5,990,2,9,3
1435,-11,3,1019,0,-2,5
1436,16,-4,970,0,0,-1
1437,25,-15,1080,0,-24,-5
1438,40,20,1040,2,23,-1
1439,9,-20,1065,-6,-20,-1
1440,-38,-13,861,-2,13,1
1441,-34,-10,946,2,6,-1
1442,-17,-6,1114,0,-14,5
1443,-5,1,984,2,11,1
1444,9,-2,1072,-4,-16,-3
1445,12,0,905,2,15,-1
1446,32,-42,1018,-4,-16,-1
1447,4,-2,890,10,2,5
1448,-33,2,1071,2,11,1
1449,-1,3,1160,0,-20,1
1450,-10,5,863,2,23,1
1451,6,-9,1028,0,-20,1
1452,-5,1,915,4,19,1
1453,11,-12,1054,0,-14,-3
1454,-3,-3,1004,4,9,-1
1455,0,3,1001,0,0,3
1456,-16,0,1014,0,-2,3
1457,-13,-3,947,2,2,-3
1458,-18,4,925,4,-6,-5
1459,4,6,1034,0,-10,-1
1460,1,7,1092,0,11,-1
1461,8,-2,1045,-2,-14,3
1462,-4,-15,932,0,9,3
1463,-25,-7,967,0,0,-3
1464,-27,4,1008,-2,-2,-3
1465,-24,-1,1015,0,0,3
1466,-7,-3,1042,-2,-6,-1
1467,17,-4,977,2,4,-1
1468,18,-6,1009,0,-8,1
1469,-7,3,973,2,4,1
1470,-15,-4,1026,0,-6,1
1471,-17,0,996,2,4,1
1472,-18,1,1000,0,-4,-3
1473,-2,-27,1122,-4,-10,-5
1474,31,18,950,2,13,-5
1475,15,-12,1015,-4,-8,1
1476,10,2,943,2,6,1
1477,-16,-20,1040,0,2,1
1478,-36,-6,1150,0,-18,1
1479,-13,13,1001,-2,17,1
1480,13,5,1017,2,-8,-5
1481,11,-7,945,2,9,-3
1482,-4,-5,980,0,0,-1
1483,-8,-3,1043,0,-4,-1
1484,-29,5,1003,0,4,-1
1485,-28,-4,1025,0,-4,3
1486,-19,0,942,0,6,5
1487,10,-12,1038,-4,-8,1
1488,10,2,994,0,4,-1
1489,-4,3,1017,0,0,1
1490,-9,-4,994,2,4,1
1491,-23,3,1001,0,0,3
1492,-20,0,1008,0,0,3
1493,-134,-2,1278,-14,-6,-5
1494,32,-21,942,6,-2,1
1495,2,-4,867,2,15,-1
1496,39,-9,1100,2,-12,3
1497,-21,3,993,2,21,-3
1498,3,-18,1052,-4,-18,-1
1499,-46,10,891,0,15,-3
1500,-17,-8,1015,-2,-12,-1
1501,4,-8,1003,2,4,1
1502,11,1,1021,0,-2,-1
1503,17,-11,1012,0,0,-7
1504,-6,3,970,2,6,1
1505,-47,-98,49,0,-4,1
1506,-40,5,1110,0,-18,3
1507,21,-23,1279,2,25,-1
1508,36,13,1111,-2,-34,-7
1509,-6,13,908,2,27,-1
1510,2,-11,951,-2,-12,-1
1511,-35,2,951,2,11,1
1512,-29,-6,1020,0,0,-1
1513,-15,2,1079,0,-6,3
1514,-3,6,948,0,7,1
1515,6,-14,1364,-12,-22,-3
1516,-10,5,829,6,17,-3
1517,11,-2,953,-2,0,1
1518,-7,2,1113,0,0,1
1519,-35,2,991,2,4,1
1520,-17,-18,1093,-4,-16,-3
1521,-35,-7,925,6,19,-1
1522,4,-3,1046,-2,-18,-5
1523,12,0,945,2,11,1
1524,8,11,1041,-2,-14,1
1525,-16,-1,1314,0,-2,-1
1526,-29,25,919,-2,15,1
1527,0,-21,853,-2,2,-3
1528,13,-12,975,0,0,1
1529,-15,-8,1009,4,6,3
1530,-11,-13,1151,-2,-14,1
1531,-16,4,927,2,11,-3
1532,8,6,1028,-2,-10,1
1533,11,22,889,-8,4,3
1534,-5,-4,1070,6,-6,1
1535,4,2,972,4,13,1
1536,5,-11,1040,2,-12,-3
1537,-12,5,952,2,13,-3
1538,-11,-11,1045,-4,-12,5
1539,-23,-9,971,2,9,-1
1540,3,-3,1018,0,-2,-3
1541,-2,5,995,2,4,-1
1542,0,4,992,0,-4,1
1543,-6,3,1019,-4,0,1
1544,-4,-14,980,0,2,1
1545,-8,-9,995,-2,-6,-3
1546,-2,-8,1086,2,0,-3
1547,35,-22,1006,-2,-12,-3
1548,7,31,992,2,19,-1
1549,17,-5,1097,-4,-20,3
1550,0,-8,912,0,13,1
1551,-19,7,1029,0,-8,-1
1552,-43,-1,1001,6,9,-1
1553,-20,0,1006,6,2,1
1554,6,-4,1037,0,-10,-3
1555,20,7,984,0,6,1
1556,24,-9,1029,-2,-6,-5
1557,-17,-24,1254,-10,-4,-3
1558,-14,6,906,2,6,-1
1559,-30,1,889,0,7,1
1560,-1,-14,1050,0,-4,1
1561,-22,6,983,2,7,-1
1562,0,-13,1123,0,-16,-5
1563,-10,3,974,4,13,-1
1564,6,-4,1019,-2,-10,-3
1565,1,-7,961,2,7,3
1566,-6,1,1018,0,-6,3
1567,-20,6,1013,2,4,-3
1568,-16,-28,1498,4,-6,-5
1569,5,-14,795,-6,2,-1
1570,2,8,809,0,15,-1
1571,31,-8,1193,0,-18,1
1572,-26,7,932,2,23,1
1573,-7,-12,1117,-4,-24,3
1574,-41,11,906,2,21,-3
1575,-15,8,1033,-2,-18,-3
1576,5,-2,974,2,7,3
1577,13,1,1027,0,-6,-3
1578,18,-7,967,0,-4,1
1579,-5,22,1008,2,-4,-3
1580,-15,-8,1132,4,13,-3
1581,-20,4,1009,0,-12,1
1582,-6,-17,956,0,6,-1
1583,1,6,963,2,-2,-1
1584,5,-6,1022,0,-4,-1
1585,5,2,1010,2,6,1
1586,-2,-2,1036,0,-2,-3
1587,-21,-8,969,2,7,1
1588,-27,9,994,-2,-6,-3
1589,-10,-60,1292,4,-8,-1
1590,-9,7,892,-2,7,-1
1591,6,-20,831,2,11,-1
1592,28,-4,1049,0,-4,-1
1593,-1,-3,993,2,9,1
1594,-17,-9,1127,0,-18,-3
1595,-44,4,944,0,13,-1
1596,-1,2,1024,0,-10,-3
1597,2,-4,962,2,6,1
1598,24,-2,1033,0,-8,1
1599,-26,-25,1269,-6,2,-3
1600,-18,-4,827,4,4,-1
1601,-29,9,906,0,11,-1
1602,-21,17,1126,4,-4,1
1603,-23,-6,984,2,7,-1
1604,-1,-6,1056,-2,-10,-5
1605,2,1,934,4,9,-3
1606,8,-12,986,-4,-8,3
1607,-2,-7,987,2,6,1
1608,-10,-3,1027,0,-6,1
1609,-14,6,1012,2,2,-3
1610,-13,-5,976,0,0,-3
1611,-58,-12,1056,6,2,1
1612,-12,-17,897,-6,-8,-1
1613,19,-4,963,2,19,-3
1614,44,-8,1145,0,-20,-3
1615,-24,-12,956,0,17,1
1616,-9,-4,1009,0,-14,3
1617,-36,0,944,2,9,-3
1618,-18,4,1007,0,-4,3
1619,4,-11,1040,6,0,-5
1620,14,6,993,-2,4,1
1621,24,0,1022,-2,-6,1
1622,-5,-6,951,0,7,1
1623,-3,-3,672,-4,-10,-1
1624,-47,8,982,6,-12,-1
1625,13,1,1034,4,13,-1
1626,19,3,1082,0,-16,-3
1627,22,3,915,0,15,-3
1628,10,-10,1003,0,-12,-1
1629,-18,-1,942,2,11,1
1630,-23,-8,1033,0,-8,-1
1631,-28,-11,1016,-4,0,1
1632,-10,7,990,-2,0,1
1633,-71,49,1058,0,0,1
1634,-12,-4,760,-4,-8,-1
1635,-2,-5,891,2,21,-1
1636,17,-4,1191,0,-20,3
1637,-30,-9,958,0,17,3
1638,-20,-17,995,0,-20,-1
1639,-39,3,894,4,17,-3
1640,-3,2,1012,0,-10,1
1641,28,-2,1048,-4,0,1
1642,13,-4,988,0,-2,-1
1643,9,-14,1031,-4,-4,3
1644,-26,5,939,2,7,-1
1645,-71,-15,996,-2,-10,-1
1646,-24,4,904,6,-2,-1
1647,7,2,979,0,6,-5
1648,24,9,1109,0,-14,-1
1649,30,11,943,2,17,-1
1650,6,-10,1006,0,-12,-3
1651,-33,-8,942,2,13,1
1652,-29,-21,1021,-2,-10,1
1653,-19,-4,1005,0,4,-1
1654,-3,12,1013,0,-6,-3
1655,-40,45,1228,2,0,-3
1656,24,8,866,2,4,-1
1657,10,-5,883,2,9,-1
1658,-9,-17,1112,2,-10,3
1659,-40,-11,998,4,9,1
1660,-28,-5,1058,0,-16,1
1661,-26,1,921,6,15,-1
1662,5,10,995,0,-8,-1
1663,16,13,997,2,6,3
1664,19,0,1028,0,-6,3
1665,-59,-9,1067,-4,2,-1
1666,-23,-28,879,6,-8,1
1667,-10,13,987,2,15,1
1668,15,5,1122,0,-24,-1
1669,-4,-10,942,2,15,5
1670,19,9,966,-4,-6,-3
1671,-6,1,957,2,6,-5
1672,-20,-5,1025,0,0,3
1673,-17,-21,1047,0,-2,3
1674,-20,-5,957,0,6,-1
1675,-4,1,1018,0,-8,-3
1676,-12,7,1190,6,6,-3
1677,10,4,816,-4,-8,-1
1678,-6,13,843,2,29,3
1679,13,-4,1164,0,-22,1
1680,-34,-12,936,4,17,-1
1681,-23,2,1089,0,-16,-3
1682,-37,5,938,2,17,-1
1683,0,2,1006,0,-12,-3
1684,14,0,998,2,4,-5
1685,19,-2,1005,0,-2,-1
1686,7,-5,1052,0,-4,-3
1687,-33,-5,950,4,9,-1
1688,-28,-7,1017,0,-10,3
1689,-29,-4,983,2,6,-1
1690,-10,7,1014,-8,-14,1
1691,24,15,984,9,6,-3
1692,51,17,966,2,4,-1
1693,17,2,1039,0,-12,3
1694,-16,-3,970,2,15,-1
1695,-32,-23,1077,-2,-16,-1
1696,-46,-3,939,0,13,-3
1697,-16,-7,1046,0,-12,1
1698,11,7,958,0,9,1
1699,11,11,1166,-2,-26,1
1700,61,-4,1043,0,19,-5
1701,5,-5,1005,-6,-14,-3
1702,-13,-26,910,2,2,1
1703,-44,-5,957,2,7,-1
1704,-40,-14,1111,0,-22,1
1705,-29,10,965,2,17,-3
1706,28,8,1075,-2,-26,-3
1707,17,14,923,2,17,1
1708,26,-7,1051,-2,-10,1
1709,-11,-15,993,2,9,1
1710,-27,-10,1019,-2,-4,-1
1711,-44,-10,1016,0,0,-1
1712,-18,0,950,-2,0,-1
1713,-30,-6,1209,-10,-24,3
1714,26,-25,930,4,27,1
1715,46,12,1038,-2,-20,-3
1716,-13,6,947,2,17,-1
1717,-34,15,1024,6,2,1
1718,-43,-18,1111,0,-8,5
1719,-36,-2,952,2,11,1
1720,-3,-13,1062,0,-14,-1
1721,14,13,911,2,15,-1
1722,33,14,1055,0,-14,1
1723,2,-50,1304,6,7,-1
1724,8,-1,821,-8,-4,-1
1725,-43,12,720,6,31,-3
1726,0,-3,1222,2,-26,-1
1727,19,-14,1127,-6,-22,3
1728,-16,4,988,2,23,1
1729,-2,14,912,2,17,-3
1730,0,4,968,0,-8,-5
1731,-1,1,1005,2,7,1
1732,-9,-9,1025,-4,0,1
1733,-43,24,716,0,0,-3
1734,-13,-9,1207,-2,-4,-3
1735,6,22,1033,4,15,-5
1736,26,15,1020,0,-12,3
1737,7,3,980,0,9,1
1738,-9,0,961,2,0,-1
1739,-14,-2,1034,0,-6,-3
1740,-24,-2,986,0,6,-3
1741,-8,-16,1064,0,-10,1
1742,-6,-6,953,2,6,-1
1743,14,9,1027,0,-8,-3
1744,0,5,972,2,6,-3
1745,-8,6,1037,0,-8,-3
1746,-23,11,1345,2,-6,-1
1747,-33,0,892,-4,7,-1
1748,-3,-1,841,2,7,1
1749,14,-7,1071,0,-14,-1
1750,-10,14,1017,2,11,-3
1751,7,3,1114,0,-20,-1
1752,-29,1,941,2,19,-3
1753,-11,-7,1013,2,-14,1
1754,-15,-3,955,2,13,3
1755,15,-8,837,-4,-6,1
1756,32,-14,1033,4,-10,-1
1757,0,18,1085,2,17,1
1758,18,11,1042,0,-30,3
1759,-17,11,893,0,23,1
1760,-4,5,1006,-2,-14,-3
1761,-24,-15,975,2,4,-5
1762,9,-6,1041,-2,-10,3
1763,-1,-11,1023,0,0,-1
1764,7,9,962,2,9,1
1765,1,0,1025,0,-8,1
1766,2,-5,1167,0,-26,-3
1767,-57,-15,700,2,9,-1
1768,-16,2,1059,7,27,1
1769,19,-26,1012,-4,-28,1
1770,5,-10,942,0,17,-1
1771,-21,7,950,2,2,5
1772,-15,-5,1046,-4,-8,-3
1773,-32,13,970,2,9,-3
1774,-9,-4,1079,-2,-18,-3
1775,-26,-54,1163,-12,6,-3
1776,10,-4,918,4,-4,-1
1777,-12,4,808,2,23,-5
1778,32,-2,1127,2,-14,1
1779,-38,7,1003,4,19,-1
1780,-25,-2,1110,0,-16,-1
1781,-24,8,928,0,13,-1
1782,4,-9,986,0,-12,-9
1783,14,-12,996,2,7,-1
1784,23,3,1004,-2,-2,-1
1785,3,8,1036,0,-2,1
1786,-30,9,967,2,4,1
1787,-35,5,1010,0,-4,-1
1788,-35,-14,976,4,7,1
1789,-17,-24,1212,0,-18,-3
1790,15,3,977,2,17,-1
1791,45,-8,928,0,-4,-3
1792,14,-1,983,0,-2,1
1793,-34,0,952,2,15,3
1794,-45,-7,1114,-2,-16,1
1795,-59,4,943,4,23,-3
1796,-12,-1,1055,-2,-22,-3
1797,17,-12,943,-2,9,-1
1798,17,-7,1185,-4,-14,-1
1799,33,-11,922,6,6,-5
1800,-16,22,983,2,6,-1
1801,-32,3,1082,0,-10,5
1802,-44,-3,929,2,15,-1
1803,-18,-24,1058,-2,-22,-1
1804,-3,-6,938,2,13,-7
1805,32,-16,1027,0,-8,-1
1806,28,6,1001,2,9,-3
1807,7,-3,1006,0,0,3
1808,-20,-10,1030,0,0,7
1809,-33,5,963,4,2,1
1810,-30,1,1028,-2,-6,1
1811,-42,-15,1021,0,-4,-3
1812,30,-1,1028,-4,-2,1
1813,56,-3,907,2,13,1
1814,48,-2,1006,0,-18,5
1815,-21,13,936,2,23,3
1816,-38,-3,1079,-2,-18,1
1817,-171,-29,914,2,6,-3
1818,-2,-29,993,2,-34,-5
1819,9,4,981,4,11,-5
1820,57,-5,1075,0,-22,3
1821,30,-3,983,-2,11,3
1822,-15,-10,964,-2,-2,-5
1823,-53,-3,1000,2,2,-3
1824,-59,14,986,2,6,-1
1825,-25,-3,1043,2,-10,1
1826,40,-2,1014,0,-8,1
1827,17,-3,970,-2,7,-1
1828,27,7,973,-2,4,-1
1829,-7,0,1004,2,-2,-1
1830,-43,2,1008,2,6,1
1831,-47,-1,1005,-2,2,1
1832,-23,-2,1097,0,-26,-5
1833,68,2,1061,2,25,-7
1834,38,7,1004,-4,-20,-1
1835,40,-5,941,2,7,3
1836,-7,0,965,2,6,7
1837,-45,-17,1052,0,-8,-1
1838,-29,-2,918,2,23,-3
1839,1,10,1064,0,-28,-5
1840,22,36,1001,2,19,-3
1841,65,11,1067,-4,-24,5
1842,43,-12,923,4,13,3
1843,-7,-21,1054,-2,-8,1
1844,-55,-21,999,2,9,-9
1845,-59,6,991,4,2,-1
1846,-30,2,1041,0,-4,5
1847,21,-12,988,0,7,5
1848,42,6,1030,0,-10,-5
1849,28,11,973,2,11,-7
1850,2,15,1027,0,-8,-5
1851,-42,-14,976,2,4,1
1852,-51,-22,995,0,0,3
1853,-30,-11,1008,0,-2,-3
1854,62,-12,1253,0,-37,-11
1855,15,54,865,0,9,-3
1856,33,-9,699,-4,31,1
1857,35,-12,1230,0,-35,-1
1858,-38,26,915,4,37,-1
1859,-20,-3,1153,0,-32,-1
1860,-59,9,858,2,33,1
1861,-15,-7,1037,0,-20,-5
1862,7,-15,970,4,13,-5
1863,29,1,1015,0,-8,-5
1864,31,-7,1075,0,-2,-3
1865,-14,9,924,0,7,7
1866,-20,-3,1043,0,-14,5
1867,-43,0,960,2,11,-1
1868,-14,-3,1042,0,-12,-7
1869,0,-11,983,2,9,-5
1870,20,-3,1007,2,-6,5
1871,21,-14,1011,4,4,-1
1872,-4,0,994,2,0,1
1873,-22,-2,1019,0,0,1
1874,32,0,674,2,4,-1
1875,26,12,995,0,-39,-3
1876,-2,23,1131,6,7,1
1877,33,-9,1092,0,-34,3
1878,3,-7,932,0,15,3
1879,-16,-8,980,0,-4,-1
1880,-38,-4,977,2,7,-3
1881,-36,1,1001,0,-2,1
1882,-26,6,1013,0,-8,5
1883,22,17,855,2,2,-3
1884,21,3,980,0,0,-7
1885,20,-2,928,2,7,-3
1886,12,1,1032,0,0,-1
1887,-17,-6,1009,2,4,7
1888,-34,-12,1000,-4,-4,3
1889,-26,-9,976,0,2,-3
1890,-5,4,990,0,-4,-3
1891,6,3,1020,2,2,-3
1892,12,-2,1013,0,-2,-5
1893,-2,-9,983,2,2,-1
1894,-19,-21,1024,2,6,-1
1895,-6,19,978,0,0,-5
1896,-8,22,980,0,-6,1
1897,2,2,982,-2,0,5
1898,2,-18,1047,2,-2,-7
1899,13,-11,981,2,2,3
1900,-15,0,983,2,6,-3
1901,-12,-1,1022,0,-6,-1
1902,-25,-3,981,2,4,1
1903,-3,0,1008,0,-6,5
1904,-3,-2,1000,2,6,-5
1905,-25,8,965,0,-4,-5
1906,54,11,1279,-2,-30,-1
1907,-37,27,1068,2,29,1
1908,13,-28,948,-4,-28,3
1909,-16,-8,895,0,19,-3
1910,2,27,983,-2,-4,-1
1911,-2,1,1095,0,-8,-1
1912,-15,-3,986,2,9,3
1913,4,-17,1068,-2,-10,1
1914,-12,-3,915,2,17,-3
1915,2,1,1049,0,-12,-5
1916,-38,19,916,2,13,5
1917,20,-13,1016,0,-26,3
1918,-9,4,1046,2,7,-3
1919,8,14,1055,0,-16,-3
1920,3,-9,980,2,7,-1
1921,-19,1,980,0,0,1
1922,-10,-16,1008,2,2,3
1923,-15,-4,993,0,4,1
1924,-1,4,1034,-2,-8,-3
1925,-2,16,981,2,6,-3
1926,5,4,1014,-4,-6,-1
1927,5,4,979,2,4,-1
1928,-5,-6,1018,0,-2,1
1929,28,2,845,0,-10,1
1930,-23,-21,893,4,4,3
1931,-32,11,764,2,23,-1
1932,49,-2,1144,0,-20,-1
1933,-3,21,980,2,11,-3
1934,-3,2,1054,-4,-16,1
1935,-16,-2,955,2,17,-3
1936,-27,-11,981,0,-6,-1
1937,-19,-7,1006,2,2,-1
1938,-3,-5,982,-2,-2,1
1939,0,5,1035,0,-2,1
1940,-23,4,875,2,19,-3
1941,-16,3,875,0,-28,-7
1942,-16,21,976,2,19,-1
1943,22,-15,1100,0,-14,5
1944,-12,-5,996,0,13,1
1945,-7,-16,1035,0,-12,-1
1946,-13,-1,943,4,7,-7
1947,-9,2,988,0,-6,-3
1948,-4,6,1004,0,0,5
1949,-6,-4,998,2,6,3
1950,-7,-5,1014,0,-4,1
1951,-17,4,962,2,4,-1
1952,66,14,1402,-4,-37,-3
1953,-23,34,800,0,19,-5
1954,-19,-2,814,4,17,5
1955,23,4,1262,4,-28,-5
1956,-5,14,886,2,25,-1
1957,-6,-3,1102,0,-24,-1
1958,-36,4,909,4,27,3
1959,-24,-13,1029,-2,-18,-3
1960,-7,-12,991,4,9,-1
1961,27,0,897,0,-2,-5
1962,37,6,1054,0,-16,-1
1963,29,25,1049,4,13,1
1964,16,15,1028,2,-20,5
1965,-15,-3,925,0,15,3
1966,-33,-19,1016,2,-6,-3
1967,-26,4,972,2,9,-5
1968,-2,-8,1015,0,-2,-3
1969,-11,-1,1033,-2,-4,5
1970,9,-7,980,4,4,1
1971,15,-4,1015,-4,-10,-3
1972,-12,0,957,-2,7,-3
1973,-21,0,1031,4,-6,-1
1974,1,8,1191,-4,-32,3
1975,-16,12,829,2,15,-1
1976,0,-18,776,4,19,-3
1977,38,12,1184,0,-22,-1
1978,-8,14,922,4,25,-3
1979,-1,1,1108,0,-22,-1
1980,-24,-7,900,0,19,-1
1981,-18,-9,1026,0,-12,-5
1982,-18,-34,936,4,19,-1
1983,2,-4,916,0,-28,-1
1984,5,14,1041,4,9,-5
1985,22,15,1070,0,0,3
1986,10,0,988,2,6,1
1987,-26,-15,999,4,2,-3
1988,-28,-6,989,0,0,-1
1989,-20,-14,990,2,0,1
1990,6,-10,1019,2,2,5
1991,19,-5,1018,2,4,5
1992,18,4,1002,0,0,-3
1993,-5,5,987,-2,0,-3
1994,-20,-1,1009,2,2,-1
1995,-41,-8,980,0,0,-1
1996,-29,35,1049,2,2,1
1997,63,-7,1152,7,39,-5
1998,-2,6,1175,-6,-37,-5
1999,40,10,841,-2,35,-3
2000,25,10,960,-2,-10,3
2001,-34,-7,962,2,2,1
2002,-38,-6,1038,4,2,-3
2003,-19,-13,1089,0,-12,-3
2004,-64,-13,1179,0,35,-1
2005,11,14,1014,-4,-2,1
2006,11,25,814,2,15,1
2007,22,-3,1082,0,-10,3
2008,-13,-2,1007,2,7,-1
2009,-35,-2,1056,-4,-14,-5
2010,-39,-5,984,2,4,-3
2011,-3,-15,999,0,-4,-3
2012,6,-2,997,0,-4,-1
2013,27,13,991,4,2,-1
2014,8,-1,1015,0,2,-3
2015,-9,8,1003,2,4,-3
2016,-23,-8,994,0,-2,-1
2017,-51,-14,918,0,0,-3
2018,-28,32,1030,4,2,1
2019,56,-27,1207,7,37,-3
2020,4,3,1163,-4,-32,3
2021,32,15,852,0,31,1
2022,4,6,977,-4,-10,3
2023,-32,-6,970,2,4,1
2024,-38,-7,1014,2,6,-1
2025,-19,-16,1076,0,-16,1
2026,-6,-4,942,2,13,-1
2027,30,-3,1004,-4,-14,-1
2028,38,-14,1001,2,2,-1
2029,28,14,1169,4,4,-3
2030,-2,15,1019,-2,-12,1
2031,-22,4,922,2,2,3
2032,-29,-20,994,0,-6,-3
2033,-32,-13,1019,6,2,-3
2034,1,-3,1042,0,-2,-3
2035,2,7,1024,0,0,1
2036,-1,0,982,0,2,3
2037,-1,2,993,0,-2,-3
2038,-15,3,985,2,2,-5
2039,-70,3,1320,-6,-53,-5
2040,-6,-41,990,2,23,1
2041,10,1,985,-4,-12,3
2042,-10,-20,1040,4,4,-1
2043,2,8,963,2,9,-1
2044,-9,-9,1158,0,-12,-5
2045,-24,16,914,2,15,1
2046,-12,-22,1043,-2,-16,3
2047,31,-19,784,2,15,1
2048,22,-13,1122,2,-24,-5
2049,22,15,1075,2,13,-1
2050,21,21,981,-6,-18,1
2051,-8,-10,939,2,6,5
2052,-20,-7,958,-2,-4,-1
2053,-26,-14,1047,0,-8,-5
2054,-25,0,1000,2,6,-7
2055,5,-13,1051,0,-12,1
2056,2,-4,963,2,11,3
2057,26,-3,1006,0,-8,-1
2058,5,4,985,0,6,-5
2059,-16,14,1024,2,2,-7
2060,-13,8,1025,0,-28,-1
2061,-12,-12,1010,6,25,3
2062,2,-25,1120,-2,-26,-1
2063,4,-14,861,-2,17,-3
2064,0,33,1011,2,0,-3
2065,-6,6,1071,2,0,-1
2066,-30,-3,987,0,9,3
2067,-5,-24,893,0,-14,-3
2068,-3,-21,938,-4,0,-5
2069,23,20,1146,0,-8,-11
2070,21,11,1020,-2,-6,1
2071,6,0,994,-6,0,5
2072,-3,-5,967,2,4,-1
2073,-40,-9,989,0,0,-7
2074,-37,8,1033,0,-2,-9
2075,-16,1,1031,0,-4,1
2076,12,-8,994,2,2,1
2077,8,-11,985,2,2,-1
2078,14,2,984,-2,-2,-5
2079,-1,26,1021,0,-2,-7
2080,-23,3,1010,0,0,-1
2081,-15,-21,1056,0,-36,1
2082,-44,-2,1111,4,23,1
2083,42,-8,1086,-8,-24,-9
2084,-16,24,833,2,17,-3
2085,-6,25,1019,2,2,1
2086,-11,-11,1102,0,0,3
2087,-26,-6,1007,0,11,-1
2088,-14,-14,1068,0,-14,-7
2089,-27,7,909,0,15,-7
2090,-70,-1,1031,2,4,1
2091,2,-21,862,-2,-14,1
2092,1,-3,1050,2,7,-3
2093,4,18,1133,2,-4,3
2094,-14,10,955,2,13,1
2095,-15,-23,1041,0,-10,3
2096,-22,-23,920,2,15,-3
2097,1,-15,1011,0,-20,-1
2098,0,-5,994,2,4,-1
2099,10,11,1022,0,-10,3
2100,7,11,1016,0,6,1
2101,-24,9,976,2,6,-1
2102,-86,7,778,-2,-6,-3
2103,-24,-25,1165,0,-8,-1
2104,-29,-6,1108,4,19,-1
2105,19,0,1008,-4,-22,-1
2106,14,5,923,-2,17,1
2107,1,9,989,0,-6,-1
2108,-8,3,1013,2,2,-3
2109,-25,-2,985,-2,4,-1
2110,-17,-6,1038,0,-8,-1
2111,-16,-15,948,-2,6,-1
2112,17,-3,998,0,-10,-3
2113,32,-14,1024,4,9,-1
2114,6,-4,982,0,-2,3
2115,17,20,1069,0,2,-1
2116,-25,6,944,0,0,3
2117,-36,-3,994,0,-4,-3
2118,-14,-9,1051,2,2,-5
2119,-6,-6,1037,0,0,1
2120,8,-5,1020,0,0,-1
2121,7,11,987,-2,2,3
2122,6,-4,1008,0,-2,-1
2123,-4,6,997,2,2,-1
2124,-18,5,1021,0,-4,-5
2125,16,-50,1042,-4,-18,-1
2126,-36,21,1001,2,4,1
2127,18,-22,904,2,19,7
2128,14,4,1115,0,-22,-3
2129,2,16,951,-2,17,-1
2130,1,9,1059,0,-8,1
2131,-35,-7,946,2,13,3
2132,-26,-8,1012,0,-8,-3
2133,-15,-18,1022,0,-2,-1
2134,4,1,992,0,2,-7
2135,36,-42,1197,2,6,1
2136,-4,43,921,2,17,-1
2137,27,-1,956,-4,-16,1
2138,-16,1,963,0,7,5
2139,-32,-5,1008,2,-6,-1
2140,-30,-20,1066,0,-8,-3
2141,-19,-10,980,0,9,-1
2142,6,-14,1030,-2,-10,-1
2143,15,15,941,2,9,5
2144,19,9,1016,0,-10,1
2145,-9,13,984,2,11,-1
2146,-100,30,1379,-6,-55,-5
2147,-37,-15,941,-2,17,1
2148,-4,-9,925,-4,-2,1
2149,24,-40,1047,-4,-10,-1
2150,-2,14,956,2,17,-1
2151,9,-7,1169,0,-16,3
2152,-24,14,907,2,23,-3
2153,-2,-5,1040,0,-18,3
2154,-27,-5,915,0,13,-3
2155,-36,-17,1249,2,9,-1
2156,22,1,887,-2,7,1
2157,-12,-2,946,0,6,-3
2158,18,3,1063,0,-6,7
2159,-17,6,955,2,11,1
2160,-1,-11,1108,0,-16,-5
2161,-35,-2,931,2,13,-5
2162,-11,-15,1008,-2,-10,1
2163,11,-15,961,2,6,5
2164,15,-14,1028,0,-8,3
2165,13,3,1017,0,-2,1
2166,-15,15,982,0,4,-3
2167,15,47,935,-4,-24,3
2168,-62,-15,635,2,29,3
2169,-42,-20,756,4,25,3
2170,58,-8,1215,2,-24,-1
2171,-24,12,975,2,23,-3
2172,21,-12,1027,-2,-26,-1
2173,-25,8,852,2,19,5
2174,-24,6,1012,0,-14,-3
2175,-24,-5,1016,2,7,-7
2176,-2,-3,1011,0,-2,-3
2177,4,-16,1014,4,-4,-1
2178,15,3,945,2,6,5
2179,7,-3,1031,0,-8,-1
2180,76,1,769,4,9,-1
2181,6,23,1000,0,-41,-3
2182,-33,39,1123,2,2,1
2183,18,-3,1108,-4,-24,3
2184,1,-17,953,0,11,3
2185,1,-10,970,0,-2,-1
2186,-9,-3,1003,2,2,-9
2187,-25,10,991,2,7,1
2188,-14,-2,1067,2,-6,3
2189,-7,0,967,2,7,5
2190,7,-12,1017,-2,-12,-3
2191,41,-40,645,2,2,-5
2192,-2,-28,1056,7,4,-3
2193,-8,-15,925,6,35,1
2194,4,-17,1123,-2,-32,1
2195,-24,-3,893,2,31,1
2196,7,3,990,-2,-18,-7
2197,-11,14,960,4,9,-3
2198,5,-15,1060,2,-2,7
2199,-6,-2,991,2,-2,3
2200,5,-5,974,2,7,-3
2201,-3,1,1021,0,-10,-3
2202,-34,-18,1160,4,31,-3
2203,-12,14,972,-2,-6,3
2204,-6,7,893,0,17,5
2205,9,-7,1047,2,-8,-1
2206,-18,-11,1023,2,2,-3
2207,-5,-15,1062,-4,-12,-3
2208,-17,1,976,0,0,-1
2209,-13,-4,985,-2,-4,3
2210,-4,0,998,0,0,3
2211,2,7,1009,2,0,-3
2212,-52,48,1117,-2,-26,1
2213,22,-32,747,2,19,-3
2214,-13,-5,826,2,21,1
2215,11,-9,1215,0,-24,-3
2216,-10,5,919,4,21,-1
2217,-7,-9,1070,-4,-26,-5
2218,-12,13,896,4,21,-1
2219,-4,-3,1021,0,-12,3
2220,8,-13,1004,2,9,-1
2221,6,-4,1021,0,-4,-1
2222,-30,-13,1224,2,11,-1
2223,-14,27,927,2,19,-3
2224,17,-3,921,-4,-8,3
2225,1,12,986,2,11,5
2226,-8,3,1021,0,-10,1
2227,-20,-12,1041,0,-4,-7
2228,-20,-1,1015,0,0,-5
2229,-10,-9,1013,0,-4,1
2230,-6,-8,958,2,7,5
2231,9,-11,1018,0,-6,-1
2232,-2,1,993,0,4,-3
2233,25,1,593,-2,-14,-3
2234,-21,-31,932,2,21,-3
2235,-15,-15,856,2,27,1
2236,13,-25,1241,0,-30,1
2237,11,-12,905,2,29,-1
2238,0,5,1013,0,-26,1
2239,-24,7,903,2,21,-1
2240,-12,-4,1032,-2,-10,5
2241,-6,-2,1033,2,6,-3
2242,-3,-8,981,4,4,-7
2243,-28,-21,1304,0,21,1
2244,-32,23,826,0,19,-1
2245,22,3,895,-4,-2,3
2246,0,3,1031,4,9,5
2247,-21,-8,1054,0,-4,-3
2248,-5,-13,1062,0,-6,-5
2249,-25,-5,967,0,4,-5
2250,4,-8,1030,0,-10,3
2251,0,-16,955,2,7,1
2252,19,0,1041,-2,-10,-1
2253,-2,5,1000,2,9,1
2254,-4,37,872,-4,-10,3
2255,-9,-19,909,2,7,1
2256,-36,-1,908,2,27,1
2257,23,-14,1141,0,-26,5
2258,3,12,891,2,27,-3
2259,13,5,1010,-2,-20,-1
2260,-15,8,937,2,13,1
2261,-12,-5,1014,0,-10,3
2262,-17,-11,1042,2,4,-3
2263,-11,8,972,-2,6,-5
2264,10,-21,848,-2,-8,-3
2265,25,0,893,0,-14,-1
2266,21,8,1131,0,-6,-1
2267,2,11,1111,-4,-14,-1
2268,-8,5,966,2,6,1
2269,-17,-11,958,4,2,-1
2270,-36,-6,969,2,6,-3
2271,-10,-18,1037,0,0,-1
2272,-2,1,1039,6,4,5
2273,9,-8,1002,2,2,5
2274,13,10,991,0,-2,-1
2275,-4,1,985,2,2,-5
2276,-15,0,1016,2,2,1
2277,141,-62,1560,-6,-55,1
2278,-138,60,779,-2,19,-1
2279,-7,-45,711,2,2,-1
2280,10,19,1145,4,-10,-1
2281,-10,24,992,2,15,1
2282,9,-7,1185,-4,-26,1
2283,-43,9,905,4,31,5
2284,-4,-13,1024,0,-18,-3
2285,-13,-16,933,2,15,-9
2286,8,-11,1051,-2,-12,3
2287,-117,8,1201,4,29,-1
2288,-6,-12,771,-4,-6,3
2289,-7,21,883,0,13,-1
2290,10,10,1048,2,4,1
2291,-11,-8,1039,2,4,-1
2292,-18,-15,1035,-2,-4,-3
2293,-10,-12,929,0,2,-5
2294,9,-6,990,-2,-8,-3
2295,7,5,990,2,4,-1
2296,4,6,1052,0,-4,-1
2297,-12,9,1020,2,4,-3
2298,-31,-28,703,-2,-2,-3
2299,-18,-19,1053,5,15,-5
2300,-13,-5,1015,2,27,-1
2301,15,-27,1107,-2,-30,-1
2302,-3,24,856,2,33,-1
2303,4,17,986,0,-20,-7
2304,-16,11,946,2,19,-3
2305,-20,6,1037,-2,-8,5
2306,-4,-13,1050,0,-4,-3
2307,-19,-16,980,-4,0,-1
2308,-20,-21,1289,2,9,-1
2309,-4,17,885,0,27,-5
2310,21,11,895,0,-6,3
2311,10,3,1007,2,5,5
2312,-19,0,1024,0,-6,-1
2313,-26,-5,1051,0,-10,-5
2314,-25,-9,979,2,7,-7
2315,-9,-7,1038,0,-8,3
2316,0,-13,952,2,5,5
2317,20,5,1029,0,-10,-1
2318,1,12,987,2,2,-3
2319,-10,9,1025,0,-6,-1
2320,-57,23,891,0,-14,1
2321,-4,-43,885,0,21,3
2322,-23,-18,897,3,21,-3
2323,50,27,1110,3,-22,-3
2324,-4,7,1006,5,17,-1
2325,16,6,1027,-4,-22,3
2326,-30,5,898,2,19,5
2327,-29,-6,1005,0,-8,3
2328,-18,-9,1033,2,5,-1
2329,-17,-5,1013,-2,0,-5
2330,-51,-31,1235,2,21,-1
2331,-16,6,836,-4,0,1
2332,7,14,902,0,9,3
2333,14,20,1047,3,5,1
2334,-7,2,1035,2,5,-3
2335,-14,-14,1032,2,-8,3
2336,-17,-13,946,0,0,-5
2337,8,-14,989,0,-14,-1
2338,10,-6,974,2,5,-3
2339,18,7,1048,0,-2,-5
2340,9,9,1012,2,4,1
2341,106,-10,1119,-2,-34,-1
2342,-69,16,759,2,17,-1
2343,-40,-24,739,2,17,-1
2344,19,22,1170,2,-26,-1
2345,-10,12,972,3,29,1
2346,27,5,1101,-4,-30,-3
2347,-23,12,876,2,25,1
2348,-16,4,994,-4,-18,1
2349,-27,-8,992,-2,13,-1
2350,-9,-12,1030,0,-8,-1
2351,39,-29,1052,-2,-4,1
2352,28,24,993,2,9,-1
2353,23,1,1040,-4,-20,1
2354,-16,-1,917,2,11,-1
2355,-17,13,1035,0,-8,-1
2356,-34,-4,992,2,5,-3
2357,-29,-13,1022,0,-2,-1
2358,-1,-6,1025,-2,-2,1
2359,2,-13,964,2,4,1
2360,17,7,1022,0,-4,-3
2361,4,16,959,0,9,-3
2362,-8,8,1041,0,-6,-3
2363,-39,-29,962,5,17,1
2364,-60,13,1025,-2,-32,-5
2365,-1,-37,1080,-2,-8,-5
2366,2,-9,925,2,7,-1
2367,8,7,1010,2,4,-5
2368,-1,-1,1061,0,-4,5
2369,-24,8,970,2,7,1
2370,-15,-8,1034,-2,-12,-1
2371,-26,-27,1202,3,29,-3
2372,23,2,992,2,5,-3
2373,45,-3,915,-2,0,1
2374,12,3,1011,0,-6,7
2375,-17,-9,982,2,-4,1
2376,-30,-10,1044,0,-10,-5
2377,-26,-3,994,2,2,-3
2378,-25,0,1010,0,-2,3
2379,-5,-10,981,2,2,5
2380,18,-12,1008,0,-2,-1
2381,11,4,1010,2,4,-1
2382,-2,12,1031,-2,0,-5
2383,-12,-3,991,0,-2,-1
2384,-31,-13,992,-2,-2,-1
2385,-22,-18,1002,-2,-4,-1
2386,39,-18,1218,-4,-45,-5
2387,-11,6,987,-2,19,-1
2388,44,-1,936,-6,-12,3
2389,-7,-15,1024,2,4,5
2390,-80,29,957,3,21,-1
2391,-21,-4,1049,-4,-39,-7
2392,-29,10,988,3,23,-7
2393,8,6,1177,0,-30,3
2394,-1,-16,875,1,25,7
2395,19,-18,1027,-1,-18,1
2396,-12,-6,963,3,15,-3
2397,-23,13,1003,-2,-6,-3
2398,-19,-2,1024,-1,-2,1
2399,-9,-14,969,1,7,3
2400,2,-9,1038,1,-8,1
2401,-1,10,962,3,9,-11
2402,8,9,1036,-1,-10,-3
2403,-11,11,982,1,5,3
2404,-10,-11,1027,-1,-6,1
2405,-15,-15,991,1,4,-1
2406,-10,-4,998,-1,-2,-7
2407,-3,4,1023,1,2,-1
2408,-46,-5,1003,1,13,-1
2409,-16,-9,922,-4,-22,-1
2410,-15,-8,945,1,9,-3
2411,-1,47,1013,-1,-12,-3
2412,33,-5,1034,3,41,-1
2413,-12,-26,1137,-4,-26,1
2414,-24,-12,852,1,27,-1
2415,11,-3,943,-2,-10,-3
2416,-5,0,1011,-1,0,-3
2417,-6,11,1011,3,4,1
2418,-2,-6,1070,-2,-14,3
2419,-24,3,931,1,15,-3
2420,1,-6,1027,-2,-14,-1
2421,-15,5,959,1,11,-3
2422,1,-9,1042,-1,-4,-1
2423,-4,-2,981,1,9,3
2424,-9,3,993,-2,0,-1
2425,-64,16,1032,1,15,1
2426,-24,10,919,-2,-12,-3
2427,-16,5,970,1,7,-1
2428,13,7,1046,1,2,-1
2429,11,-11,1023,1,7,-1
2430,-7,-7,1032,-4,-6,-3
2431,-21,8,947,1,4,-5
2432,-4,-3,1002,-2,-4,-3
2433,-6,-16,983,1,2,-1
2434,-1,0,1024,-2,-4,-1
2435,-10,-4,1012,-2,0,-5
2436,-13,5,991,-1,0,-1
2437,-4,-20,959,-1,-30,-1
2438,-44,12,1051,1,31,-1
2439,27,-25,1132,-6,-24,1
2440,-38,-3,865,-1,15,-3
2441,-3,0,1010,1,2,-5
2442,-7,-6,1089,-2,-6,-1
2443,-17,-2,966,1,11,-3
2444,-2,-19,1068,-1,-16,-3
2445,-15,3,917,1,17,-3
2446,10,4,1054,-2,-16,-1
2447,-35,-34,1131,1,31,-1
2448,-30,-1,913,-2,-14,1
2449,-20,-4,865,1,15,1
2450,13,6,1022,-1,0,5
2451,3,-3,1036,1,7,-5
2452,-3,-17,1064,-2,-6,-1
2453,-15,-13,956,-1,4,-3
2454,2,-4,973,-1,0,-1
2455,-2,-6,985,-1,-2,3
2456,9,4,1036,-2,-2,-1
2457,-5,-9,1024,1,4,1
2458,-9,-2,998,1,4,-1
2459,-11,-3,977,1,2,-3
2460,-11,-13,1065,-1,-20,-3
2461,-8,-12,1035,3,13,-3
2462,18,-9,1077,-8,-18,1
2463,-6,8,919,1,11,-1
2464,6,25,990,-1,0,1
2465,-13,-9,1043,-1,0,1
2466,-13,-15,993,-1,11,1
2467,11,-13,1000,-1,-6,3
2468,39,-15,897,-1,-8,-7
2469,22,6,1175,-1,-4,-5
2470,16,-7,1073,-4,-12,5
2471,1,-19,970,-2,0,3
2472,-35,-6,934,-2,-4,1
2473,-37,0,984,1,7,-3
2474,-33,-3,1038,1,2,-5
2475,-12,1,1031,1,5,1
2476,13,1,990,-1,0,5
2477,20,-8,970,1,2,1
2478,0,12,987,-1,0,-3
2479,-12,6,1035,-1,-2,-1
2480,10,7,1238,-1,-39,1
2481,-30,2,886,1,11,1
2482,6,-23,947,-6,-14,1
2483,-17,-5,925,3,11,-7
2484,4,-1,1017,1,2,1
2485,11,1,1087,1,2,-1
2486,-20,4,945,1,11,5
2487,-16,-13,1049,-1,-14,-1
2488,-34,-9,943,-1,9,-5
2489,0,-8,1044,1,-10,-3
2490,83,3,791,1,7,-1
2491,31,7,1082,-1,-30,-3
2492,42,23,1129,1,11,-5
2493,-8,27,1028,-2,-24,3
2494,-29,-1,931,-1,7,3
2495,-36,-14,996,-1,-4,1
2496,-18,-14,998,-3,0,-3
2497,-5,-12,1007,1,2,3
2498,14,-5,1050,3,0,3
2499,10,7,953,-1,5,-1
2500,4,4,995,-1,-8,-1
2501,-12,2,974,1,4,-1
2502,-18,-6,1039,-1,-6,-1
2503,-34,2,1231,-1,-18,-1
2504,-9,-17,1017,-1,4,1
2505,-1,0,936,-3,-8,-3
2506,12,7,948,-3,9,-3
2507,-10,7,989,1,2,-5
2508,-6,4,1067,-1,-4,3
2509,-26,5,1039,-1,7,3
2510,-21,-11,1017,-3,-4,-5
2511,-14,-3,966,1,5,-1
2512,-65,4,1176,1,9,1
2513,-25,-3,871,-3,0,1
2514,10,10,916,1,13,5
2515,20,13,1057,-1,-2,1
2516,-6,5,1000,1,7,-3
2517,-9,-24,1082,-3,-10,-3
2518,-18,-4,941,1,7,-3
2519,-1,-22,1009,-3,-12,-3
2520,9,-3,981,-1,4,3
2521,15,9,1033,-3,-2,3
2522,2,3,1013,5,5,-1
2523,-20,9,984,1,2,-1
2524,-14,-17,999,-1,-4,1
2525,-19,-8,982,1,0,1
2526,-9,55,1306,-3,-28,-1
2527,-11,-17,666,-3,13,1
2528,-22,14,764,1,9,-1
2529,32,10,1211,1,-12,1
2530,-15,7,995,5,9,-1
2531,-6,-19,1086,-3,-18,-3
2532,-28,-5,912,1,23,-3
2533,-6,-11,1003,-4,-12,-3
2534,-2,7,985,1,11,-1
2535,7,5,1029,-1,-10,-3
2536,2,0,1027,-1,0,1
2537,-9,-3,868,-3,0,-3
2538,-7,-2,1027,-1,-22,-5
2539,-17,-2,1020,-1,9,-5
2540,-4,-9,1064,-1,-18,3
2541,-9,-8,954,1,13,1
2542,-4,-7,1021,-1,-6,1
2543,-13,2,985,1,5,-5
2544,-7,11,1001,-3,0,1
2545,-4,-5,1021,-1,-4,1
2546,-13,-3,976,1,2,-3
2547,-2,-4,1025,-1,-6,-5
2548,-6,-1,975,1,4,-3
2549,5,-9,1040,-1,-8,3
2550,-2,-2,1003,1,5,1
2551,-24,-2,945,-1,-4,1
2552,-3,-3,1214,1,-12,1
2553,-28,8,1016,1,17,1
2554,-2,-11,984,-1,-18,-3
2555,-4,-12,978,3,13,1
2556,0,-13,989,-1,-6,5
2557,-4,-5,1011,1,4,-1
2558,-22,-3,996,1,2,1
2559,-3,-7,1050,-1,-8,-1
2560,-11,5,962,-1,7,3
2561,7,-9,1021,-3,-8,-1
2562,-6,-3,966,1,5,-5
2563,4,1,1025,-3,-8,-3
2564,-9,-1,987,1,4,-1
2565,-52,-65,1351,1,27,-1
2566,-47,-10,843,1,17,-3
2567,13,6,805,-1,17,-3
2568,26,9,1048,-1,0,3
2569,16,-16,992,5,5,3
2570,1,-14,1102,-3,-18,1
2571,-11,-11,947,1,7,-5
2572,-21,1,1009,-3,-12,-1
2573,-18,-8,975,1,7,1
2574,-1,3,1029,-1,-4,1
2575,8,-5,1044,1,4,-1
2576,3,-2,995,-3,2,-3
2577,18,-56,1335,-6,-49,-5
2578,-52,1,967,3,17,5
2579,12,-24,928,-4,-14,3
2580,-7,-11,976,-3,0,1
2581,-34,-2,1030,1,4,-3
2582,10,-2,1105,-3,-8,1
2583,-20,-6,947,-1,17,-1
2584,1,-5,1048,-3,-16,3
2585,5,-4,1048,-3,-16,-1
2586,-19,-3,912,3,13,-1
2587,-58,16,1074,-1,19,1
2588,-16,13,969,-3,-6,1
2589,0,-4,914,-1,0,-1
2590,-7,5,1019,1,2,1
2591,-3,6,1049,-1,-4,1
2592,-18,1,1018,1,2,-1
2593,-11,-9,990,-1,0,1
2594,-11,-3,966,1,4,1
2595,-4,1,992,3,0,-5
2596,2,2,1017,-5,-2,-1
2597,6,6,1012,-3,0,-1
2598,-8,6,1022,-3,-2,-3
2599,-36,23,1193,-3,-14,1
2600,-13,-5,849,1,7,-1
2601,13,-1,951,3,19,-1
2602,2,-9,1148,-1,-22,3
2603,-10,6,948,-1,17,-1
2604,15,-5,1040,-1,-10,-1
2605,-7,11,952,3,13,1
2606,-9,-14,1004,-3,-6,1
2607,-18,-4,1020,-1,2,-1
2608,-10,-8,997,-3,0,3
2609,3,-5,1031,-1,-6,-1
2610,2,-8,1103,1,13,-5
2611,17,2,978,-1,-6,-1
2612,10,18,937,1,5,-3
2613,-13,0,1034,-1,-12,1
2614,-23,-3,976,1,2,-1
2615,-4,-10,1031,3,-6,-1
2616,-9,-1,994,1,2,-1
2617,0,-3,1007,-1,-4,-1
2618,6,1,1007,-1,0,-3
2619,-6,8,989,-3,0,1
2620,1,6,1013,-1,-2,1
2621,-3,0,989,-1,2,1
2622,9,27,1192,-3,-22,-1
2623,-32,-35,791,-3,11,-3
2624,-18,-6,779,-1,9,3
2625,6,0,1186,1,-10,-1
2626,5,14,958,1,11,3
2627,-3,-12,1073,-1,-16,-3
2628,-27,10,925,1,17,-1
2629,-9,-10,1001,-5,-10,-3
2630,-13,-1,1004,1,5,1
2631,-5,0,1030,-1,-4,-3
2632,-24,-4,1132,-1,11,-3
2633,-4,-5,859,-1,2,-3
2634,6,8,952,-1,4,1
2635,4,4,1037,-1,-2,3
2636,-9,-5,1013,-1,-2,-1
2637,-10,-6,998,-1,0,-1
2638,-12,1,995,1,2,-1
2639,-6,-2,1011,1,2,-3
2640,-4,-2,1008,-3,-2,-1
2641,9,-2,993,-5,-2,-1
2642,4,3,1001,-1,0,1
2643,-6,3,1002,-3,-4,-1
2644,-7,2,1009,-3,-2,1
2645,-38,15,897,-3,-16,1
2646,17,-23,876,1,13,-1
2647,-12,-10,832,1,17,1
2648,45,-5,1144,1,-16,-1
2649,6,18,961,1,17,3
2650,0,-1,1022,-3,-16,1
2651,-18,-4,911,1,15,1
2652,-6,-9,974,-3,-10,-1
2653,-6,-11,994,1,4,1
2654,-1,4,1037,-1,0,-1
2655,10,-7,1033,-1,-2,-1
2656,-8,1,962,1,9,-1
2657,-14,-5,978,-1,-2,-3
2658,-18,-4,948,-1,-6,-1
2659,-19,5,1036,-1,-4,-1
2660,5,-7,1056,-3,0,1
2661,5,7,1002,1,4,3
2662,1,-4,998,-5,-4,1
2663,-12,-2,955,1,4,1
2664,-7,-15,998,-1,-6,-1
2665,-15,-13,1006,-1,4,1
2666,-10,-5,1031,-1,-6,5
2667,-1,-1,1007,1,2,-3
2668,6,2,987,-1,-2,1
2669,-4,-5,1000,-1,-2,1
2670,-6,-1,1005,-1,-2,-1
2671,-5,-15,1012,-3,-4,1
2672,-110,2,646,-1,0,-3
2673,33,-42,1153,3,17,-3
2674,-47,35,1208,1,25,-5
2675,30,-22,1048,-1,-30,1
2676,-7,25,920,1,27,1
2677,14,5,1005,-1,-16,1
2678,-19,-8,922,1,17,-3
2679,-10,-9,1027,-1,-6,-1
2680,-8,-2,1039,-3,0,1
2681,-3,0,974,1,9,-1
2682,19,-5,961,-3,-2,-5
2683,8,9,849,-1,-10,-3
2684,1,5,1132,-1,-4,-1
2685,-1,7,1058,3,0,-1
2686,-13,0,944,-1,5,-3
2687,-3,-8,964,-1,-2,1
2688,-11,-3,957,1,7,-3
2689,-5,-8,1019,-3,-4,-1
2690,3,4,1004,1,2,1
2691,6,-5,1018,-3,-6,-3
2692,-6,1,986,1,4,-3
2693,-6,0,979,-1,0,-1
2694,-7,-4,1024,-1,0,1
2695,-15,-6,1012,1,2,-3
2696,19,-45,1446,-1,-39,1
2697,-31,12,904,-1,11,3
2698,-8,-3,898,-5,-10,1
2699,-1,-12,1024,3,5,-1
2700,-25,-11,1014,-1,2,-1
2701,-3,-13,1087,-3,-10,3
2702,-26,-1,943,1,13,1
2703,-7,-16,1049,-1,-14,-1
2704,-8,2,941,1,13,1
2705,-19,-15,1231,-1,-2,1
2706,11,-1,953,1,17,-3
2707,9,4,929,-3,-8,-1
2708,-5,-3,994,3,2,-1
2709,-21,9,985,1,2,1
2710,-13,-10,1095,-3,-10,-1
2711,-20,-7,973,-3,9,-5
2712,4,-21,1022,-1,-12,1
2713,7,-2,949,1,7,-3
2714,10,0,1045,-1,-10,-1
2715,-8,-6,998,1,5,1
2716,-17,-7,1007,1,2,-1
2717,-26,-3,1000,-5,0,-1
2718,-18,-7,963,1,5,1
2719,-16,23,1037,-1,-18,1
2720,17,-6,1135,5,15,1
2721,21,-1,1047,-1,-22,-1
2722,-5,1,853,-1,23,3
2723,28,-14,936,-1,-16,-1
2724,-17,12,1149,7,13,-1
2725,3,5,1052,-3,-18,-1
2726,-14,-18,951,-7,0,1
2727,-18,-4,911,1,3,-1
2728,2,-6,1058,-1,-10,1
2729,-7,-4,997,1,11,-5
2730,-11,-3,1078,-3,-10,-3
2731,-22,3,947,1,11,1
2732,-7,-9,980,-3,-8,-3
2733,-7,-8,990,-1,3,-1
2734,9,-6,1045,-1,-6,-1
2735,-1,-8,1022,-3,-2,3
2736,-14,-9,977,-1,0,5
2737,-10,-6,1016,-1,-2,-1
2738,-10,4,995,1,3,1
2739,-12,-4,1038,-1,-4,-3
2740,21,-50,1424,1,-36,3
2741,-40,29,925,-3,7,3
2742,8,-29,874,1,3,-1
2743,20,-15,1128,1,-8,-1
2744,-16,-19,1231,-1,23,-1
2745,-51,2,1013,-1,-8,-3
2746,-23,-5,805,-1,19,1
2747,-8,11,1083,-1,-8,-1
2748,-8,2,980,3,11,-1
2749,8,-6,1121,-3,-18,-3
2750,-14,-2,991,1,7,1
2751,-7,-8,980,-3,-12,1
2752,-17,2,982,1,3,-1
2753,-1,-4,1011,-3,-2,-1
2754,-4,6,1040,-1,0,-7
2755,-12,-2,978,-1,2,-5
2756,3,-4,995,-1,-4,3
2757,-6,-12,981,1,7,-1
2758,-7,0,1038,-3,-4,1
2759,-7,0,1011,1,2,1
2760,-12,2,1008,-3,-6,3
2761,-6,-2,1001,1,2,-1
2762,-2,-1,1006,1,-2,-3
2763,4,27,1455,1,-26,-1
2764,9,-2,734,-1,7,1
2765,18,-4,789,1,17,-1
2766,14,6,1256,1,-20,1
2767,-35,-2,943,1,15,-3
2768,62,5,656,-5,-18,1
2769,-12,10,946,-1,-6,-3
2770,2,14,1125,-1,-6,-3
2771,11,0,1073,-1,-8,-1
2772,7,-5,957,1,13,3
2773,-1,-7,1001,-3,-8,-3
2774,-16,-3,923,1,13,-1
2775,-14,-10,1032,-3,-8,1
2776,-9,6,1017,1,3,1
2777,0,-11,1018,-3,-2,1
2778,5,0,990,-3,-2,-1
2779,6,2,976,1,3,-3
2780,0,-4,1041,-1,-4,-1
2781,-14,-2,994,1,2,3
2782,-13,-15,1011,-1,-4,-1
2783,-10,-3,978,-1,3,-3
2784,-35,-26,609,-1,0,-1
2785,47,-3,1063,3,9,-3
2786,0,14,1088,1,21,-1
2787,22,-43,1104,-3,-30,-3
2788,3,39,881,1,27,1
2789,-16,6,978,-1,-16,-1
2790,-22,-4,944,1,9,-3
2791,0,-5,1002,-1,-12,-1
2792,0,-8,1041,1,2,-5
2793,11,1,971,-1,3,-3
2794,7,-3,1021,-1,-4,-3
2795,-8,0,941,1,3,5
2796,7,-45,1406,-9,5,1
2797,-35,25,901,1,17,1
2798,-4,8,857,1,7,3
2799,15,1,1047,-1,0,1
2800,4,-6,992,1,7,-5
2801,1,-23,1102,-1,-10,-1
2802,-13,-8,949,3,11,-1
2803,-14,-7,1034,-1,-14,-1
2804,-24,-5,961,1,11,1
2805,-6,-11,1051,-1,-6,1
2806,-1,4,1021,1,5,-5
2807,-2,2,1008,-3,0,-1
2808,-12,-13,904,-3,-2,-3
2809,9,5,1170,-1,-14,1
2810,-15,-10,1101,1,13,-5
2811,-1,-4,979,-1,-10,-1
2812,-3,-4,952,-5,5,-3
2813,-12,5,977,1,5,1
2814,-9,-6,1063,-3,-10,-1
2815,-25,2,992,1,11,-1
2816,-12,-12,1049,-1,-10,-1
2817,-13,-5,947,1,9,-1
2818,4,-8,1030,-5,-6,-1
2819,-40,-10,1165,-3,13,-1
2820,-14,2,972,-3,-2,-3
2821,-29,-11,874,-3,9,-1
2822,9,-4,1074,-1,-2,-3
2823,-15,-8,1014,1,3,-1
2824,-7,-19,1044,-1,-10,-1
2825,-12,-3,988,3,5,-1
2826,-2,-7,981,-5,-6,-1
2827,-7,-2,993,1,3,-1
2828,2,6,1024,-1,-2,-3
2829,-7,-6,1025,1,3,1
2830,1,-12,1005,-3,0,-3
2831,-10,-2,980,-3,-6,1
2832,-11,-2,998,-1,0,-1
2833,-3,-15,1006,-1,-2,-3
2834,-16,17,1219,3,-4,-1
2835,-7,32,824,-3,-4,1
2836,-24,14,918,3,19,-3
2837,14,0,1161,-1,-14,1
2838,-6,-5,979,1,11,1
2839,-9,-15,1020,-1,-8,1
2840,-26,0,914,-1,9,-5
2841,-11,8,985,-1,-6,-1
2842,-9,-5,1013,-1,0,1
2843,4,6,1005,-1,2,-1
2844,7,2,1034,-5,-6,-1
2845,-12,-7,948,1,5,-1
2846,-1,-4,1016,-1,-4,-1
2847,-55,-3,1147,-5,2,-1
2848,15,-24,966,7,9,1
2849,-2,13,965,-3,-8,1
2850,-18,3,954,-3,-2,-3
2851,-11,-3,1009,-1,0,3
2852,-13,-14,1076,-3,-6,-3
2853,-23,-10,996,1,13,-3
2854,-16,-8,1034,-1,-6,-3
2855,-1,-5,957,-1,3,-3
2856,5,-4,1028,-1,-8,-1
2857,6,2,1002,1,2,-7
2858,-12,31,1309,-1,-14,-3
2859,-20,-14,740,-5,11,-1
2860,-44,0,721,1,23,-1
2861,48,-13,1174,-1,-22,1
2862,-21,0,952,1,25,-1
2863,6,1,1065,-5,-24,-3
2864,-8,15,891,1,23,3
2865,0,-3,992,-3,-16,-1
2866,-4,-3,969,1,7,-1
2867,-10,-18,1025,-3,-6,-7
2868,-5,-2,1105,-1,-2,-1
2869,2,11,918,-1,5,1
2870,14,-3,1001,-3,-10,1
2871,-9,14,945,1,11,1
2872,-22,0,1056,-3,-12,-1
2873,-21,-2,967,1,13,-1
2874,-13,-7,1029,-3,-8,1
2875,0,-6,999,1,7,3
2876,8,1,999,-1,-4,-3
2877,-3,7,1014,-1,0,-1
2878,-5,6,991,1,3,-3
2879,-11,-7,968,-1,-4,3
2880,-10,4,1061,-1,-18,-3
2881,-8,-8,1128,3,13,-3
2882,18,-9,1053,-7,-14,1
2883,2,11,890,1,15,3
2884,-8,1,981,1,2,3
2885,-19,3,1035,-1,-4,1
2886,-18,3,1005,1,3,-1
2887,-4,-3,1037,-1,-6,-3
2888,-11,1,952,1,7,-5
2889,9,-10,1021,-1,-14,-3
2890,4,-5,974,3,9,1
2891,5,7,1047,-5,-6,1
2892,-16,2,1002,1,2,1
2893,1,-4,847,-7,-10,-1
2894,-30,-5,922,7,-10,-3
2895,6,-3,954,3,27,-1
2896,47,-6,1174,1,-26,-1
2897,-5,2,931,3,27,-1
2898,-7,-3,1019,-3,-18,-1
2899,-34,-9,916,3,19,-1
2900,-27,-11,1013,-5,-14,1
2901,-7,-12,1027,-1,0,3
2902,12,0,983,1,5,-3
2903,26,-14,1040,-1,-12,-3
2904,2,1,947,-3,7,-1
2905,-4,-16,1048,-1,-10,1
2906,-29,-1,991,-1,9,1
2907,-30,-2,1046,-3,-4,-1
2908,-8,5,952,1,7,-1
2909,-13,-36,1320,-3,-43,-1
2910,32,11,899,-1,23,3
2911,27,8,836,1,7,-1
2912,14,-9,1158,-1,-20,-5
2913,-50,4,920,3,25,-3
2914,-34,-17,1162,-1,-26,-1
2915,-54,-7,873,3,33,-1
2916,3,-7,1038,-1,-20,-3
2917,25,-3,952,1,11,-1
2918,33,-1,1036,-3,-10,-1
2919,9,1,1041,1,2,-3
2920,-40,2,952,1,5,1
2921,-34,-26,1040,-1,-12,-1
2922,-41,0,949,1,7,-1
2923,-9,-9,1047,-3,-10,-1
2924,18,-2,974,1,9,1
2925,26,4,1012,-1,-10,1
2926,6,8,974,5,5,3
2927,-30,10,965,-1,-2,-1
2928,-37,-52,1174,-1,-24,-1
2929,-34,-13,1068,1,43,-3
2930,-2,-16,1089,-1,-26,-3
2931,22,-9,956,-3,19,-1
2932,18,11,944,-1,0,3
2933,5,-4,1043,-1,-2,1
2934,-32,2,955,1,11,3
2935,-23,-7,1076,-3,-14,-3
2936,-32,3,926,1,15,-1
2937,-12,-50,1432,-3,7,-1
2938,-11,-29,819,1,2,-5
2939,-8,23,821,-3,21,3
2940,19,16,1161,1,-4,1
2941,-12,-4,945,-1,19,1
2942,-21,-12,1114,-7,-22,-7
2943,-44,-7,896,1,23,-7
2944,1,-9,1027,-1,-20,-1
2945,-1,-10,951,1,13,-3
2946,21,4,1050,1,-12,5
2947,6,5,1022,1,3,-5
2948,-19,11,952,1,2,-1
2949,-24,-11,1001,-1,-4,-3
2950,-30,-12,979,1,7,1
2951,-13,-14,1044,-3,-32,-1
2952,20,-11,918,1,21,-3
2953,24,10,972,-3,-8,-3
2954,17,20,1042,1,3,1
2955,-6,7,978,3,7,3
2956,-21,-13,1077,-1,-12,5
2957,-35,-16,940,1,13,-3
2958,-17,-19,1045,-1,-16,-3
2959,2,-7,952,1,13,1
2960,26,1,1039,-1,-10,3
2961,15,8,990,1,7,5
2962,6,16,1000,-3,-4,-1
2963,-12,26,998,-3,5,-5
2964,-28,-2,932,-1,-4,-3
2965,-10,-10,1022,1,9,1
2966,24,-5,1039,-1,-6,3
2967,20,-4,985,1,3,3
2968,4,12,1017,-1,-4,-1
2969,-15,7,987,3,2,-3
2970,-28,-6,1002,1,2,-1
2971,-30,-22,1006,-1,-4,-3
2972,16,-45,1263,-1,-18,-7
2973,-2,17,911,-1,9,-1
2974,-11,3,800,1,9,1
2975,24,-14,1089,1,-8,1
2976,-21,2,1002,1,7,1
2977,-12,13,1111,-1,-16,-3
2978,-42,1,939,1,15,-3
2979,-6,6,1012,-1,-10,1
2980,-1,-16,954,1,7,1
2981,24,-9,1023,-1,-10,-3
2982,17,-3,1027,3,3,-1
2983,-2,18,988,1,2,-7
2984,-26,3,1003,-1,-4,1
2985,-27,-6,994,3,3,1
2986,-10,-15,1035,-1,-4,-1
2987,-21,-66,1312,-13,-4,-3
2988,33,20,863,3,13,-3
2989,11,24,876,-3,-4,1
2990,19,-2,1003,1,3,3
2991,-38,5,1012,1,3,1
2992,-27,-7,1100,-1,-10,1
2993,-41,-11,966,1,13,1
2994,-51,26,1250,3,-10,1
2995,-14,-16,676,-3,2,-1
2996,12,-5,943,1,7,-1
2997,41,11,1221,3,-8,-1
2998,-26,12,982,1,11,-1
2999,-21,-15,978,-1,-10,3
3000,-47,-9,871,3,17,-1
3001,-18,-18,1015,-3,-14,-3
3002,6,2,1017,1,9,-3
3003,23,5,1046,-1,-6,1
3004,28,0,1000,-1,0,5
3005,-5,5,973,1,2,3
3006,-19,-1,1007,1,-4,-3
3007,-40,-8,996,-1,2,1
3008,63,2,439,-1,-4,-3
3009,31,10,1087,5,-24,-1
3010,2,48,1192,1,9,1
3011,18,2,1128,3,-32,3
3012,-4,10,911,1,23,3
3013,-27,3,973,-3,-10,-3
3014,-23,-24,1038,-1,-6,-3
3015,-47,-11,930,3,15,-1
3016,3,-14,1041,-1,-6,-1
3017,17,-1,974,1,2,3
3018,19,22,1032,-1,-8,3
3019,1,17,960,-1,7,-1
3020,-16,4,1054,-1,-6,-1
3021,-96,-38,1091,3,9,-1
3022,-13,-54,1124,-1,-22,-1
3023,-32,-6,951,1,21,-3
3024,39,-32,1046,-1,-24,1
3025,30,5,1010,3,27,1
3026,13,10,1028,-1,-14,-1
3027,-23,3,937,1,11,3
3028,-42,2,992,1,-2,-5
3029,-25,-16,1044,-1,-4,1
3030,2,-4,988,-3,3,1
3031,117,-5,744,-3,-8,-3
3032,-20,-3,1271,-1,-6,-1
3033,40,15,1017,5,2,-5
3034,7,20,1004,-3,-12,-1
3035,-28,0,987,1,2,5
3036,-33,1,961,1,2,1
3037,-21,-27,1038,-1,-6,-3
3038,-1,-16,1013,1,5,-5
3039,19,-7,1049,-1,-10,1
3040,16,0,948,1,7,5
3041,2,13,1006,-1,-4,5
3042,-9,13,976,5,5,-1
3043,-28,3,1039,-1,-4,-3
3044,-16,-9,994,1,2,1
3045,-6,-15,982,1,2,-3
3046,5,-16,1012,1,2,-3
3047,18,2,993,-1,0,-3
3048,10,9,1014,-1,-4,1
3049,-13,19,990,1,2,-3
3050,-17,6,999,-1,2,-3
3051,-23,-16,1003,1,2,1
3052,-9,-18,991,-1,0,-3
3053,6,-9,1010,-1,0,-3
3054,6,2,1008,1,2,-1
3055,-2,0,1014,-1,0,1
3056,-7,3,993,1,2,1
3057,-17,1,1005,-1,-2,-7
3058,-16,2,1001,1,3,-3
3059,-10,-6,1024,-1,-2,-3
3060,4,-21,999,1,2,-1
3061,9,-7,1020,-3,0,-1
3062,-1,-2,1002,-1,-2,-7
3063,-6,14,1004,1,2,-1
3064,-20,10,1010,1,0,1
3065,-21,2,1007,-1,-2,1
3066,-13,-9,1007,-1,0,-3
3067,-1,-17,1012,1,2,-1
3068,1,-7,1003,1,2,-1
3069,-4,-2,994,1,2,-1
3070,-9,2,1006,-1,-2,-1
3071,-19,-3,1002,-1,0,-3
3072,-23,4,1003,-1,-2,-1
3073,3,-9,994,-3,0,-3
3074,10,-10,1004,-3,0,-1
3075,3,-14,999,-1,0,-1
3076,-3,-4,991,1,2,3
3077,-9,4,993,1,2,1
3078,-11,4,1006,1,0,-1
3079,-13,-6,1012,-1,2,1
3080,-8,-7,1000,-1,0,-1
3081,-5,-11,1001,-1,0,-3
3082,1,-1,1003,-1,0,-1
3083,-9,-11,1013,1,2,-3
3084,-5,-2,996,-1,-2,1
3085,-2,3,1013,-1,0,1
3086,-13,-12,1010,-1,-2,-3
3087,-2,-4,1005,-1,-2,-1
3088,-5,-8,1003,-1,-6,1
3089,-7,-7,1004,-3,-2,-1
3090,-10,-2,1003,-3,0,-1
3091,-3,1,1008,1,2,-1
3092,-17,8,1000,3,0,-1
3093,-7,3,991,1,2,-3
3094,-12,-6,988,3,2,-1
3095,4,-4,1015,-3,0,-3
3096,0,7,1006,-1,2,-5
3097,-8,7,997,1,2,-3
3098,-11,2,1008,-1,0,5
3099,-10,2,1002,-3,0,-5
3100,0,-2,995,-5,2,3
3101,-3,-3,992,1,2,1
3102,-3,0,1003,-1,-4,3
3103,-4,-2,1017,-1,0,1
3104,-7,3,1006,1,3,1
3105,-3,-11,998,-1,0,1
3106,-9,-3,994,1,3,1
3107,-19,-10,1005,1,2,-1
3108,7,-8,906,3,2,1
3109,4,-7,1017,-1,-4,1
3110,-11,4,1002,1,2,1
3111,-9,1,1019,-1,-2,1
3112,-11,0,1004,-1,-2,-3
3113,-4,0,1001,5,2,-1
3114,-9,-6,1004,1,2,-1
3115,-11,3,1011,3,3,-3
3116,-2,0,1014,-1,0,1
3117,4,8,1011,-1,-2,-3
3118,-3,8,1014,-3,-4,-1
3119,1,1,1014,-1,0,-1
3120,-7,8,1007,-1,0,-1
