sequence,AccelerometerX,AccelerometerY,AccelerometerZ,GyroscopeX,GyroscopeY,GyroscopeZ
0,-8,-2,996,1,1,-3
1,-1,-11,1010,1,3,-3
2,-6,0,999,-1,-1,1
3,-3,-2,1000,-1,-3,1
4,-13,13,1010,-3,-1,1
5,-8,2,1007,-1,-1,1
6,-2,-5,998,-3,-3,-1
7,2,0,1004,-1,-1,3
8,-9,-5,989,-1,-1,3
9,-9,-11,1005,-1,-1,1
10,-9,5,1009,-1,-3,-1
11,-13,-2,993,-3,-3,1
12,-7,-11,1001,-1,-1,-1
13,-4,-2,1011,1,1,-3
14,2,-9,1004,-1,-1,-1
15,-8,-7,999,-3,-5,-1
16,-7,-2,997,-1,-3,-1
17,-16,-6,999,-1,-3,-5
18,-12,2,1013,-5,-1,-3
19,-15,2,981,-3,-5,-5
20,-1,-9,1005,-1,-1,-1
21,-6,-14,1003,1,-1,-5
22,4,7,1005,-3,-1,-6
23,-6,12,1001,-3,-5,-1
24,-2,10,1001,-1,-1,1
25,-4,-5,997,-1,1,3
26,-12,-6,1017,-3,-5,-1
27,-8,3,990,-1,-1,-3
28,5,-3,995,1,1,-5
29,6,1,1010,-3,-1,3
30,1,-8,993,-3,-1,1
31,-4,1,999,-1,-1,-5
32,-5,1,1011,-1,-1,-5
33,-16,-8,1009,-3,-3,1
34,-9,-11,1004,1,1,1
35,-6,-13,1005,-3,-3,-1
36,0,-3,993,-1,-3,-5
37,-3,3,998,1,1,-5
38,-7,-2,1004,-1,-3,-1
39,-10,-5,1003,-1,-3,3
40,0,-14,998,-1,-3,3
41,-10,-7,1002,3,1,-1
42,2,0,1003,-3,-7,-3
43,-5,9,996,-1,-1,-1
44,-2,-5,992,-3,-7,1
45,-2,-2,994,-5,-1,1
46,-5,1,999,-1,-1,-5
47,-12,1,1002,1,1,-6
48,-6,-1,1005,-3,-1,-1
49,-12,-13,1003,-1,-1,1
50,0,-11,1008,1,3,3
51,0,-3,1012,-3,-3,-5
52,-6,0,994,-1,-1,-3
53,-14,8,991,-3,-1,1
54,-5,-2,1004,-1,-3,3
55,-6,-5,993,-5,-1,-1
56,-6,-9,1003,-1,-3,-3
57,-3,1,1029,-1,1,1
58,-4,4,999,1,1,-3
59,-3,-6,998,-3,-3,-3
60,-7,-4,1006,-3,-3,-3
61,-6,-9,998,-1,-1,-8
62,-7,-3,1003,-1,-1,-3
63,-2,2,994,-1,-1,-3
64,-11,2,1008,-1,-3,1
65,0,-3,998,-1,-3,1
66,-8,2,999,1,1,-5
67,-2,5,1009,-1,-1,-3
68,-3,4,1011,-1,-5,3
69,-11,-13,1011,3,1,-1
70,-3,-6,1006,-1,1,-1
71,-4,-4,998,1,1,-1
72,-3,1,1001,1,1,-3
73,-2,6,1016,1,-1,3
74,-13,-5,985,-3,1,1
75,-12,-5,1015,-1,-1,-1
76,-9,-7,995,-1,-3,-3
77,-1,0,995,1,1,-3
78,-14,0,1000,1,1,1
79,-2,-8,1013,-1,-1,-1
80,-1,-6,995,3,1,-3
81,-4,-4,999,1,1,1
82,-9,-2,1003,-1,-3,-1
83,-10,-6,1001,-3,-1,-1
84,-7,-2,998,-3,-5,-1
85,-5,-6,1011,1,1,-3
86,-6,-2,1010,-1,-1,-5
87,-8,1,992,-7,-1,-3
88,-7,5,1008,-1,-5,3
89,0,-5,1003,1,3,-1
90,-2,-4,991,-1,-1,-5
91,-7,-3,999,-3,-3,-2
92,-10,-9,996,3,1,0
93,-15,1,1010,-1,-1,-2
94,-5,-5,1002,1,1,0
95,-7,-3,994,1,1,-2
96,-6,-8,1016,-1,-6,-2
97,-5,-5,999,-1,-4,0
98,-4,3,1015,-1,-3,2
99,8,-5,987,-1,-1,0
100,2,-6,994,-1,-3,4
101,-11,3,998,3,3,-2
102,-16,0,985,-1,-3,2
103,-16,-7,1015,-1,-4,0
104,-10,-3,984,-1,-4,-2
105,-9,5,1008,-1,-1,0
106,7,13,994,5,1,0
107,5,6,991,-1,-3,0
108,-11,-2,986,1,1,0
109,-9,-7,1002,-1,-1,0
110,13,-19,1067,1,-4,0
111,-19,12,1043,-3,3,-2
112,4,10,999,-3,-6,0
113,30,-5,1013,-1,3,0
114,18,-11,992,-1,-1,4
115,1,-17,989,1,3,0
116,-34,6,1007,-1,1,-2
117,-30,4,1018,-1,-3,0
118,-26,4,977,1,-1,-2
119,-3,-3,1002,-3,-6,2
120,18,0,987,1,5,-2
121,14,7,1014,-3,-4,-6
122,-2,-5,993,1,1,0
123,-14,-4,1008,-1,-1,-2
124,-15,-11,1008,-1,-3,2
125,-28,-6,1014,1,1,0
126,4,11,1007,-1,-1,-2
127,-1,-6,990,-3,-4,0
128,10,-2,1005,-1,-4,0
129,-13,-3,996,1,5,2
130,-6,-9,1043,-1,-4,-4
131,-9,5,969,-1,3,-4
132,3,5,1010,1,-3,-2
133,-7,6,994,-1,5,0
134,-1,2,1016,-3,-4,4
135,-15,-15,1009,-1,5,2
136,-2,2,996,-1,1,-2
137,-6,-6,1012,3,1,-4
138,-9,2,994,-1,-1,4
139,-6,2,1005,-1,-3,4
140,-3,-6,996,-1,-1,0
141,0,-2,1016,-1,-3,-4
142,6,7,1004,1,1,-6
143,-3,1,1014,-3,-4,-4
144,-7,-14,999,-1,-1,-2
145,-5,-13,1000,-1,-3,4
146,-8,-9,854,-3,1,0
147,-21,2,1004,-1,-6,-4
148,-10,10,1034,1,13,-4
149,21,13,1066,-3,-10,2
150,17,-7,975,1,9,2
151,8,-15,1004,-1,-4,-2
152,-12,-9,991,-1,5,-2
153,-33,3,1024,1,1,-2
154,-15,5,993,1,5,0
155,-27,7,1018,-1,-1,4
156,13,-3,1005,-1,-6,2
157,32,1,998,-1,-1,-2
158,15,-14,1009,-1,-4,-4
159,-8,-6,1008,-1,-1,-2
160,-19,-2,1009,1,1,0
161,-29,-8,1002,-1,3,-4
162,-12,3,1008,1,-3,-2
163,0,8,1020,-5,-10,-2
164,16,14,999,1,5,2
165,11,-12,1022,-1,-3,4
166,13,-17,982,1,7,2
167,-10,-11,1024,-3,-1,0
168,-29,1,1014,1,1,0
169,-18,14,982,1,1,2
170,-6,-6,1024,-3,-4,0
171,5,-5,995,1,5,0
172,11,2,993,-1,-3,-8
173,-3,4,991,-1,-1,-2
174,-3,2,1009,-1,-4,2
175,-19,-4,988,-3,-1,4
176,-17,-2,1001,-1,-3,2
177,-3,-13,1001,-1,-1,-2
178,-3,-3,1018,-1,-4,0
179,8,6,1008,-1,-3,2
180,-32,6,1198,1,5,-2
181,-29,-29,866,-5,-4,2
182,-30,-2,902,3,7,-6
183,11,11,1104,-5,-12,-4
184,10,-2,999,1,3,4
185,15,-12,1057,-3,-8,8
186,-17,-14,971,1,9,2
187,-13,-7,999,-1,-8,-4
188,-35,7,982,1,5,-4
189,-10,1,1018,-1,-3,6
190,-2,-11,1001,-1,-1,4
191,12,-8,984,1,1,-2
192,6,-7,1004,-1,-1,-8
193,-13,7,999,1,1,-2
194,-15,-3,1012,1,-1,0
195,-28,-4,983,-3,1,2
196,-11,-7,1013,-1,-6,-2
197,2,-1,1001,1,3,-8
198,0,18,1159,-7,-8,-6
199,24,-4,901,1,-3,0
200,-13,-17,1009,1,9,6
201,-9,-11,1064,-1,-4,0
202,-6,9,949,-1,9,-8
203,7,-8,1035,-3,-8,-6
204,-15,9,982,1,9,0
205,-2,-17,1023,-1,-8,2
206,-4,-5,984,3,7,2
207,-2,-2,1004,-1,-3,-2
208,-10,3,1002,1,1,-4
209,-8,5,1014,-5,-4,2
210,-8,-7,1004,1,1,0
211,-7,4,1015,-1,-1,-4
212,-13,-7,1004,1,5,2
213,-6,6,992,1,5,-2
214,2,-4,1011,-1,-3,-2
215,-11,-10,993,-1,1,4
216,-9,-34,760,-3,-3,0
217,-19,24,975,-1,-3,-4
218,-18,-5,1020,1,3,-2
219,11,14,1069,-3,-8,0
220,3,12,990,3,5,2
221,8,-9,1025,-1,-3,2
222,-15,-7,974,1,5,-2
223,-18,9,998,-1,-8,-2
224,-20,0,1011,1,1,-2
225,-20,-2,1005,-1,-4,0
226,4,4,1000,-1,-1,0
227,7,2,998,1,3,0
228,19,3,1017,-3,-3,-2
229,0,5,995,-3,1,-4
230,-17,-10,1012,-1,-3,4
231,-23,-7,996,-3,1,2
232,-13,-2,1004,-1,-3,-2
233,-9,14,955,-1,-3,-2
234,8,9,1010,1,-6,-2
235,-4,-2,1048,1,5,4
236,16,-9,994,-1,-3,0
237,-1,-10,988,1,5,-2
238,-16,8,994,-1,-3,-2
239,-15,6,986,-1,-3,0
240,-8,8,997,-3,-3,0
241,-8,-10,1012,-3,1,0
242,2,-4,985,-1,-1,-2
243,-1,0,1009,-1,-3,-4
244,-12,-3,979,1,5,0
245,-4,-6,1023,-1,-4,0
246,-18,-11,1000,-3,-1,4
247,-15,-3,1010,-1,-1,-2
248,-2,-2,993,1,1,-2
249,-9,9,989,-1,-3,0
250,-1,-5,1004,-1,-4,4
251,-5,-17,1024,1,-1,8
252,-12,8,1016,-1,-1,-4
253,-2,1,960,-3,-1,-6
254,-10,5,981,-1,-1,4
255,5,-3,993,-3,3,4
256,11,-12,1022,-1,-4,2
257,-17,-6,991,-1,5,-4
258,-13,1,1007,-1,-3,0
259,-24,3,982,1,3,0
260,-8,-6,1010,-1,-4,2
261,0,-2,1000,1,3,2
262,11,-3,999,-3,-3,-6
263,14,3,1005,-1,3,-8
264,-6,1,1010,-1,-1,0
265,-12,-9,1018,-3,-1,2
266,-21,-8,990,3,3,4
267,-13,0,1002,3,1,0
268,-7,6,1001,-3,-1,-4
269,-11,-7,1087,-3,-12,-2
270,-1,-17,988,1,7,2
271,2,1,1028,1,-1,2
272,-13,-6,987,1,5,0
273,-2,-1,989,-3,-1,-10
274,-9,4,1024,-1,-4,-2
275,-19,-7,984,3,7,4
276,-6,-14,1032,-1,-8,-2
277,-6,-13,999,3,5,0
278,4,-4,1018,-1,-6,-6
279,-2,6,985,1,7,0
280,-11,-3,1008,-1,-6,2
281,-18,-9,994,1,1,4
282,-12,-14,1009,-1,1,2
283,-4,-1,1007,1,3,-4
284,-2,3,987,-1,-1,-2
285,10,-51,989,-1,-4,2
286,-9,18,1028,-1,5,4
287,19,-13,974,-5,-3,-4
288,7,5,986,1,1,-2
289,2,12,1024,-3,-1,0
290,-4,-14,1030,-1,-3,6
291,-16,-6,985,1,1,2
292,-24,2,1014,-1,-6,-4
293,-21,7,988,-1,5,-2
294,-3,-6,1037,-1,-3,-2
295,-2,-8,989,-3,-1,2
296,18,-12,994,-1,-1,0
297,7,6,1000,-1,-3,0
298,-15,-3,1005,-1,-4,0
299,-19,6,987,-3,-3,0
300,-21,-4,1006,1,1,4
301,-9,-7,991,-1,-1,-2
302,4,-5,1008,1,1,0
303,5,4,999,-3,-3,-2
304,0,3,971,1,-1,-2
305,-6,-7,993,-1,-6,-2
306,-17,-4,1060,3,7,2
307,-4,5,1008,-1,-8,0
308,4,1,978,-1,3,-6
309,3,3,1005,1,-3,2
310,5,5,985,1,1,6
311,-13,-4,995,1,1,2
312,-17,-11,1011,-3,-1,-2
313,-20,-10,1000,-3,-1,-2
314,1,1,1009,-1,-4,-2
315,-4,11,990,-1,-1,2
316,-2,-3,1017,1,5,2
317,9,-5,1013,-1,-1,6
318,-13,-3,1002,-1,-1,0
319,-15,3,1001,1,1,-2
320,-11,-8,1004,-1,-1,4
321,6,-4,971,3,3,-2
322,-2,-22,1008,-3,-10,-2
323,6,8,1069,3,5,-6
324,-3,27,1041,-1,-6,0
325,5,2,942,-1,7,2
326,-7,-16,998,-3,-3,2
327,-20,-24,981,1,3,0
328,-28,-5,1001,1,1,-2
329,-23,6,1027,1,-3,0
330,-15,2,992,-9,-4,0
331,7,5,990,-3,-3,0
332,19,-13,997,1,1,0
333,15,-2,1017,-1,-4,-6
334,-14,-7,1008,1,1,-4
335,-19,0,1005,-1,-1,4
336,-25,-3,991,-1,-3,4
337,-10,-7,1008,-1,-3,0
338,1,3,966,-1,-1,-6
339,-1,11,1030,-5,-6,-2
340,0,-6,1029,3,5,0
341,-7,-17,1013,-1,-1,-2
342,-16,2,991,-1,7,-2
343,-22,4,996,-3,-3,-2
344,-12,1,988,-1,3,0
345,-11,6,1002,-3,-3,0
346,2,-12,1012,-1,-3,0
347,1,-7,1002,1,1,-4
348,4,-7,1018,-1,-3,0
349,-7,7,999,1,-1,-2
350,-8,7,1007,-1,-4,4
351,-15,1,1006,1,1,4
352,-16,6,1010,-5,-1,-2
353,-1,-3,1003,-1,1,-4
354,-3,7,1008,-1,-3,-2
355,1,-8,995,-1,-1,4
356,-9,-5,993,-1,-1,0
357,-6,-25,1081,1,-1,4
358,-16,-3,971,-3,-3,-6
359,-13,3,976,-1,-3,-2
360,13,3,1011,1,-3,-2
361,12,-7,992,1,1,4
362,7,-19,1042,1,-3,-2
363,-27,-5,982,1,5,-6
364,-22,1,1017,1,-3,0
365,-29,2,991,1,5,4
366,-18,1,1019,-3,-4,2
367,1,-3,1011,-5,-1,-2
368,10,0,1009,-1,-3,-4
369,5,-9,998,-1,-1,-4
370,-10,1,1010,-3,-1,-2
371,-22,-7,1005,1,1,0
372,-23,-11,1009,1,1,2
373,-13,5,1003,1,1,-8
374,4,2,994,1,1,-2
375,19,7,1014,-1,-4,0
376,9,-9,999,-1,-1,0
377,1,-8,959,-5,-3,0
378,-12,3,1008,-3,-6,-2
379,-20,5,1019,1,3,-2
380,-7,4,1009,-3,-4,2
381,0,4,995,1,5,-2
382,1,3,1009,-1,-4,-4
383,-8,4,979,1,5,0
384,-10,-4,1012,-3,-2,-2
385,-12,-16,1014,1,2,2
386,-18,-6,997,-3,0,0
387,-6,-9,998,-3,0,0
388,9,2,997,-1,0,0
389,0,8,1007,-3,-4,0
390,3,-8,1003,1,0,2
391,-4,-9,1005,-1,-6,0
392,-17,-3,999,1,3,-2
393,-46,27,1114,-1,-2,0
394,-20,-11,1008,3,7,-2
395,2,32,978,-5,-8,2
396,5,-5,964,-1,7,4
397,6,-9,996,-1,-2,2
398,-4,4,1027,-1,-2,0
399,-32,-14,1020,1,2,-4
400,-33,-4,1024,-3,-2,-4
401,-24,-2,971,1,2,-2
402,4,2,1014,-3,-8,0
403,15,8,993,-1,0,4
404,18,7,1030,-1,-2,-2
405,-12,-3,988,1,3,-2
406,-17,-14,1005,-1,-2,2
407,-23,-9,1004,1,2,4
408,-15,-3,996,3,2,0
409,-2,7,1001,1,0,0
410,15,8,995,3,2,2
411,18,-2,1031,-3,-8,0
412,0,-5,985,1,2,-2
413,-16,-9,1016,-3,0,0
414,-35,-15,1004,-1,0,0
415,-33,9,998,3,2,-2
416,-2,3,1020,-1,-6,2
417,7,0,987,1,3,0
418,12,2,1028,-1,-2,-2
419,11,1,985,1,3,-4
420,-5,-6,1005,-3,-4,0
421,-21,-5,1007,1,5,4
422,-24,3,1022,-3,-2,0
423,-18,-6,999,-1,0,2
424,7,11,900,1,2,0
425,20,4,1033,-1,-4,0
426,2,10,1025,1,7,-2
427,5,-4,1039,-1,-6,4
428,-26,-4,971,1,9,2
429,-18,-8,1017,-1,-4,-2
430,-22,-2,975,-1,3,0
431,-10,-5,1019,-1,-2,-4
432,1,-1,1010,-1,0,-4
433,10,6,998,-1,0,-4
434,9,0,1008,-1,-4,0
435,-12,-7,985,1,3,0
436,-13,-8,1030,-1,0,-2
437,-24,-4,988,3,3,4
438,4,0,1013,-1,-4,0
439,6,2,990,3,3,4
440,11,-6,1005,-1,-4,-2
441,-2,-8,1001,1,2,0
442,-11,6,1059,-1,-6,0
443,-11,-6,993,1,3,6
444,-6,1,1030,-5,0,2
445,-3,0,983,1,2,0
446,-8,3,996,1,2,-2
447,-8,2,1018,-3,-6,0
448,-17,-4,997,-1,2,2
449,-8,-12,1035,-1,-2,0
450,-13,-12,985,1,2,0
451,-3,0,1022,-1,-4,-4
452,-6,8,984,1,3,-2
453,6,-6,1008,-1,-2,4
454,-3,2,1007,-1,0,0
455,-15,-1,988,-3,0,-2
456,-4,0,1010,-1,-2,0
457,-3,-3,985,-1,-4,0
458,-13,1,1013,-1,-6,0
459,-8,1,991,1,3,2
460,-4,4,999,-1,-2,0
461,-27,0,1082,1,0,-4
462,-32,1,964,1,2,0
463,36,4,1015,-1,-2,4
464,-2,2,957,-1,-4,-6
465,36,-9,1003,-3,-2,8
466,13,-8,1020,-1,-4,6
467,-31,-3,983,3,7,0
468,-51,2,1000,1,0,-2
469,-41,10,991,1,2,0
470,0,10,1014,-1,0,4
471,22,-4,998,1,3,6
472,26,-9,1003,-1,0,-2
473,9,4,993,-1,0,-4
474,-25,-5,996,-1,0,2
475,-29,-16,1007,-1,2,10
476,-29,-5,999,-1,-2,2
477,-11,2,1007,-1,-4,-2
478,18,10,1005,-1,0,-6
479,30,-2,1005,-1,-2,2
480,-2,-17,988,1,2,2
481,-5,-13,1015,1,2,2
482,-36,-11,1046,-1,-4,-2
483,-15,12,955,-1,2,0
484,-8,14,1004,-1,0,-2
485,9,-5,1015,-1,-4,-2
486,7,-16,1009,-1,2,-2
487,5,-14,1022,-1,-4,0
488,-13,-7,999,1,5,0
489,-8,11,1001,-3,-4,0
490,-17,-4,1000,-1,3,0
491,-7,-3,1015,-1,-4,-2
492,-1,5,995,3,2,0
493,-2,-6,1014,-1,0,-2
494,7,-7,999,-1,-4,0
495,-19,-1,1003,1,2,2
496,-21,-3,988,-3,-2,4
497,-33,7,906,-1,-4,2
498,-33,0,963,-1,-2,-2
499,2,-11,995,-3,0,-6
500,43,-2,1052,-1,-4,-2
501,21,-1,967,1,7,8
502,1,-12,1015,-5,-6,6
503,-34,-2,983,-1,3,2
504,-54,6,1016,-3,-2,0
505,-33,3,998,-1,2,-4
506,0,-9,1011,-1,-4,4
507,31,-18,998,1,2,0
508,29,-15,990,1,2,2
509,8,-4,1011,-1,-4,0
510,-20,15,999,-1,0,2
511,-38,2,1019,-3,-2,4
512,-35,-2,998,-5,0,2
513,4,1,1009,-1,-4,-2
514,10,-5,991,-1,0,-6
515,21,5,1007,-1,-2,0
516,8,-9,1002,-3,0,6
517,-15,-13,1010,-3,-2,4
518,-29,5,1029,-5,-2,0
519,-23,10,1016,-1,-6,-2
520,0,-2,1004,-1,-2,2
521,19,-10,998,-3,0,2
522,19,-13,1003,1,-2,0
523,-11,-1,990,1,3,0
524,-25,4,1008,-1,2,-2
525,-21,3,992,1,2,2
526,-11,6,1003,-1,0,4
527,-1,-5,997,1,2,0
528,1,-18,843,-1,-2,-6
529,-2,-13,1004,-3,-6,-2
530,-9,-7,1023,1,7,0
531,24,-4,1081,-3,-8,-2
532,20,4,984,-1,11,2
533,9,-4,1011,-1,-4,4
534,-15,-8,980,1,9,-2
535,-23,-7,1003,-3,-2,-2
536,-31,2,1005,1,7,-2
537,-18,-7,1001,-1,-4,2
538,0,-5,1014,-1,-2,4
539,20,2,996,-1,0,0
540,10,1,1008,-5,-4,0
541,-4,-2,1006,1,7,0
542,-25,-4,1020,-3,-4,2
543,-35,0,989,1,3,2
544,-5,-9,1002,-1,-4,2
545,9,-2,997,-1,-4,2
546,17,7,1016,-1,-4,0
547,8,-4,1005,-5,0,-2
548,-4,4,1001,-1,-4,6
549,6,-10,870,-1,-4,2
550,-33,-1,1001,-1,-16,0
551,-15,4,1036,-1,-4,-2
552,17,10,1011,-1,-8,0
553,34,5,1010,1,3,2
554,24,-1,1008,-3,-4,2
555,-12,-9,990,1,2,-4
556,-25,-2,996,-5,-4,-4
557,-34,-6,1013,1,2,2
558,-16,-10,1010,-1,0,2
559,15,-3,1002,-1,-4,-2
560,13,12,979,-1,0,-4
561,10,11,1005,-1,0,-8
562,-15,-4,1024,1,3,0
563,-30,-20,1041,1,-10,4
564,-42,2,1002,-1,7,-2
565,5,4,976,-5,-2,-4
566,36,9,1000,-1,3,0
567,32,5,1000,1,2,8
568,-6,-16,1026,-5,-2,4
569,-37,-17,1006,-1,2,0
570,-45,0,1009,-1,-2,-8
571,-32,12,983,-1,0,-4
572,12,2,1024,-3,-4,4
573,35,-2,998,1,3,0
574,31,0,1011,-1,-2,-4
575,-8,7,994,1,3,0
576,-41,10,990,-1,-2,0
577,-43,-5,1009,-3,0,2
578,-25,-10,1002,1,2,6
579,1,-5,1002,-1,-2,-4
580,18,-11,1077,-1,11,-4
581,22,18,1039,1,3,-8
582,5,28,998,-3,0,4
583,1,13,980,-5,-6,8
584,-24,-9,980,-1,0,4
585,-35,-21,1029,-1,-4,-8
586,-4,-18,1019,-1,-4,2
587,-19,-9,1008,1,2,-6
588,11,-7,976,-3,0,6
589,15,-7,1020,-1,-2,10
590,1,11,1007,-1,0,0
591,-12,8,995,1,0,-4
592,-25,14,992,-1,0,-4
593,-14,-15,991,-1,2,4
594,-12,-27,1037,1,-8,4
595,6,-21,986,-1,0,-2
596,9,6,978,-3,-2,-8
597,12,30,1017,3,2,0
598,-11,10,996,-1,3,6
599,-10,-11,1016,-1,0,4
600,-20,-18,999,1,5,2
601,-33,-8,1012,-1,-4,-8
602,-14,-1,993,-1,2,-2
603,7,1,996,-1,-4,0
604,13,-1,1000,1,2,4
605,10,-2,1001,-1,-2,2
606,-9,12,993,1,3,-6
607,-14,-3,1001,-1,0,-4
608,-23,-11,1011,-1,-2,2
609,-3,-18,1000,-3,-2,-2
610,-12,-18,1079,1,11,4
611,11,20,979,-1,3,-8
612,1,21,970,1,3,-2
613,4,18,1017,-1,0,4
614,-18,-3,1009,-1,-4,6
615,-15,-23,1012,-1,0,-6
616,-18,-15,999,3,2,-4
617,-18,-9,1009,-5,-4,-4
618,-6,2,994,-1,3,6
619,8,3,1003,-5,-2,2
620,2,5,1009,-3,0,0
621,-11,-4,1004,-1,0,-2
622,-12,-5,1005,1,2,-4
623,-21,-10,1000,-3,-4,2
624,-7,-20,1006,1,2,4
625,2,-5,976,-1,-14,-2
626,-2,3,1020,-1,-2,-2
627,-6,18,953,1,11,-2
628,16,6,1085,1,-16,2
629,4,-7,944,3,19,4
630,-10,-24,1061,-1,-12,0
631,-30,-14,955,1,11,-4
632,-19,12,1035,-1,-10,2
633,-22,9,995,1,5,2
634,1,7,1011,-1,-8,2
635,17,-6,999,3,2,-2
636,13,-1,985,1,2,-2
637,-3,-5,1013,-3,-2,-2
638,-24,-6,979,1,3,2
639,-19,-9,1032,-1,-6,0
640,-12,3,985,1,5,2
641,0,11,917,-3,-4,-2
642,13,-7,1007,-1,-12,-2
643,14,-4,1040,-1,0,0
644,5,5,1041,-1,-6,2
645,-9,-5,996,1,9,4
646,-22,-17,1010,-1,-2,4
647,-27,4,965,-1,7,2
648,-17,-12,1001,-1,-2,-4
649,-2,2,1005,-3,-2,0
650,14,-6,1006,-3,-6,-2
651,22,-6,1000,1,1,0
652,-6,2,983,3,1,0
653,-19,6,1018,-1,-4,-4
654,-22,-1,1010,1,3,-2
655,-20,2,1011,-1,-4,-2
656,1,-6,980,-1,0,-6
657,11,-4,998,-1,0,0
658,9,1,974,-3,0,0
659,-2,-3,1025,-1,-4,-2
660,-16,-3,944,1,13,4
661,6,-5,1048,-3,-8,2
662,-23,15,969,1,9,4
663,-12,-1,1012,-1,-8,4
664,-17,-7,995,1,5,-2
665,-2,1,1017,-1,-8,-6
666,4,-7,1006,1,1,2
667,1,4,993,-1,-2,0
668,-4,-4,1016,-1,-2,-2
669,-15,-3,994,1,7,0
670,-8,-10,1028,-1,0,0
671,-17,-7,981,1,1,2
672,-3,-6,1024,-3,-6,2
673,-6,3,995,1,1,0
674,3,-5,1008,-1,0,-2
675,-4,5,999,3,7,-2
676,-16,-16,1190,-3,1,4
677,-17,13,863,-3,-6,4
678,-8,-9,1000,-1,7,0
679,35,9,1072,1,-8,2
680,11,17,946,1,9,0
681,6,-1,1050,-1,-8,2
682,-30,-8,975,1,11,4
683,-30,-10,1000,-3,-6,0
684,-34,-4,994,1,5,0
685,4,1,1011,-1,-6,-2
686,17,6,1016,-3,-2,4
687,12,6,974,-5,-2,0
688,9,-15,1004,-1,-2,2
689,-18,-2,988,1,3,-2
690,-33,-11,1018,-3,-2,4
691,-20,-9,995,-1,1,2
692,-4,-12,1006,-1,-4,2
693,37,-34,1048,-1,-14,2
694,23,15,1003,-1,5,0
695,1,-2,973,-1,5,2
696,-12,1,1016,-1,-6,5
697,-40,4,986,3,11,4
698,-18,-10,1056,-1,-10,-4
699,-21,-5,968,3,7,0
700,15,3,1010,-1,-4,-2
701,10,6,959,1,5,0
702,9,-4,1021,-1,-8,0
703,-16,3,1008,-1,-1,2
704,-23,-7,1001,-3,-2,-4
705,-34,-5,1009,-1,0,-7
706,-19,-4,989,1,1,-5
707,8,-11,1001,3,3,3
708,15,-4,981,1,1,1
709,2,14,1021,-5,-2,3
710,-9,12,1005,1,5,-3
711,-19,-9,993,3,1,-1
712,-35,-4,1001,1,0,-5
713,-10,-26,996,1,1,-3
714,-2,-3,1020,-1,0,-5
715,85,-92,1087,-1,-6,-7
716,-13,-4,945,-1,0,3
717,-15,12,883,1,9,1
718,15,-16,1122,1,-14,-1
719,-3,13,929,1,15,-3
720,-5,3,1023,-1,-12,-5
721,-16,-7,956,1,13,-1
722,-17,-9,992,-5,-8,1
723,-6,-5,1003,-1,5,1
724,-13,3,996,-1,0,1
725,4,0,1017,-1,-6,-3
726,2,7,979,-3,0,-1
727,11,-13,1018,-1,-4,3
728,-15,-19,987,1,3,5
729,-13,-12,1024,1,-2,-3
730,-18,3,992,1,1,-1
731,-24,28,1144,-5,-10,-1
732,4,-6,1012,1,7,-1
733,-4,17,1103,-5,-8,5
734,-49,-4,947,1,5,-5
735,-12,-15,1006,-1,0,-3
736,-3,1,1025,-1,-4,-3
737,5,-17,1010,1,3,3
738,9,-6,1033,-3,-6,3
739,-7,2,975,-1,3,-1
740,-4,1,1029,-3,-6,-1
741,-24,8,980,-1,5,-3
742,-14,-7,1024,-5,-6,-1
743,-12,-14,1003,-1,-2,-1
744,8,-12,987,-1,-6,1
745,6,2,998,-1,0,-5
746,-3,-4,1000,-1,-2,-1
747,-7,-5,1013,1,1,-3
748,-19,-6,992,1,3,-1
749,-15,-18,1061,-7,-12,-3
750,-21,8,985,3,5,-3
751,8,-12,1004,-1,0,-1
752,14,0,1032,1,3,1
753,2,6,979,3,5,-1
754,-10,-7,1038,1,-2,-1
755,-34,-3,984,1,7,3
756,-25,-6,1023,-1,-4,1
757,-15,-9,986,1,5,-3
758,17,-15,1020,-1,-8,-1
759,23,7,1006,1,1,-3
760,5,7,994,-1,-4,-3
761,-15,-5,1001,1,1,1
762,-12,-16,983,-1,0,-1
763,-19,-3,1055,1,0,3
764,-21,-14,1015,-3,-6,1
765,-9,1,997,1,5,-7
766,10,6,1005,1,1,-3
767,5,7,998,1,3,1
768,0,10,1000,-3,-4,-1
769,-14,-3,1017,1,1,-1
770,-27,-6,1003,1,5,-3
771,-11,-3,984,-1,-2,-5
772,-6,-6,1004,1,3,-1
773,8,7,1013,1,-2,3
774,8,4,1009,3,1,-1
775,-8,7,997,1,3,-1
776,-10,1,992,1,1,-3
777,-32,-5,1002,-1,0,3
778,-29,-7,1001,-1,0,-1
779,-12,-13,1005,-1,0,-3
780,12,-4,1011,-1,0,-5
781,11,1,992,1,3,-3
782,8,-4,998,1,0,-1
783,-9,14,810,-3,-2,1
784,4,-2,1099,-1,-6,-3
785,-21,5,1094,1,9,-3
786,-16,-4,972,-1,-10,-3
787,-12,8,995,1,7,1
788,-5,-7,992,-1,-8,-5
789,6,-5,966,-1,1,1
790,-1,-7,994,-3,-6,-3
791,-9,3,1026,-3,-2,-1
792,-6,2,1012,1,1,-5
793,-12,-8,1014,-1,-6,-3
794,-15,4,999,-3,1,3
795,-8,-1,1018,-3,-4,-1
796,-2,12,980,-1,-2,-1
797,1,5,1023,-3,-4,1
798,-8,-11,999,-1,1,-1
799,-9,-9,1000,-3,0,-1
800,-18,0,995,1,3,-5
801,-6,1,993,-3,0,-3
802,-13,-45,912,-1,0,-1
803,-59,44,969,-1,0,-1
804,-13,-58,829,1,9,-1
805,43,31,1088,-5,-6,-1
806,-2,13,1038,-1,7,-1
807,-9,-12,1003,-1,-8,1
808,-44,-6,976,3,9,1
809,-40,-6,1000,1,-2,-5
810,-18,8,999,1,5,-3
811,2,3,1010,-3,-6,-1
812,23,-7,1010,-1,0,-1
813,23,-5,1006,1,1,1
814,5,-4,1017,-1,-6,-1
815,-24,-5,1001,1,1,1
816,-28,-4,1032,-5,-4,-1
817,-20,-1,993,1,3,-1
818,4,7,1010,-1,-4,-3
819,25,0,995,1,3,-7
820,26,-2,1002,-1,-4,-3
821,-4,-9,1013,-1,-2,1
822,-23,3,1002,1,1,3
823,-25,0,1008,-3,0,5
824,-18,0,999,1,1,-1
825,-7,-6,1005,-3,-4,-1
826,7,5,1008,1,-2,-1
827,15,-1,1002,-1,0,-3
828,2,-4,1004,1,3,3
829,-10,-1,1000,-1,-2,-1
830,-22,-4,1001,1,1,-1
831,-14,5,998,1,1,-1
832,-4,1,1008,-3,-4,1
833,-2,-6,777,-1,-4,-1
834,2,-12,1092,-1,-2,-3
835,-19,13,1108,1,9,-3
836,33,-6,1027,3,-10,-1
837,1,4,973,1,9,5
838,2,-14,995,-3,-10,7
839,-23,-8,958,1,7,-1
840,-32,6,981,-1,0,-5
841,-12,12,1024,1,3,1
842,-7,2,1016,-3,0,-1
843,13,-6,1012,-1,-2,-3
844,-4,-9,980,1,3,-3
845,-11,4,1022,1,0,-5
846,-13,1,1004,3,3,-1
847,-15,-2,1016,-1,-4,3
848,-5,1,991,1,1,7
849,-9,-4,1003,-1,-2,-1
850,-2,0,994,1,1,-1
851,6,10,1010,1,1,-5
852,-3,-4,1010,1,1,3
853,-16,-12,1002,-3,0,1
854,-10,4,928,1,0,-1
855,-1,-10,909,1,-12,-3
856,4,-9,1173,-1,5,1
857,3,0,1024,-1,-12,3
858,39,4,896,1,9,1
859,12,-14,1019,-3,-4,-3
860,-27,1,971,1,5,-5
861,-33,-6,1004,1,3,-3
862,-43,-8,1037,-1,-4,3
863,-12,-5,978,3,1,-1
864,18,0,994,-1,-10,-3
865,22,8,982,1,3,-1
866,23,9,1023,-1,-2,1
867,-11,-6,994,-1,0,3
868,-49,-12,863,-1,-4,1
869,-32,-79,1241,-1,-6,-5
870,-30,16,1063,1,11,-5
871,42,5,949,-1,-10,-1
872,47,-6,984,1,13,-1
873,16,2,1011,-1,-6,-1
874,-21,-7,987,1,1,-3
875,-49,0,1005,-3,-2,1
876,-47,5,1029,-1,-4,-3
877,-5,-10,989,-1,1,1
878,23,-17,1020,-3,-8,-3
879,32,-8,979,-1,5,-3
880,18,1,1025,-1,-6,-5
881,-23,-2,992,1,1,3
882,-32,-5,1009,-1,-2,-1
883,-42,-10,994,1,1,1
884,-19,-8,1005,-1,-4,1
885,10,6,1002,1,3,-3
886,23,-5,996,3,1,3
887,24,-4,1014,1,3,-1
888,-6,2,948,-1,3,1
889,-41,-29,980,-1,-10,1
890,-32,10,1034,-1,7,-5
891,0,4,1014,-3,-14,-3
892,28,13,931,-3,5,-1
893,43,1,1019,-1,0,3
894,1,-12,982,5,3,-1
895,-34,-14,982,1,7,-5
896,-40,-14,1040,-1,-6,1
897,-32,-9,974,1,7,1
898,-3,6,1024,-1,-6,-1
899,30,4,971,1,5,-2
900,40,-1,1034,-1,-7,2
901,3,1,993,-1,-1,0
902,-72,-23,1140,-1,-7,2
903,-34,-31,1079,-1,7,0
904,-20,-50,936,-1,-5,4
905,-24,-10,985,-1,-1,2
906,-1,3,1002,-3,-3,0
907,20,7,1048,-1,-3,0
908,28,1,980,-1,1,2
909,4,-9,1033,-3,-5,2
910,-29,-9,963,1,7,-2
911,-36,-9,1025,-3,-8,0
912,-33,2,1001,1,3,2
913,0,11,1005,-1,-3,2
914,26,-6,999,3,3,0
915,10,-2,1004,-1,-1,-2
916,8,-9,1017,1,3,-2
917,-27,-3,993,-1,-1,4
918,-29,0,884,-5,-7,0
919,-24,-5,1012,-1,-5,2
920,2,2,990,1,3,-6
921,31,9,1041,-1,-10,-2
922,18,11,993,1,7,0
923,5,-7,990,-1,-5,0
924,-38,-14,986,1,3,2
925,-31,-14,989,-3,-1,0
926,-20,-1,1016,-5,-1,2
927,8,-2,987,-1,1,-4
928,23,10,1007,-1,-5,0
929,17,0,974,-1,1,0
930,6,-13,1013,-3,-5,0
931,-27,-15,999,3,5,2
932,-32,-3,1018,-3,-3,0
933,-20,-8,1001,1,1,4
934,-3,1,1008,-1,-7,2
935,18,4,1012,-1,-1,0
936,8,8,1007,1,1,0
937,11,8,1009,1,1,-2
938,-16,-12,947,-1,-3,0
939,15,-27,1059,-1,-14,0
940,-14,21,1124,1,7,-4
941,-6,18,1020,-3,-14,0
942,36,0,921,-1,13,5
943,20,-5,999,-1,-7,5
944,-7,-16,975,1,1,0
945,-35,-2,1010,1,1,-2
946,-30,-4,1027,-1,-1,0
947,-24,-1,989,-1,1,4
948,0,-5,998,-1,-7,4
949,17,4,982,1,1,-2
950,25,2,1020,-1,-5,-2
951,-12,0,979,-1,-3,0
952,-18,-6,1023,-5,-3,2
953,-29,-19,988,1,1,2
954,-24,-3,998,1,-3,0
955,30,-21,882,1,-1,-2
956,-23,-27,1268,-5,-1,0
957,-17,4,901,3,9,4
958,1,-3,1082,3,-1,2
959,-26,-9,960,1,5,2
960,-34,-1,1027,-1,-5,2
961,-26,-12,986,1,5,2
962,0,1,1008,-3,-5,2
963,17,-2,992,-3,-1,0
964,30,7,1009,-3,-3,-2
965,7,2,1000,1,3,-2
966,-25,7,996,-1,1,-2
967,-24,-9,996,1,1,0
968,-35,-5,1005,1,1,-2
969,-15,-1,1015,1,-1,-4
970,11,3,1003,-3,1,-2
971,19,8,1008,-1,-7,4
972,7,-9,1002,3,1,2
973,-13,-6,992,-1,1,0
974,-21,-16,983,-1,-18,2
975,-37,-4,976,-1,7,-2
976,5,-15,969,-1,-5,0
977,33,7,1012,-1,-3,-2
978,34,15,991,1,3,2
979,15,-5,1054,-1,-7,2
980,-24,-4,980,1,13,-2
981,-43,-1,1035,-1,-9,0
982,-41,2,962,3,7,2
983,0,4,1027,-1,-12,2
984,31,-5,1001,5,3,-2
985,30,5,1008,-1,-5,-2
986,5,-6,1032,1,1,0
987,-17,-4,1014,1,1,0
988,-32,8,990,1,1,2
989,-38,-1,984,-1,-1,0
990,-20,-8,1006,-1,-5,0
991,1,6,1023,-1,-1,-4
992,23,0,1017,-1,-1,-4
993,27,-2,998,-3,1,2
994,4,-6,1013,-1,-1,4
995,-25,1,1005,1,3,2
996,-36,-3,1003,-1,-1,0
997,-26,5,1002,1,1,-2
998,0,6,1007,3,-1,0
999,21,-8,1009,-1,-1,0
1000,16,3,984,1,-3,4
1001,11,-16,1297,-1,-18,2
1002,-42,-7,965,-5,11,0
1003,-36,4,900,-1,-1,2
1004,-42,-25,1069,-1,-5,-2
1005,-29,-3,942,-1,-1,-4
1006,10,1,1094,-3,-12,-2
1007,13,2,959,1,9,-6
1008,27,-7,1028,-1,-9,4
1009,-9,-3,948,1,11,4
1010,-19,-13,1045,-1,-7,4
1011,-36,2,996,1,7,-2
1012,-12,3,1003,-1,-5,0
1013,-7,-3,998,-1,-1,0
1014,14,6,998,-3,-3,0
1015,14,-5,1032,-1,-3,0
1016,-4,4,993,-1,1,-4
1017,-21,1,1020,1,-1,2
1018,-29,-2,986,1,5,2
1019,-16,-10,1015,-1,-5,2
1020,4,-6,988,-1,1,2
1021,16,3,1020,-1,-5,2
1022,9,2,996,1,1,0
1023,4,-2,1004,-1,-1,4
1024,-12,-8,1009,-1,-3,4
1025,-20,-5,991,1,3,2
1026,-16,-5,1005,-1,-1,0
1027,-1,-7,994,-1,-3,0
1028,6,0,1004,-1,-3,4
1029,12,-3,1014,-3,-1,2
1030,10,2,1005,-1,-1,0
1031,-15,-7,986,1,1,-2
1032,-24,-2,977,-3,-7,-2
1033,-11,-5,991,-1,-7,2
1034,-17,6,1044,-1,7,4
1035,18,5,1024,-1,-9,2
1036,31,2,937,-1,9,0
1037,9,7,1011,-1,-3,0
1038,-18,-2,972,-1,-1,2
1039,-37,-9,1017,1,-1,4
1040,-34,-14,1024,-1,-3,4
1041,-13,-6,995,1,1,-2
1042,7,10,1003,-1,-5,2
1043,15,-3,982,1,1,2
1044,10,-8,1024,-1,-7,5
1045,-57,-18,1002,3,11,2
1046,40,-4,981,1,5,0
1047,-60,-9,885,1,9,-2
1048,-18,-12,1034,-1,-7,0
1049,-16,2,1055,-5,-1,4
1050,11,-1,1075,-1,-7,-2
1051,-6,-5,996,1,1,-4
1052,4,-9,1003,-3,-5,-6
1053,-17,1,964,-1,3,4
1054,-8,-13,1018,1,-3,4
1055,-6,-5,1010,-1,3,2
1056,4,0,996,-1,-5,-4
1057,6,7,998,-3,-3,2
1058,0,3,993,-1,-1,0
1059,3,-11,1025,-5,-7,4
1060,-11,-6,993,-1,-1,0
1061,-6,1,1011,1,1,0
1062,-4,-4,1005,1,3,0
1063,-1,0,1022,-1,-1,4
1064,10,-2,992,-5,-1,4
1065,-16,-3,1130,-5,-12,0
1066,10,-4,1010,3,9,-2
1067,-13,20,1003,-5,-3,-4
1068,-25,-12,1008,1,1,2
1069,-18,-21,956,3,5,4
1070,-11,-5,1054,-3,-7,2
1071,-1,-1,989,1,7,-2
1072,24,-3,1053,-3,-9,0
1073,7,11,966,1,7,2
1074,5,-3,1029,-1,-5,4
1075,-13,-20,979,3,5,4
1076,-23,-7,998,-3,-5,2
1077,-17,-2,1001,-1,-3,-4
1078,-8,-5,995,-1,-3,0
1079,11,0,1019,-1,-3,2
1080,7,8,1008,1,3,0
1081,-7,0,1018,-1,-3,0
1082,-15,6,979,3,7,0
1083,-48,30,1033,-3,-18,2
1084,-11,-29,908,1,11,0
1085,1,21,1007,-5,-12,0
1086,31,-10,975,1,7,2
1087,23,-3,1001,-1,-3,2
1088,-9,7,1014,-1,-1,2
1089,-30,-8,1006,-1,5,2
1090,-47,-3,1035,-1,-9,2
1091,-30,-2,967,-1,5,-2
1092,11,-9,1038,-1,-7,0
1093,32,5,980,3,7,-3
1094,33,-7,1038,-1,-7,1
1095,7,-3,987,1,3,-1
1096,-33,-7,1006,1,-1,1
1097,-41,0,1009,1,3,3
1098,-30,0,993,-1,-1,3
1099,-2,5,1012,-1,-3,-3
1100,31,-12,1006,-1,-1,-7
1101,33,2,1001,-1,-7,1
1102,1,-7,985,-1,5,1
1103,-29,1,1017,-3,-8,-1
1104,-47,-1,983,1,1,3
1105,-36,-11,1012,-3,-7,-3
1106,-2,-3,984,-1,-1,-3
1107,34,3,1004,-1,-3,-5
1108,35,35,1019,-1,-3,1
1109,-8,-5,964,-3,-5,3
1110,-44,1,983,1,9,-3
1111,-20,2,1067,-1,-7,-1
1112,-10,4,978,1,9,-1
1113,7,-16,1010,-3,-7,3
1114,2,-8,982,-1,3,-1
1115,2,3,996,-3,-3,-1
1116,-3,2,1006,1,3,-7
1117,-15,12,999,-5,1,1
1118,-13,-9,1006,-1,-1,5
1119,-11,-7,993,1,3,-1
1120,-6,-4,1020,-1,-3,-7
1121,2,2,990,-1,5,-3
1122,-7,2,1029,-1,-1,1
1123,-6,6,998,1,1,-3
1124,5,-3,830,-5,-1,1
1125,-27,10,1051,-1,-5,-1
1126,-25,1,940,1,7,-3
1127,-8,9,1045,-1,-5,-1
1128,-1,4,1033,1,9,7
1129,-13,-16,1010,1,-5,1
1130,-6,-10,952,1,3,-3
1131,-7,0,985,-3,-3,-1
1132,-9,1,987,-1,-1,-1
1133,-1,-4,1017,-3,-5,3
1134,8,-3,997,-1,-1,1
1135,8,2,998,-3,-3,-3
1136,1,-2,1004,1,-1,-3
1137,-24,-5,1002,-1,-1,-1
1138,-12,0,1005,-1,-7,1
1139,-16,-12,985,1,3,-3
1140,6,0,1011,1,-1,-1
1141,9,2,1001,-3,-3,-3
1142,7,2,996,-3,-1,-1
1143,-4,-6,999,-1,-1,3
1144,-28,-5,993,-1,-8,5
1145,-29,0,967,1,3,-3
1146,-5,11,1017,-1,-7,1
1147,2,6,973,1,5,1
1148,19,-3,1032,-1,-3,3
1149,5,-2,994,1,1,3
1150,-15,-5,1003,3,1,-5
1151,-29,-3,1025,-1,-1,-3
1152,-30,0,998,-1,-1,3
1153,0,-3,1012,-1,-5,1
1154,14,0,991,1,1,1
1155,14,-9,1022,-1,-3,-3
1156,-2,-3,982,-3,-1,-3
1157,-11,-5,998,-5,-3,1
1158,-28,-4,996,-1,-1,3
1159,-18,-10,1015,1,1,3
1160,-7,5,1000,-5,-3,-1
1161,6,-2,990,-3,-1,-5
1162,10,10,1016,-3,-3,-1
1163,-3,-9,981,-1,1,3
1164,-10,-9,991,-1,-1,1
1165,-21,-8,994,3,1,-3
1166,-60,2,770,-3,-8,-3
1167,-38,-32,990,-1,-3,-1
1168,18,-24,871,1,9,1
1169,41,7,1118,3,-8,1
1170,29,13,1003,1,11,-3
1171,2,8,1032,-1,-7,-5
1172,-45,-10,975,1,11,1
1173,-56,-13,986,-3,-10,7
1174,-32,-13,999,3,7,-1
1175,8,7,1017,-3,-7,-1
1176,39,15,1005,-1,-3,-7
1177,31,15,1001,1,3,1
1178,-1,-3,1007,-3,-3,5
1179,-32,-2,992,1,1,-1
1180,-42,-17,1017,-1,-7,-3
1181,-35,-21,963,3,1,-5
1182,-2,-6,951,-3,-5,3
1183,8,1,966,1,7,5
1184,22,3,1057,-1,-7,-1
1185,-8,7,967,1,11,-5
1186,-19,-9,1040,-1,-7,-7
1187,-27,2,963,1,1,1
1188,-17,-10,1021,-1,-7,5
1189,-7,-17,1007,-1,-1,1
1190,13,-13,1010,1,-3,-7
1191,18,15,996,-1,-1,-3
1192,-8,6,1005,1,1,-1
1193,-22,-15,1013,-1,-1,3
1194,-19,-6,987,-1,-3,1
1195,-11,0,1004,1,1,-3
1196,-7,10,991,1,7,-3
1197,10,4,999,-1,-3,-3
1198,2,0,1006,1,3,1
1199,-6,1,1005,1,1,3
1200,-14,-2,993,1,3,-1
1201,-22,-6,1005,-1,1,-3
1202,-21,-1,992,-3,-1,-1
1203,22,0,952,-1,-3,3
1204,29,-12,1043,-1,-7,-1
1205,-11,3,1051,3,7,-3
1206,-6,-2,1014,-1,-12,-3
1207,-34,7,983,-1,3,-5
1208,-19,-7,1019,-1,-7,-1
1209,-10,-16,973,1,1,3
1210,8,-4,997,-1,-1,1
1211,11,2,1014,3,1,-3
1212,3,-2,996,1,3,-1
1213,-7,-7,1015,-1,-1,1
1214,-21,0,1002,3,5,1
1215,-12,1,1012,-3,-7,-1
1216,-8,-3,987,-1,-1,-3
1217,0,-3,1013,-1,-5,-3
1218,4,3,991,-1,-1,1
1219,1,-1,1015,-1,-1,1
1220,-10,-5,998,-3,-1,3
1221,-10,-8,999,-3,-1,1
1222,-29,24,1295,-7,-18,-1
1223,10,0,813,-1,5,-1
1224,4,-7,956,1,3,-1
1225,26,-3,1092,-1,-7,1
1226,-7,14,953,1,3,-3
1227,-16,-2,1091,-1,-7,1
1228,-33,-2,983,-1,9,1
1229,-25,-3,1033,-1,-12,-1
1230,0,-9,961,1,9,-3
1231,25,-4,1027,-1,-5,-5
1232,10,14,1001,-3,3,-3
1233,0,1,1005,1,-5,1
1234,-35,-6,996,1,5,3
1235,36,-116,964,1,11,-1
1236,-25,15,951,-1,1,-3
1237,-3,-4,1086,1,5,-1
1238,37,4,1053,-3,-9,1
1239,26,8,1005,5,7,3
1240,4,-19,1072,-1,-9,-1
1241,-40,-6,952,1,7,-1
1242,-39,-3,1022,-1,-3,-3
1243,-27,2,995,1,1,-1
1244,6,-6,1020,-1,-10,-1
1245,16,-10,1005,-1,-1,5
1246,17,-1,1002,1,1,-1
1247,-8,-1,995,1,3,-5
1248,-33,-4,988,1,5,1
1249,-23,-13,1027,-1,-5,1
1250,-24,-11,1003,-1,3,3
1251,3,-12,1003,1,1,1
1252,20,4,993,-3,-1,-5
1253,26,7,1005,-3,-7,-1
1254,-2,-9,1010,1,1,5
1255,-25,-3,1002,-1,-1,3
1256,-35,-9,1001,-1,-5,-1
1257,-1,-56,1134,-3,-3,-1
1258,-7,10,924,-1,-3,-5
1259,7,-9,941,-1,9,5
1260,14,-12,1084,1,-7,5
1261,-21,-5,953,-1,7,5
1262,-11,-8,1024,-3,-7,-1
1263,-19,-6,994,3,7,1
1264,4,1,1007,-3,-7,-3
1265,23,2,1010,-1,3,-1
1266,14,2,1003,-1,-5,-1
1267,-4,-8,1021,-1,-3,-1
1268,-24,-9,986,1,3,-1
1269,-33,-7,1023,-1,-5,3
1270,-9,-4,1004,1,1,-3
1271,2,-5,1007,-1,-5,-1
1272,12,4,995,1,1,1
1273,14,-7,1015,-1,-5,-3
1274,-6,-2,1002,-1,-3,-3
1275,-6,1,1008,1,1,-3
1276,-17,-5,1008,-1,-3,-1
1277,-22,8,995,1,1,1
1278,-26,-17,876,-3,-5,-3
1279,-12,1,907,-1,-5,-3
1280,2,-16,974,3,3,-5
1281,32,13,1106,-1,-1,-1
1282,3,-3,984,-1,1,1
1283,-8,-11,989,-5,-7,3
1284,-24,-7,982,1,5,-1
1285,-27,-9,1004,-1,-1,-5
1286,-20,2,1005,1,5,-1
1287,0,2,1011,-3,-8,-1
1288,10,2,987,-1,-1,-1
1289,10,6,989,1,1,-5
1290,8,-4,1007,-1,-3,-3
1291,-16,-8,1009,1,3,-5
1292,-21,-1,1010,-1,-3,1
1293,-20,-5,1006,1,1,-1
1294,-2,2,1009,1,1,1
1295,5,-5,1035,-3,-5,-3
1296,9,-10,1025,1,7,-1
1297,22,2,1001,-1,-3,-1
1298,0,-10,980,1,1,-1
1299,-12,0,994,1,1,1
1300,-29,4,1025,1,1,-5
1301,-33,12,1015,-1,-3,-1
1302,-10,-5,1017,-3,-1,-1
1303,1,-5,974,-3,-5,-3
1304,16,-4,1006,-1,-3,-1
1305,12,-8,1000,-1,3,1
1306,-8,1,1008,-1,-1,1
1307,-14,5,983,1,5,3
1308,-20,2,1004,-5,-1,1
1309,-6,4,1001,1,-1,-1
1310,-7,-10,990,-1,-3,1
1311,10,-6,1001,1,1,1
1312,0,-6,1008,-3,-3,-1
1313,-9,-6,1000,-1,-5,3
1314,-17,-17,1186,1,-7,3
1315,-19,10,1041,-1,3,-3
1316,-11,5,955,-3,3,-1
1317,0,5,956,-1,-3,-1
1318,-4,-5,991,-1,-1,1
1319,2,-17,1050,-3,-5,1
1320,-6,3,985,1,7,-5
1321,-24,2,1042,-3,-7,-3
1322,-36,11,967,3,7,1
1323,-3,3,1012,-1,-5,7
1324,10,-3,1001,-1,-3,-1
1325,11,-3,1007,-1,-7,-3
1326,-4,-5,997,-1,-1,-5
1327,-12,-8,994,1,1,1
1328,-19,-4,1020,-1,-7,1
1329,-18,2,996,-3,-1,-1
1330,-10,0,1010,-1,-3,-3
1331,6,-1,1004,-1,-1,-3
1332,6,2,998,1,-1,1
1333,1,-7,999,3,1,3
1334,-12,-10,1012,-3,-3,-5
1335,-8,5,993,-1,-1,-3
1336,-20,7,985,-3,-5,-3
1337,-8,11,999,-1,-1,-3
1338,-24,1,1012,-1,-8,1
1339,22,-11,1029,-3,-8,-3
1340,-2,-14,1047,1,5,1
1341,7,1,964,-1,1,-3
1342,-30,4,1011,-3,-3,1
1343,-9,14,1016,-1,-3,1
1344,-20,-5,1010,1,5,5
1345,-7,-6,1024,-1,-3,-1
1346,5,-3,1005,1,3,-9
1347,19,-13,995,-1,-1,1
1348,18,-38,1213,3,-5,3
1349,-24,8,986,1,1,-1
1350,-49,15,888,-1,-1,3
1351,-18,-7,1032,-1,-8,1
1352,-7,-7,962,-1,-1,-3
1353,15,-21,1100,1,-5,-3
1354,6,-23,995,-1,3,1
1355,5,-7,1028,-1,-7,1
1356,-20,8,962,-1,-1,3
1357,-21,7,1017,1,1,3
1358,-19,16,1012,1,5,-3
1359,-4,-2,996,-1,-1,-5
1360,3,-13,1012,-1,-1,1
1361,10,-20,999,-1,-1,1
1362,8,-6,1010,-1,-3,1
1363,-4,6,990,-3,-1,-1
1364,-18,11,1019,-1,-1,5
1365,-16,6,998,-1,-1,3
1366,-12,5,1012,-1,-7,-1
1367,2,-6,985,-1,-1,-3
1368,9,-2,1099,-7,-8,-1
1369,-9,-15,1020,1,1,-1
1370,-12,-34,954,-1,-1,5
1371,-15,-7,1010,-1,-3,-3
1372,-19,22,1004,3,5,-3
1373,-9,26,1045,-1,-7,1
1374,-12,2,995,1,5,3
1375,-10,-22,1020,-3,-5,-1
1376,-9,-25,986,5,3,-5
1377,1,-7,998,-1,-1,-5
1378,-6,8,999,-1,3,-1
1379,-6,-5,1008,-3,-5,7
1380,-6,4,1001,-1,-3,1
1381,-16,11,1001,-1,-1,-3
1382,-20,3,1027,1,-1,-3
1383,-1,-1,994,1,1,-1
1384,-4,-17,1010,-1,-3,1
1385,2,-17,1002,1,1,3
1386,5,7,1004,-1,-5,-1
1387,-8,8,992,1,1,-1
1388,-15,14,935,-1,-3,-1
1389,-12,-8,1053,3,1,1
1390,-25,5,1047,1,9,-1
1391,-12,11,1022,-1,-7,-5
1392,14,2,984,1,1,1
1393,1,-15,992,-3,-3,-1
1394,4,-18,991,-3,-3,-3
1395,-9,-3,991,-1,3,-3
1396,-24,12,1041,-3,-7,-1
1397,-19,13,991,1,3,-3
1398,0,2,1007,-3,-9,-1
1399,5,-8,975,-1,1,-5
1400,13,-16,1015,-3,-9,-5
1401,-1,-7,1004,1,3,-3
1402,-13,-13,996,-3,-1,1
1403,-23,-5,1001,1,3,3
1404,-3,11,1116,-11,-9,-1
1405,-10,2,920,1,-1,-7
1406,-15,-11,931,1,19,-3
1407,32,-4,1104,-1,-24,-1
1408,6,12,921,3,19,1
1409,13,6,1083,-3,-18,3
1410,-24,5,940,1,13,-1
1411,-21,2,1003,-1,-10,-3
1412,-17,-13,985,7,9,-5
1413,2,-4,1026,-1,-9,-1
1414,15,-8,1027,-1,-1,1
1415,10,-2,978,1,3,1
1416,0,-5,1038,-3,-7,-1
1417,-19,11,982,3,7,-1
1418,-17,-2,1044,-1,-3,1
1419,-20,4,974,1,3,-1
1420,4,-7,1025,-3,-7,-1
1421,-11,-8,813,1,3,-5
1422,0,-6,1070,-1,-5,1
1423,-4,14,1055,-1,15,-1
1424,27,0,1053,-1,-16,1
1425,4,-5,984,1,9,1
1426,-12,-16,962,-1,-1,1
1427,-21,4,991,-1,-3,-1
1428,-33,12,994,1,3,1
1429,-18,5,1047,-1,-7,5
1430,-2,3,969,1,3,-3
1431,15,-11,1013,-1,-5,-3
1432,15,-8,980,1,5,-3
1433,-4,-9,1032,-1,-7,-1
1434,-26,-4,991,1,3,-1
1435,-24,-7,999,-3,-3,3
1436,-12,0,996,-1,-3,1
1437,2,3,999,-1,-1,-1
1438,22,-3,1020,-3,-3,1
1439,4,-5,992,-1,-1,-1
1440,-10,-10,1021,-1,-5,5
1441,-11,-15,999,-3,1,1
1442,-22,-10,935,-1,-7,-3
1443,-25,3,1020,-7,-1,-3
1444,-12,-11,989,3,3,1
1445,14,-5,1007,1,1,-3
1446,27,4,1012,-1,-1,-3
1447,0,8,980,-3,-1,-1
1448,-11,-2,1006,-1,-1,1
1449,-33,5,991,1,1,1
1450,-20,-12,1002,-1,-5,-3
1451,-12,-11,1007,-1,-1,-5
1452,9,8,1008,-1,-3,-5
1453,14,6,995,-1,-1,3
1454,16,0,1004,-5,-3,3
1455,-16,-8,1007,-1,-1,3
1456,-18,-5,1007,-1,1,-3
1457,-22,-5,996,-1,-1,-3
1458,-11,4,1005,3,3,-1
1459,10,-19,994,1,-1,1
1460,11,-5,942,3,-1,1
1461,-3,-4,959,-3,-5,-5
1462,-34,22,875,1,15,-5
1463,9,16,1122,-1,-16,1
1464,-13,-17,978,1,15,7
1465,15,-32,1039,-1,-10,1
1466,-10,-5,971,1,13,-7
1467,-6,4,991,-1,-3,-3
1468,-12,4,998,1,1,1
1469,-10,6,996,-3,-1,7
1470,-4,-14,1016,1,1,-3
1471,-9,1,973,1,3,-9
1472,-1,-4,1031,-1,-5,-5
1473,-11,-15,979,1,3,3
1474,-9,-21,1031,-3,-9,3
1475,-8,0,973,1,5,1
1476,-10,15,1001,-1,-7,-5
1477,-4,20,1001,1,3,-7
1478,6,0,1170,-9,-18,-1
1479,0,-13,1009,1,1,1
1480,-2,-42,912,3,11,-1
1481,5,-23,1047,-1,-8,-7
1482,-10,23,990,3,7,-5
1483,-11,23,1054,-1,-7,1
1484,-19,-2,994,1,7,9
1485,-21,-19,1002,-1,-5,3
1486,-16,-11,972,1,1,-9
1487,4,4,1004,-1,-5,-9
1488,9,1,1008,-1,-7,-3
1489,2,-2,1014,1,1,7
1490,-7,-6,1004,-3,-3,7
1491,-16,0,977,1,1,-3
1492,-21,13,1013,-1,-3,-5
1493,-15,-3,1016,1,3,-3
1494,7,-38,893,-1,-7,3
1495,14,-26,922,-3,-5,-1
1496,-14,16,927,1,11,-3
1497,6,49,1108,-1,-14,-1
1498,-18,32,993,1,11,3
1499,1,-18,1027,-3,-12,5
1500,-7,-36,959,1,11,-7
1501,10,-26,989,-1,-3,-7
1502,-2,10,1006,-1,-1,-1
1503,1,11,1008,-3,-3,7
1504,-9,14,993,-1,-3,7
1505,-17,8,975,-1,-1,-3
1506,-19,6,1025,-1,-3,-9
1507,-8,-4,977,-1,5,-3
1508,3,-9,996,-1,-7,5
1509,-12,-29,1030,-3,-12,7
1510,14,-13,1073,1,5,5
1511,-16,21,1043,1,-3,-5
1512,-14,20,943,-1,5,-11
1513,-22,5,1029,-3,-3,-1
1514,-8,-10,996,3,1,5
1515,2,-16,1018,-1,-5,3
1516,4,-12,1037,-1,-3,-9
1517,5,3,987,3,3,-7
1518,-7,7,1016,1,-1,3
1519,-24,0,991,-1,1,1
1520,-16,-12,1009,-1,-1,3
1521,-15,-11,990,-1,-3,-3
1522,0,-3,1007,-1,-5,-9
1523,10,0,988,3,1,1
1524,8,-19,1120,3,-8,3
1525,0,1,1052,1,9,5
1526,-32,34,1039,-5,-3,-3
1527,-37,23,958,-3,3,1
1528,-18,-23,977,1,1,1
1529,9,-38,1028,-1,-5,-1
1530,18,-28,1001,-1,5,-3
1531,21,-6,1054,-1,-5,-7
1532,-17,10,963,-1,9,-1
1533,-14,25,1024,-1,-7,3
1534,-25,14,993,1,7,1
1535,-15,-4,1014,-1,-5,-5
1536,-7,-12,1006,-3,-1,-3
1537,6,-17,1000,1,3,-1
1538,11,-21,1006,-1,-1,5
1539,4,-10,1009,-3,-1,5
1540,-19,14,1008,-1,-5,-1
1541,-15,23,966,-1,1,3
1542,-6,35,1104,-7,-18,1
1543,0,-19,1039,-1,5,-3
1544,-3,-52,999,-1,-1,1
1545,-6,-51,1005,1,3,-5
1546,-3,26,1046,-1,-3,5
1547,1,-4,987,1,5,-7
1548,-9,31,991,1,5,7
1549,-9,-9,975,3,5,-7
1550,0,6,1047,-3,-7,1
1551,-8,-25,1014,-1,-5,-9
1552,-5,-21,995,1,5,-1
1553,-4,-17,1003,-7,-3,7
1554,-3,-2,991,1,5,3
1555,11,32,832,3,5,-1
1556,-9,27,949,-1,-5,-1
1557,-43,16,938,3,11,-1
1558,-18,-7,1101,1,-14,-3
1559,-4,-31,1020,1,13,-1
1560,13,-36,1065,-1,-7,-5
1561,20,-7,956,1,7,-5
1562,6,14,1000,-3,-7,3
1563,3,29,989,1,5,3
1564,-23,5,998,1,1,1
1565,-18,-17,1006,-1,-3,-3
1566,-16,-15,974,1,5,-5
1567,2,-21,1024,-1,-8,-3
1568,13,-5,983,1,1,3
1569,21,7,1024,-1,-3,5
1570,0,13,979,3,1,3
1571,-19,17,999,-1,-5,-1
1572,-27,9,1011,-1,1,-1
1573,-20,-4,999,-1,-1,-1
1574,-1,-34,997,-1,-3,5
1575,15,-20,996,-1,-1,-3
1576,9,-9,994,-1,-5,-5
1577,-11,11,1039,-1,-1,-1
1578,-26,30,984,1,-1,-1
1579,0,18,1012,-3,-1,-3
1580,-7,-16,1002,3,1,1
1581,-15,-33,988,1,1,-1
1582,-11,-29,1029,3,-5,-5
1583,-3,-9,988,1,1,1
1584,7,10,1019,-3,-5,5
1585,5,26,985,-1,3,3
1586,-4,8,1028,-1,-5,-1
1587,-16,3,995,1,1,-1
1588,-21,-16,1011,1,1,-5
1589,-11,-29,1004,1,1,1
1590,-10,-14,998,-1,-3,1
1591,1,22,993,-3,-1,1
1592,7,1,996,-1,-1,1
1593,-2,20,1008,-1,-3,1
1594,-12,1,998,1,5,-1
1595,-12,-15,999,1,1,-3
1596,3,-29,998,3,3,-5
1597,-4,-18,1008,-1,1,-5
1598,-6,-3,995,-1,-1,-1
1599,6,17,999,-1,-5,3
1600,-4,5,1004,-1,-1,-1
1601,-14,1,1013,-3,-3,1
1602,-3,-17,982,-1,-1,-3
1603,-9,-19,1011,-1,-8,-3
1604,-2,-11,1023,-1,3,1
1605,-1,-6,1062,-3,-3,3
1606,4,11,975,1,5,3
1607,-15,21,1000,1,3,1
1608,-31,6,1003,-5,-1,-3
1609,-29,4,1001,-1,-5,-1
1610,3,-21,1046,-1,-7,-1
1611,19,-24,1010,1,3,-3
1612,15,-8,1008,-1,-3,-5
1613,0,1,990,1,7,-1
1614,-20,12,1011,-1,-3,3
1615,-24,5,993,1,3,7
1616,-20,2,1027,-3,-5,-3
1617,-10,-11,1005,1,1,-5
1618,9,-4,1000,-1,-3,-7
1619,5,-11,1014,1,-3,3
1620,3,-10,989,-1,-1,5
1621,-39,-7,783,-3,-3,-3
1622,-25,0,943,1,1,-3
1623,-36,18,1008,1,1,-5
1624,-11,27,1050,-1,-1,-5
1625,23,6,1043,-1,-3,3
1626,26,-21,992,-1,-3,1
1627,2,-19,980,1,1,-5
1628,-20,2,987,1,5,-3
1629,-39,10,1020,-1,-1,1
1630,-31,12,1009,-3,-1,5
1631,-2,1,995,-1,-3,3
1632,19,-11,986,-1,-1,-5
1633,18,-8,1013,1,-1,-7
1634,15,-14,791,-1,-1,-3
1635,-26,-3,1024,-1,-3,3
1636,-34,-26,975,-1,-3,5
1637,-54,3,1028,-1,-5,-1
1638,2,17,988,3,3,-9
1639,3,14,991,-1,-3,-3
1640,40,-6,969,1,-1,-1
1641,21,-30,986,-1,-3,-3
1642,-2,-29,1012,-1,-1,-1
1643,-35,2,986,-1,-1,-3
1644,-40,13,1006,-1,-3,1
1645,-29,4,1003,-3,-1,1
1646,3,-2,1003,1,1,1
1647,17,-8,1004,1,1,-5
1648,19,-3,1008,1,1,-9
1649,-9,-7,982,-3,-1,-1
1650,-13,-15,1105,-1,-10,3
1651,-21,-3,1046,-3,-1,3
1652,-24,16,958,-3,3,-3
1653,-1,2,966,-3,-3,-9
1654,23,10,983,1,3,-1
1655,19,-12,1025,-1,-1,-1
1656,-12,-18,1003,1,3,-1
1657,-19,-1,1016,-1,-3,-3
1658,-43,7,950,1,3,-3
1659,-18,-3,1011,-1,-5,-5
1660,-1,8,1003,3,1,-3
1661,13,23,1019,-1,-3,-7
1662,4,6,994,-1,-1,-3
1663,-8,-9,1005,1,1,-1
1664,-17,-14,992,-1,-5,-3
1665,-29,-4,998,1,3,-3
1666,-6,2,1023,-1,-3,-3
1667,5,9,993,1,1,-5
1668,14,10,1002,-1,-3,-1
1669,13,0,1004,1,1,1
1670,-4,-6,1004,-3,-1,-5
1671,-18,-3,1000,1,1,-5
1672,-17,4,1001,1,-1,-3
1673,-19,-8,1001,-1,-3,-1
1674,-9,-7,1010,-5,-1,3
1675,10,4,999,-3,-1,-5
1676,12,1,1008,-1,-1,-7
1677,-6,0,1005,-1,-3,-1
1678,-11,0,1011,1,3,-1
1679,-19,-13,997,1,1,-3
1680,-11,-8,1007,-1,-1,-5
1681,64,3,1186,-3,7,-7
1682,-43,-5,896,1,5,-3
1683,17,-19,922,1,3,-5
1684,-19,14,1038,7,3,-3
1685,-37,16,1055,-1,-3,1
1686,-16,-7,1012,-3,-5,3
1687,4,-22,974,-1,1,-3
1688,19,-19,966,-3,-7,-11
1689,14,-6,991,1,1,-9
1690,2,6,1021,1,-1,-3
1691,-25,1,1012,1,3,7
1692,-26,-6,982,-3,-3,-1
1693,-18,2,987,3,1,-7
1694,-4,2,1001,-1,-3,-9
1695,12,-3,1019,-1,-1,-5
1696,13,-16,997,1,1,-1
1697,-4,-10,1000,-1,-3,-1
1698,-44,10,1043,-1,-18,-7
1699,-30,16,1030,-1,-8,-7
1700,-19,16,1057,-3,1,-3
1701,25,-4,976,-1,3,1
1702,18,-27,980,1,7,-1
1703,11,-24,1016,1,1,-5
1704,-20,4,1005,1,1,-5
1705,-45,5,1030,-1,-1,-3
1706,-45,6,986,1,1,-1
1707,-16,-1,1000,-1,-5,1
1708,7,-9,997,1,1,-7
1709,22,-3,1017,-1,-3,-11
1710,19,-9,992,1,1,-3
1711,-13,-5,993,-1,-3,1
1712,-26,-11,1003,-1,-3,3
1713,-32,3,997,1,1,-3
1714,-10,3,1004,-3,-7,-9
1715,9,8,986,-1,-1,-7
1716,11,1,918,-1,-3,-3
1717,28,-25,1035,-1,-1,-3
1718,7,13,1015,-3,-10,-1
1719,-38,8,948,-3,-1,-1
1720,-24,6,1000,-1,-1,-1
1721,-16,-6,994,-1,-3,-1
1722,-10,-6,1004,3,3,-3
1723,7,-21,1028,-1,-3,-7
1724,-4,-5,989,-3,-1,-3
1725,0,-7,994,-1,-5,-1
1726,-12,-2,992,1,3,3
1727,-15,3,1020,-1,-5,-3
1728,-17,3,1002,-1,-1,-5
1729,-2,-3,1004,-1,-3,-5
1730,0,0,1006,-1,-5,-1
1731,4,-8,1005,-1,-1,3
1732,5,-12,1000,-3,-1,-1
1733,-6,6,996,-1,-3,-3
1734,-8,20,818,-1,-8,-1
1735,-36,0,886,-1,1,-3
1736,-28,-8,914,1,9,-1
1737,-2,4,1081,-1,-8,-7
1738,23,-6,1032,1,5,-5
1739,16,4,1034,1,-7,1
1740,-6,-2,994,-1,7,-1
1741,-18,6,966,3,3,1
1742,-21,7,986,-1,-3,-3
1743,-16,-5,1003,-5,1,-7
1744,0,3,1026,-1,-5,-7
1745,8,0,974,1,1,-5
1746,14,-2,1003,-1,-7,1
1747,-8,0,987,-1,1,-1
1748,-9,10,1020,1,-3,-3
1749,-29,5,998,1,1,-3
1750,-18,3,1016,-1,-3,-3
1751,-11,-10,998,1,1,-3
1752,9,-12,996,1,1,-7
1753,21,0,1006,-3,-5,-5
1754,0,4,984,1,1,-5
1755,28,-33,818,1,-26,-1
1756,-19,18,1121,-1,-3,-3
1757,-2,-8,1025,-1,-18,-7
1758,0,-1,897,-1,7,-3
1759,19,-12,978,-5,-8,1
1760,-13,-13,958,1,3,1
1761,-29,-19,1020,1,1,-3
1762,-32,-2,1038,1,-1,-3
1763,-6,6,996,-1,1,-5
1764,6,1,987,-1,-3,-3
1765,13,3,968,1,1,1
1766,8,-11,1022,-1,-3,-3
1767,-11,-7,1004,-1,3,-1
1768,-21,-2,1019,-1,-5,-1
1769,-31,-2,1006,1,1,1
1770,-5,1,999,-1,-1,1
1771,4,3,1003,1,1,-1
1772,14,4,986,1,3,-3
1773,14,2,990,1,1,-5
1774,-24,11,1129,1,7,-5
1775,-37,-9,966,1,3,-1
1776,-29,7,909,1,3,1
1777,8,-6,1067,-3,-5,-5
1778,6,9,994,-5,-1,-5
1779,11,1,1039,-1,-3,-3
1780,-9,-5,982,-3,3,-1
1781,-7,-19,992,1,-1,-3
1782,8,-33,1128,3,-9,-3
1783,-51,20,1000,1,5,-3
1784,-56,11,1007,-1,-7,3
1785,-23,12,959,1,3,3
1786,14,-12,998,-3,-5,-5
1787,45,-21,1021,3,1,-9
1788,24,-22,1000,1,1,-7
1789,-8,-11,1028,-1,-5,3
1790,-40,-2,978,-1,1,5
1791,-53,19,1027,-1,-3,-1
1792,-27,12,1009,1,5,-7
1793,7,7,1026,-3,-7,-9
1794,25,-7,998,1,1,-5
1795,27,-17,999,-1,-5,3
1796,-1,-19,1015,-5,-1,1
1797,-34,0,1009,-1,-1,-1
1798,-54,32,1131,-7,-1,-5
1799,-44,31,1032,1,9,-1
1800,14,20,924,-1,-7,-3
1801,13,-41,1003,1,1,-3
1802,35,-16,1010,-3,-1,-9
1803,-9,-5,1034,-1,-3,-9
1804,-45,-9,997,1,1,5
1805,-33,-3,1021,-1,-3,1
1806,-26,6,995,3,5,-1
1807,8,4,1023,3,1,-7
1808,35,4,1002,1,1,-11
1809,21,-10,1016,-1,-5,-1
1810,0,-21,1003,1,7,3
1811,-37,-15,1003,-1,3,1
1812,-50,3,1002,-5,3,-5
1813,-22,17,1001,-1,-1,-5
1814,8,10,1007,1,3,-3
1815,24,-8,1005,-3,-1,-3
1816,22,-19,998,-5,-3,-3
1817,4,-15,990,-1,1,-3
1818,-6,-18,1008,5,3,-3
1819,-34,19,985,-1,-7,-1
1820,-42,28,1036,1,-1,-3
1821,-14,29,1035,-7,-10,-3
1822,2,-2,954,1,5,-3
1823,40,-27,998,-3,-9,-9
1824,32,-34,974,1,1,-9
1825,13,-12,1030,1,-1,-1
1826,-34,4,1000,1,3,5
1827,-53,20,989,-1,3,5
1828,-29,21,1009,-1,-1,-5
1829,-4,13,986,-1,3,-7
1830,31,-13,1014,-3,-7,-9
1831,34,-32,985,1,9,-3
1832,15,-24,991,-3,-1,1
1833,-19,-8,975,-5,-7,-1
1834,-37,17,1034,1,1,-5
1835,-30,24,1057,-1,-5,-1
1836,5,10,965,1,1,-3
1837,14,-3,1004,-3,-3,-5
1838,18,-27,992,-1,-5,-3
1839,7,-27,1022,1,1,-5
1840,-7,-12,1020,1,5,-1
1841,-27,-2,1002,1,3,-1
1842,-27,16,1006,-1,-3,-1
1843,0,12,987,-1,-3,-3
1844,18,-4,1016,-1,-3,-5
1845,21,-5,993,1,5,-7
1846,3,-19,1009,-1,-1,-3
1847,20,-36,1168,3,3,1
1848,-18,-2,988,-1,7,1
1849,-60,20,894,-3,5,-3
1850,-28,23,1025,-1,-3,-1
1851,-3,7,970,1,3,-3
1852,22,-21,1066,1,-7,-1
1853,31,-31,1001,-1,-1,-3
1854,12,-21,1004,-1,-3,-3
1855,-17,-2,982,1,3,-1
1856,-36,2,1021,3,1,7
1857,-28,12,1007,-1,-1,-1
1858,-7,13,1004,1,1,-5
1859,13,3,992,-1,-1,-9
1860,16,-14,984,1,1,-5
1861,1,-15,1084,-3,-14,-1
1862,-24,-10,1016,1,7,3
1863,-9,0,1011,-3,-7,1
1864,-26,8,951,1,5,-5
1865,-11,8,1013,-3,-3,-9
1866,-3,6,1022,-3,-1,-5
1867,-6,-7,1021,-3,-3,-3
1868,-6,-23,1028,-1,-1,-1
1869,-17,-14,988,-5,-1,-3
1870,-13,5,1005,-1,-7,-9
1871,3,16,998,3,3,-3
1872,2,7,1027,-1,-1,-3
1873,-4,-3,986,-1,-1,-1
1874,-3,-6,1006,-3,-3,-9
1875,-16,0,1001,1,3,-7
1876,-12,-2,1003,1,1,1
1877,-18,-12,1014,3,1,-1
1878,-10,-3,995,-3,-1,-1
1879,5,3,1004,-1,-1,-7
1880,1,-27,1203,5,5,-7
1881,-3,10,983,-1,3,-9
1882,7,-10,879,-1,5,1
1883,-3,-8,1042,-3,-3,1
1884,-18,-16,1003,1,3,-3
1885,-6,-13,1056,-3,-9,-5
1886,-17,-2,963,1,1,-7
1887,-3,4,1007,-1,-7,-3
1888,-4,-5,980,1,1,-3
1889,-8,-11,1018,-1,-3,-1
1890,-17,5,1014,1,1,-7
1891,-9,-3,996,1,-1,-11
1892,-11,1,1002,1,1,-5
1893,-8,-5,1008,1,1,-5
1894,-4,-12,1019,-1,-3,-1
1895,2,0,980,1,5,-7
1896,-5,6,1016,-1,-5,-5
1897,-10,2,993,1,3,1
1898,-9,2,1006,-1,-1,-1
1899,-4,-14,991,3,1,-1
1900,-7,-3,1008,1,1,-3
1901,-21,8,942,-1,-3,-3
1902,-13,2,1055,-1,-3,-1
1903,2,-11,1020,1,5,-1
1904,7,-3,1003,-3,-5,1
1905,13,-6,987,1,3,-7
1906,-2,9,995,1,1,-5
1907,-17,6,993,-1,-3,-3
1908,-27,-1,999,3,3,1
1909,-20,-12,1005,1,-1,-3
1910,-7,3,1001,-5,-1,-5
1911,4,4,1008,-1,-3,-7
1912,17,4,1006,3,1,-3
1913,-5,-5,1012,-1,-1,-1
1914,-17,-9,1001,1,1,-1
1915,-19,-6,1001,-1,-5,-9
1916,-14,10,1000,-3,-3,-3
1917,-4,5,1011,-1,-5,-3
1918,17,-12,1126,1,-1,1
1919,0,-16,959,1,1,1
1920,9,14,962,1,5,-5
1921,-9,0,1037,-1,-1,-3
1922,-19,-9,974,1,1,-3
1923,-16,-10,1005,-1,-5,-5
1924,-7,1,1010,-1,-3,1
1925,-5,10,1025,-5,-3,-3
1926,5,8,991,-1,-1,-9
1927,6,3,1022,-3,1,-5
1928,-3,-10,998,3,3,1
1929,-17,-8,993,-1,-1,-7
1930,-20,-3,1002,-1,-3,-9
1931,-18,-4,1002,-1,-5,-5
1932,0,11,1002,-1,-7,-5
1933,10,1,994,3,1,-1
1934,2,2,1002,-1,-1,-3
1935,-2,-16,933,-3,-3,-3
1936,-12,9,1057,5,1,-5
1937,-28,-2,1031,1,3,-1
1938,21,-21,1009,-1,-5,1
1939,15,3,1012,1,7,-5
1940,-11,12,985,-1,-7,-5
1941,-7,-6,971,1,3,-5
1942,-16,-13,995,-1,-5,-3
1943,-11,-12,1023,-1,1,-5
1944,-4,-5,1028,-3,-5,-5
1945,-4,4,1019,-1,1,-5
1946,-8,9,981,-5,-1,1
1947,-9,-3,1020,1,1,1
1948,-7,-12,995,1,3,-1
1949,-8,-7,1020,-3,-3,-1
1950,-25,-8,880,1,3,-5
1951,-26,-38,1063,1,-3,-5
1952,7,7,977,1,9,-1
1953,13,8,949,-1,-3,-5
1954,20,-2,994,-1,-3,-5
1955,11,6,996,-3,-1,5
1956,-7,-2,1032,1,1,-7
1957,-41,-13,993,1,1,-3
1958,-39,-15,1011,1,-5,-3
1959,-17,1,969,1,1,-1
1960,9,5,1020,-3,-7,-5
1961,16,9,1014,1,7,1
1962,4,14,1009,1,-1,-5
1963,-18,1,1001,-3,-3,-1
1964,-29,-13,1003,-3,-5,-3
1965,-27,-8,1012,-1,-1,-3
1966,-9,3,1008,-1,-1,-7
1967,8,4,999,-3,-7,-5
1968,15,-2,1000,-3,-3,-5
1969,17,-13,1005,-5,-3,-1
1970,31,-2,983,-1,-3,-1
1971,-20,3,1135,-3,5,-1
1972,-45,-4,993,-1,-7,-7
1973,-30,9,945,1,5,-3
1974,-4,-6,1008,-1,-7,1
1975,13,8,981,-3,-3,-7
1976,30,-6,1023,-1,-3,-5
1977,21,-7,1017,1,1,-3
1978,-6,5,1000,-1,-1,1
1979,-37,-8,989,-1,-1,5
1980,-42,-9,992,1,3,-3
1981,-23,3,1017,1,-3,-1
1982,14,8,990,-1,1,-3
1983,27,14,1008,-1,-7,-5
1984,24,-2,1008,-3,-1,-1
1985,2,-7,1007,-1,-3,-1
1986,-28,-6,990,1,1,-3
1987,-36,-22,924,-1,-3,1
1988,-26,-21,1049,-1,-8,-5
1989,18,10,1170,3,15,-7
1990,10,49,1001,-1,-12,-1
1991,16,27,913,1,11,1
1992,6,-26,987,-1,-5,-1
1993,-46,-10,937,1,7,-5
1994,-57,-4,1007,-1,-5,-7
1995,-40,2,1036,-5,-5,1
1996,-6,7,1009,-1,-3,-5
1997,36,1,934,1,5,-3
1998,41,0,1018,-3,-8,-1
1999,17,-6,1029,1,-7,-7
2000,-27,-1,1069,3,9,-3
2001,-34,-4,988,-1,-8,1
2002,-24,14,981,1,5,-5
2003,8,10,1002,-1,-1,-5
2004,15,5,1002,-1,-1,-3
2005,11,-14,1005,-1,1,-1
2006,-13,-19,1012,-7,-5,-5
2007,-28,-11,1005,1,3,-5
2008,-25,-3,1030,-1,-5,-3
2009,-10,3,981,-1,-1,-3
2010,7,14,1021,-1,-5,1
2011,15,2,992,3,1,1
2012,7,-7,994,-1,-3,-3
2013,2,-8,999,1,-1,-3
2014,-21,-3,989,3,1,-3
2015,-23,-4,1007,-3,1,-3
2016,-11,12,1108,-1,-3,-3
2017,19,-12,911,1,3,-1
2018,-9,5,917,-3,3,-3
2019,-18,15,1057,-3,-7,-3
2020,-30,14,988,1,3,-3
2021,-15,-9,1015,-3,-7,1
2022,0,-18,984,-3,-1,-1
2023,22,-15,999,1,-5,-5
2024,16,4,980,3,5,-5
2025,-11,8,1024,1,1,1
2026,-25,8,1006,1,1,1
2027,-33,13,983,1,1,-5
2028,-20,-9,994,-1,1,-3
2029,-3,-9,1002,-1,-1,-11
2030,11,-14,1020,-1,-3,-3
2031,17,-7,992,-1,-1,-1
2032,-3,3,1007,-1,-3,7
2033,-18,11,994,1,1,1
2034,-25,4,1002,1,1,-5
2035,-18,-4,996,-1,-3,-3
2036,3,-7,1011,-1,-1,-3
2037,14,-11,1013,-1,-1,1
2038,-3,11,1001,-1,-3,-3
2039,17,-7,1005,-3,-1,-1
2040,43,-25,1132,-7,-16,-5
2041,-44,33,1022,-1,5,5
2042,-18,-22,935,1,9,-1
2043,18,-22,1018,-1,-3,-7
2044,23,-4,1001,1,5,-15
2045,-1,10,1052,-1,-5,-3
2046,-28,7,996,-1,9,5
2047,-43,-6,1008,-1,-1,7
2048,-38,-6,980,1,3,-5
2049,-1,0,1004,-1,-1,-9
2050,27,2,1008,1,1,-7
2051,41,-18,986,1,3,5
2052,19,-13,1051,-1,-1,7
2053,5,-54,1007,-3,-5,3
2054,-80,37,1086,1,5,-7
2055,-60,31,1011,-1,-12,-5
2056,-15,1,935,-1,1,-5
2057,40,-27,999,1,-7,-1
2058,56,-30,1014,-1,-3,-3
2059,43,-3,1017,-3,3,-9
2060,-9,13,1014,-3,-3,-3
2061,-59,15,980,3,5,3
2062,-62,9,1009,-3,-5,5
2063,-30,-7,984,-3,-1,-1
2064,19,-22,1039,-1,-7,-7
2065,41,-16,999,-1,-1,-9
2066,38,-13,1005,-1,-1,-1
2067,-11,-12,1001,1,3,1
2068,-49,54,1369,-10,-20,1
2069,-41,52,921,1,3,-5
2070,-35,24,892,1,5,-9
2071,16,-12,1015,-1,-1,-7
2072,5,-16,1033,3,5,1
2073,26,-17,1094,-5,-7,1
2074,-16,-10,989,1,9,-3
2075,-32,3,997,-1,-5,-3
2076,-22,15,956,1,5,-3
2077,-4,6,1015,-1,-7,-5
2078,-7,-6,1014,-1,-1,-1
2079,17,-19,994,-3,-1,-5
2080,6,-18,995,-3,-3,-5
2081,-2,-5,985,-1,-3,-1
2082,-17,-4,1029,-1,-3,-3
2083,-23,10,992,-1,1,-3
2084,-10,7,1005,-1,-5,-1
2085,0,-10,994,1,1,-3
2086,-1,-14,1017,-3,-5,-5
2087,-28,-22,641,3,5,-7
2088,-13,2,979,-3,-5,1
2089,-19,-16,995,1,9,1
2090,-18,33,1105,-1,-8,-3
2091,16,0,1051,3,7,-1
2092,15,-9,977,-3,-8,-3
2093,4,-6,960,1,9,-3
2094,0,-12,973,-1,-3,-7
2095,-6,-4,1016,1,1,3
2096,-15,-4,1002,-1,-5,1
2097,-4,7,1006,-1,-3,-3
2098,-9,2,979,1,3,-7
2099,-3,-4,1005,-1,-1,-5
2100,-3,-11,993,1,1,-1
2101,-3,-16,1023,-1,-7,-7
2102,-6,-11,992,1,1,1
2103,-3,-7,1006,-3,-3,-1
2104,-5,5,994,1,1,-3
2105,-6,0,1006,1,1,-5
2106,-1,2,1013,-1,-3,-3
2107,0,-13,1005,1,1,-5
2108,-10,-3,1005,-1,-1,-3
2109,-6,-2,996,3,3,-3
2110,-9,-6,1116,-5,-7,-3
2111,1,5,927,-1,5,3
2112,-23,-7,917,1,7,-3
2113,-9,-8,1076,3,1,-3
2114,-27,-11,994,-1,-1,-5
2115,-9,-7,1023,-1,-1,-5
2116,-5,0,1008,-1,1,5
2117,10,2,1004,-1,-7,1
2118,5,4,986,-5,-3,-3
2119,-5,14,1012,-3,-5,-9
2120,-13,1,995,-1,-1,-3
2121,-18,-19,1009,-1,-3,3
2122,-9,-18,1005,-1,-3,1
2123,-17,1,995,-3,-5,-7
2124,-1,0,1015,-1,-5,-5
2125,-10,0,758,1,1,-3
2126,-7,7,962,-1,-5,-1
2127,-16,-21,952,1,5,-1
2128,13,-4,1052,-1,-7,-7
2129,-17,9,1042,1,3,-3
2130,1,-9,978,-5,-5,-1
2131,-10,-6,966,1,3,-3
2132,0,-2,988,-1,-5,1
2133,-1,6,994,-1,-1,-3
2134,-7,-6,1020,-3,-1,-3
2135,-15,5,1003,-3,-3,-5
2136,-16,-1,985,1,5,-1
2137,-11,-13,1011,-1,-1,-3
2138,-8,-5,986,1,3,-5
2139,-2,6,1003,-3,-3,-1
2140,7,6,990,-5,-1,-5
2141,-4,-4,1003,-1,-1,-1
2142,-16,-6,990,1,1,-1
2143,-13,14,1045,-5,-3,-3
2144,-10,5,956,3,3,-3
2145,-11,-28,955,-1,5,3
2146,19,-27,1051,-1,-7,-5
2147,2,4,970,-1,1,-9
2148,-8,20,1015,-1,-8,-7
2149,-16,22,995,1,5,7
2150,-16,0,1014,-1,-8,7
2151,-2,-12,992,3,3,-7
2152,9,-8,1016,-3,-5,-13
2153,15,11,997,-1,-1,-9
2154,-3,-12,999,-1,-3,3
2155,-5,-15,1010,-5,-3,9
2156,-13,-3,992,-1,-1,-3
2157,-19,22,1018,-1,-3,-9
2158,-14,22,997,-1,1,-5
2159,-12,-4,1005,-1,-3,-3
2160,-9,-6,1029,1,1,1
2161,4,-6,1012,-1,-1,-1
2162,-3,2,966,-3,-3,-3
2163,-15,12,1005,-5,-1,-5
2164,-15,3,1021,1,-3,1
2165,-18,-3,990,-1,3,1
2166,-6,-2,1024,-1,-5,-7
2167,-8,-11,981,1,3,-7
2168,3,0,1019,-1,-3,-1
2169,0,3,1005,-5,-1,-1
2170,-7,0,1000,-3,-3,1
2171,-5,4,990,1,1,-1
2172,-20,-3,984,1,1,-5
2173,-6,10,1004,1,3,1
2174,-12,-6,992,1,1,-1
2175,7,-6,999,-1,-1,-1
2176,6,5,1020,3,1,-5
2177,-7,2,1010,-1,-3,-3
2178,-11,0,1103,-7,-3,1
2179,5,24,915,3,3,-1
2180,-14,-38,952,-3,-5,-1
2181,-25,-42,1049,-1,-5,-1
2182,-12,-1,1010,1,-3,-9
2183,5,18,1029,-1,-1,-5
2184,10,14,987,-5,-1,3
2185,8,-4,998,-3,-3,7
2186,-1,-9,983,3,7,-5
2187,-20,-11,1016,-1,-5,-7
2188,-20,-13,1012,1,1,-3
2189,-16,-11,995,-3,-5,-3
2190,-1,-13,990,-1,-1,5
2191,4,13,1002,1,1,-1
2192,10,15,1007,3,1,-5
2193,-2,12,1005,-1,-1,-7
2194,-15,0,1005,-1,-1,3
2195,-30,-30,995,-1,-3,-1
2196,-11,-24,1100,1,-8,-1
2197,-12,25,1157,3,9,-5
2198,24,20,939,-7,-10,-7
2199,-16,10,904,-3,9,1
2200,-6,-4,1022,1,-1,3
2201,-27,-31,1045,1,5,-3
2202,-33,-2,1021,1,1,-11
2203,-8,-1,1003,1,1,-7
2204,-9,11,959,-3,-3,3
2205,13,4,1012,-1,-5,3
2206,6,5,999,1,1,-3
2207,-1,3,1023,-3,-3,-11
2208,5,1,870,1,1,-11
2209,10,21,994,-1,-1,-3
2210,-29,-20,1064,1,1,3
2211,-60,-36,1032,-1,-5,1
2212,-24,-19,985,1,1,-13
2213,-5,19,971,-1,-5,-5
2214,36,33,999,1,-7,-3
2215,39,4,1011,1,1,7
2216,10,-33,1017,-1,-1,1
2217,-27,-28,1002,1,3,-7
2218,-53,-14,1002,-1,-5,-11
2219,-34,0,1006,-3,-5,-5
2220,-11,2,1002,-1,-5,9
2221,28,6,982,-3,-1,3
2222,33,6,1006,-1,-5,-3
2223,13,11,1010,-1,-5,-15
2224,-16,1,994,-1,-1,-5
2225,-43,-17,1004,-1,-1,1
2226,-33,-18,999,-3,-3,5
2227,-12,-5,1005,-1,-5,-3
2228,15,23,993,1,1,-9
2229,27,25,999,-3,-5,-3
2230,15,1,999,-1,-1,1
2231,-20,-23,991,1,1,1
2232,-34,-29,987,-1,-7,-5
2233,-43,-16,1157,3,5,-11
2234,-27,68,1012,-1,-5,-7
2235,31,24,924,1,5,5
2236,35,-8,1004,-1,-3,9
2237,9,-24,958,1,1,-3
2238,-24,-26,1020,-1,-1,-13
2239,-51,8,1016,1,1,-11
2240,-35,5,996,-1,-3,7
2241,-6,0,997,-1,-3,3
2242,18,-9,996,1,-1,1
2243,36,6,1020,1,1,-7
2244,17,20,1016,-1,5,-9
2245,-20,-4,1000,1,1,-3
2246,-53,-24,988,-1,1,7
2247,-37,-16,1005,-3,-1,3
2248,-12,-3,1004,-3,-5,-7
2249,15,27,1027,-1,-3,-11
2250,32,19,1010,1,1,-1
2251,13,-9,999,1,1,7
2252,-11,-22,994,1,1,5
2253,-45,-13,993,1,1,-3
2254,-35,2,1017,-1,-3,-9
2255,-18,12,988,1,3,-1
2256,-2,6,1027,-3,-8,7
2257,21,-8,1030,-1,1,5
2258,29,0,1018,-1,-5,-9
2259,14,4,978,1,1,-13
2260,-11,10,1025,-1,-1,-5
2261,-26,3,1018,-1,-3,5
2262,-26,-20,1023,1,3,7
2263,-16,-12,1017,-1,-3,-5
2264,-16,5,995,1,3,-7
2265,9,21,1020,-1,-7,-5
2266,16,-5,985,-1,-1,3
2267,5,-17,1001,-1,-3,3
2268,-11,-13,998,1,3,-5
2269,-25,3,1015,3,-1,-9
2270,-26,15,988,1,1,-3
2271,-17,-2,999,-3,-1,-1
2272,5,-13,1006,-1,-5,-1
2273,25,-12,1003,3,-3,-7
2274,16,-1,1108,3,5,-7
2275,-22,0,1015,-1,-3,-5
2276,-39,17,943,-3,5,-3
2277,-20,-17,997,-5,-1,1
2278,-11,-5,1003,1,1,-1
2279,17,-7,1032,1,-3,-3
2280,22,-8,1017,-1,-1,-5
2281,6,-6,1000,-1,-5,-5
2282,-7,-12,986,1,3,-1
2283,-23,-12,999,1,1,1
2284,-16,3,1016,-3,-1,-5
2285,-3,3,1002,-3,-1,-5
2286,7,2,1011,-3,-5,-3
2287,16,-6,1004,1,1,-5
2288,6,-19,999,-3,-1,-3
2289,-7,-2,1007,-1,-1,-3
2290,-25,8,1002,-1,3,-3
2291,-24,12,995,-1,-3,-1
2292,-9,3,1000,-1,-1,-3
2293,0,1,1007,-1,-1,-5
2294,13,-3,1012,-3,-1,-3
2295,-2,-5,998,-1,1,-7
2296,1,-3,1005,-1,1,-5
2297,-7,-8,976,3,1,-3
2298,-15,-11,1072,-1,-1,1
2299,2,-8,995,1,7,3
2300,-10,-2,990,-3,-7,-7
2301,-24,7,996,-1,1,-5
2302,-21,-4,1010,-1,-7,-1
2303,-4,-21,1003,-1,-3,1
2304,14,-6,1007,1,1,-3
2305,13,-6,1010,-1,-3,-3
2306,-7,-3,976,-3,-1,-3
2307,-15,7,1009,-1,-1,5
2308,-18,0,1000,-1,1,-1
2309,-18,-8,1013,-3,-5,-5
2310,-9,-3,994,-3,-3,-9
2311,14,2,1008,-1,-5,-3
2312,16,-10,1001,-1,-1,-1
2313,-2,-1,1006,1,1,-1
2314,-13,-4,1008,1,1,-1
2315,-27,5,1008,-1,1,-5
2316,-20,5,1005,-1,-5,-1
2317,-45,13,767,1,1,-3
2318,0,-36,1038,-1,-5,-1
2319,22,-13,926,1,5,-5
2320,8,-6,1048,1,-3,-7
2321,-6,0,1011,5,3,-7
2322,-18,-10,979,-1,-5,-5
2323,-24,1,990,-1,3,-3
2324,-21,-5,990,-3,-5,-1
2325,-3,-9,1000,-1,-1,-9
2326,5,2,1006,-3,-3,-5
2327,8,-6,995,-1,-1,-3
2328,8,-3,995,1,3,-1
2329,-18,5,1012,-1,-5,3
2330,-23,-7,986,1,1,1
2331,-15,-2,1020,-1,-5,-5
2332,-9,10,977,-1,-1,-1
2333,-9,3,1095,-3,-1,-3
2334,-12,-17,980,3,5,-1
2335,-29,-2,888,1,3,-5
2336,8,3,1037,-3,-1,1
2337,-11,-2,1008,1,1,1
2338,-6,-11,1025,-3,-1,-1
2339,-10,-9,987,-3,-1,-5
2340,-2,-4,997,1,-1,-1
2341,3,0,992,-1,-1,1
2342,6,-1,1025,-1,-3,-3
2343,-3,-4,1010,1,1,-3
2344,-14,-3,998,1,1,-3
2345,-13,-6,999,-1,-1,-5
2346,-6,-9,996,1,1,-5
2347,-15,-6,1006,1,-1,1
2348,9,-2,1004,3,3,-3
2349,0,1,1017,-3,-3,-1
2350,1,-3,994,1,5,-3
2351,-6,-2,985,1,1,-1
2352,-6,-3,1099,-1,-3,-1
2353,-10,0,933,-1,3,-3
2354,-6,6,965,-1,5,-3
2355,-12,-8,1014,-1,-1,-1
2356,-14,-12,995,3,3,-1
2357,8,-5,1032,-1,-7,1
2358,-2,2,999,1,3,-3
2359,4,-6,990,-1,-1,-5
2360,-2,0,994,1,1,-3
2361,-13,0,998,-3,-1,-5
2362,-27,10,1007,1,3,-5
2363,-9,-5,1022,-1,-5,1
2364,-5,6,994,1,1,-3
2365,-6,-2,998,3,1,1
2366,2,-4,994,-3,-1,-1
2367,-3,-9,1000,-1,-1,-5
2368,-8,-9,993,-1,-5,-1
2369,-13,-5,1003,-3,-3,1
2370,-9,4,1000,-1,-1,1
2371,-7,-4,992,-1,-3,-5
2372,6,-3,991,-1,-3,-7
2373,-6,7,1001,-3,-5,-1
2374,-3,2,1005,-1,-3,-5
2375,-6,-3,1009,-3,-3,-1
2376,-13,-3,1011,-3,-3,-3
2377,-3,-6,1163,-1,-5,-1
2378,-17,3,1003,3,9,-5
2379,4,3,925,-1,3,-3
2380,7,-1,987,-1,-3,3
2381,-16,-3,1022,-1,-3,5
2382,-3,-18,1045,-1,-1,5
2383,-23,-7,1016,-1,1,-3
2384,-30,11,993,-1,1,-5
2385,-16,14,964,-3,-3,7
2386,1,1,1003,-3,-1,1
2387,9,-6,1008,1,3,-1
2388,6,-3,1004,-1,-3,-3
2389,-5,-15,995,-1,1,-1
2390,-16,-4,1001,-3,-3,3
2391,-23,-7,1005,-1,-1,5
2392,-4,-11,1000,-1,-1,1
2393,0,1,1003,-1,-3,1
2394,0,7,998,1,1,-3
2395,4,6,1008,-3,-5,3
2396,-1,-12,998,1,5,5
2397,-21,-10,789,1,3,3
2398,-30,6,1028,-1,-5,-1
2399,1,-8,938,1,3,1
2400,13,-15,1057,1,-6,-1
2401,7,-3,993,1,1,-11
2402,4,6,972,-1,-6,-3
2403,-15,8,985,-5,1,-1
2404,-16,2,984,-5,-3,7
2405,-12,-4,987,-1,-1,1
2406,-2,-10,998,-1,-1,-7
2407,0,-2,1012,-3,-3,-5
2408,5,-5,992,-1,-3,1
2409,2,-13,1001,-1,-3,5
2410,-10,-1,1006,-5,-1,3
2411,-6,4,1012,-1,-1,-5
2412,-18,4,987,1,3,-5
2413,-18,5,1014,1,3,1
2414,-4,10,1110,3,-3,1
2415,-27,-25,892,-3,-6,1
2416,-18,-2,851,3,11,-3
2417,16,17,1060,-1,-6,-5
2418,14,3,1042,-1,-1,3
2419,6,-15,1049,-5,-5,3
2420,-27,-15,986,1,5,-3
2421,-32,-2,996,-3,-1,-5
2422,-14,1,999,-1,1,-3
2423,7,1,1006,-3,-1,3
2424,13,-9,1020,1,1,5
2425,14,-12,990,-3,-3,3
2426,-6,-1,1011,-1,-3,-1
2427,-30,3,1015,-3,3,1
2428,-22,-3,1016,-1,-3,3
2429,-16,-12,1004,-1,-1,5
2430,-6,13,1001,-1,-1,1
2431,19,18,1165,-5,11,-7
2432,7,-21,993,3,1,1
2433,4,-7,948,-3,-3,1
2434,-29,-4,1004,-3,-6,-5
2435,-19,10,992,-1,1,1
2436,-6,16,1053,-3,-8,1
2437,4,16,991,1,5,1
2438,15,-9,1044,-1,-5,-1
2439,-6,-8,962,3,7,-3
2440,-11,-10,1024,-1,-5,-1
2441,-20,-8,988,1,7,3
2442,-12,1,1008,-3,-6,-1
2443,-7,6,997,1,1,1
2444,13,15,994,-5,-5,-1
2445,7,9,1023,-1,-3,-1
2446,-4,-12,992,1,5,1
2447,-4,-10,1006,-1,-5,1
2448,-12,-11,1002,-3,1,3
2449,-39,9,1048,-1,-19,-5
2450,-9,2,1066,1,1,-7
2451,13,30,1061,-6,-1,-3
2452,34,7,959,-5,5,3
2453,-5,-25,1012,-1,-5,-3
2454,28,-22,968,1,5,3
2455,-33,-11,1007,3,5,-3
2456,-49,2,1026,1,1,3
2457,-29,7,984,1,1,3
2458,-2,-5,1015,-1,-5,5
2459,32,-3,1000,-3,-1,-1
2460,26,-4,1011,-1,-3,-3
2461,1,-2,1006,-1,-1,-3
2462,-28,-13,999,1,3,3
2463,-41,-11,1014,-1,-1,5
2464,-35,-4,1011,-1,-1,-1
2465,3,14,1004,-1,-3,-1
2466,19,6,995,3,3,-7
2467,22,18,947,1,-1,1
2468,14,-14,1027,1,-3,5
2469,-22,-35,1058,-1,-7,1
2470,-24,-18,962,-6,-3,-5
2471,-30,19,979,1,1,-7
2472,-12,26,1009,-1,-3,5
2473,23,14,1003,-1,-1,5
2474,22,-16,993,-1,-3,1
2475,11,-12,1005,1,3,-11
2476,-11,-5,995,-1,-1,-11
2477,-27,-6,1013,-1,-5,1
2478,-15,-8,1008,-1,-1,8
2479,-12,-12,1016,-2,-3,6
2480,13,4,1002,-2,-1,-7
2481,16,17,980,-2,-3,-3
2482,16,-27,1206,1,-26,-3
2483,-18,5,1003,0,1,1
2484,-30,-11,909,1,5,5
2485,-26,-12,1018,0,-9,-3
2486,-16,9,959,3,9,-5
2487,22,3,1099,0,-11,-3
2488,3,4,984,1,15,3
2489,-3,-14,1031,-2,-9,5
2490,-24,-14,947,1,11,-1
2491,-18,-4,1014,0,-5,-3
2492,-9,7,1007,0,-1,-1
2493,3,8,1002,0,-5,3
2494,6,3,1012,0,-3,1
2495,0,0,984,1,1,-3
2496,-4,-4,1030,0,-7,-5
2497,-25,3,982,1,3,-1
2498,-21,-7,1028,-2,-7,3
2499,-13,-7,991,-2,1,-1
2500,-3,-9,1002,0,-3,-3
2501,12,-2,997,1,1,-3
2502,-9,5,1006,0,-3,-3
2503,-34,3,1023,-6,-5,1
2504,-21,-14,1029,1,1,1
2505,21,-22,1015,0,-1,-3
2506,17,-13,982,-2,-1,-7
2507,8,23,1004,0,-3,-13
2508,-11,10,1008,0,-3,3
2509,-34,5,1007,0,1,6
2510,-35,-15,1029,-2,-7,1
2511,-21,-12,985,0,-1,-5
2512,20,1,1014,-2,-5,-7
2513,25,10,1017,0,1,1
2514,15,-13,996,0,-3,6
2515,-12,-13,988,0,-1,3
2516,-33,-2,1003,0,-1,-3
2517,-30,12,1009,-2,-1,-7
2518,-18,2,979,-2,-5,-1
2519,4,-14,1024,0,-1,5
2520,23,-12,1002,1,-3,1
2521,38,1,1032,1,-9,-1
2522,0,-1,1078,1,3,-1
2523,-47,2,1079,1,1,1
2524,-53,-2,939,-4,-1,3
2525,-16,-8,975,3,-1,1
2526,24,-4,1016,0,-5,-7
2527,38,6,1009,1,1,-7
2528,20,-2,1020,3,1,-3
2529,-12,1,988,1,1,1
2530,-43,-10,1008,1,3,3
2531,-34,-11,1004,3,-3,-1
2532,-18,1,1007,-2,-1,-5
2533,9,-2,995,0,-3,-1
2534,22,-11,1000,-2,-3,-1
2535,16,-12,1016,0,-5,1
2536,-20,-6,1011,-2,-1,-1
2537,-24,-3,1016,-2,-1,-5
2538,-31,3,994,-2,-1,-1
2539,-15,3,1001,0,-3,1
2540,11,-12,990,1,1,1
2541,9,5,928,1,1,-1
2542,1,13,980,0,-3,-3
2543,1,-8,1077,1,3,3
2544,13,-9,1019,0,-9,-1
2545,4,-7,974,-2,3,-3
2546,-8,10,998,0,-5,-5
2547,-10,15,972,3,3,-1
2548,-17,1,1008,0,-3,3
2549,-20,-17,1016,0,-1,1
2550,-5,-5,1013,0,-1,-3
2551,4,11,1006,5,1,-5
2552,-1,-1,992,1,1,1
2553,-5,2,995,0,1,5
2554,-13,-18,1006,-2,-3,5
2555,-9,0,1005,0,-1,-1
2556,-7,-2,991,1,1,-7
2557,-10,0,998,0,-5,-3
2558,0,3,983,1,1,3
2559,14,-16,967,0,-3,1
2560,3,-18,1032,1,1,-3
2561,-27,23,1060,-2,-5,-3
2562,-23,10,1006,1,1,1
2563,-10,-11,994,-4,-3,6
2564,-2,-24,983,-2,-1,-1
2565,14,-4,989,0,-3,-9
2566,24,-5,1017,1,1,-3
2567,0,5,1011,-2,-1,-3
2568,-16,4,1004,0,-3,6
2569,-23,-10,994,-2,-3,3
2570,-29,-4,1002,1,1,-5
2571,-4,-4,999,1,1,-11
2572,19,-4,1012,0,-5,-1
2573,13,-14,1012,0,-3,1
2574,7,-21,1001,1,1,1
2575,-17,-3,1011,0,-1,-5
2576,-28,8,1010,0,1,-7
2577,-14,8,1011,-2,-5,-5
2578,-10,-9,1002,0,-3,1
2579,7,-21,991,-2,-3,3
2580,-30,-4,735,1,1,1
2581,-16,-24,1060,-2,-3,-3
2582,-24,-3,908,5,15,5
2583,-3,-22,1044,-1,-7,-3
2584,-2,3,1008,1,3,-7
2585,-4,12,1009,-2,-9,-5
2586,-8,11,983,1,1,1
2587,-8,-4,984,-1,-1,3
2588,4,-31,953,-1,-1,-1
2589,9,-15,954,-1,-9,-7
2590,-21,6,1048,3,1,-5
2591,-12,10,1019,1,-5,1
2592,-7,10,995,1,1,3
2593,-4,-11,997,-1,-5,1
2594,8,2,990,-2,-1,-5
2595,11,-1,992,-1,-1,-7
2596,-15,-4,1014,-1,-1,-3
2597,-21,-18,1005,1,1,5
2598,-16,-13,1000,-1,-1,3
2599,-13,9,979,1,1,-3
2600,1,4,1006,-2,-5,-5
2601,1,-2,993,1,1,1
2602,-3,-15,1020,-2,-1,3
2603,-8,-23,999,5,3,3
2604,-6,-3,1005,1,3,-1
2605,-18,10,1007,-1,-3,-1
2606,-9,5,1004,1,1,-3
2607,12,-2,1016,-4,-3,3
2608,-5,0,1064,-8,-11,-1
2609,9,-12,1061,-2,-1,-3
2610,-25,3,922,1,9,-3
2611,-40,-14,1025,1,1,3
2612,-26,-18,1004,-1,-1,5
2613,-1,-10,1036,-4,-5,1
2614,26,16,1017,-1,-3,-5
2615,27,16,1012,-1,-3,-7
2616,-1,2,972,-1,1,-1
2617,-17,-3,989,-4,-3,3
2618,-31,-22,1012,1,7,3
2619,-28,-11,1001,-1,-1,-7
2620,-12,0,1001,1,1,-7
2621,11,11,989,-1,-3,1
2622,27,5,1007,1,-1,3
2623,2,-13,992,1,3,-1
2624,-23,-2,1001,-1,-3,1
2625,-40,-6,1003,-1,1,-3
2626,-26,-8,994,1,3,-1
2627,4,-9,1007,3,1,3
2628,9,-7,998,-1,-1,-3
2629,17,5,994,-2,-1,-3
2630,-9,3,811,1,3,-3
2631,-2,3,1005,-1,-5,-3
2632,-21,14,1061,1,11,-1
2633,21,-16,1096,-1,-15,1
2634,26,-27,998,-1,5,-1
2635,16,6,981,-1,-7,-5
2636,-1,3,944,1,7,-1
2637,-33,9,991,-1,-1,-3
2638,-33,3,1027,-2,-1,3
2639,-3,-3,1020,-1,-1,1
2640,11,-2,1011,-1,-3,-1
2641,17,-4,982,1,5,-3
2642,10,-7,1015,-1,-3,1
2643,-12,-7,990,1,5,3
2644,-19,-5,1021,-1,-1,3
2645,-21,-4,995,1,3,-1
2646,-7,-3,1000,1,-3,-1
2647,3,10,1002,1,1,-5
2648,17,-7,993,-1,-1,-5
2649,10,-21,1003,-1,-5,1
2650,-1,-8,959,3,1,1
2651,-1,21,1051,-2,1,-3
2652,-23,1,985,1,3,1
2653,-28,-14,1018,-1,-3,3
2654,-10,-12,1004,-1,-5,-5
2655,-8,12,991,5,5,1
2656,16,18,1021,-1,-5,3
2657,8,7,990,1,7,3
2658,-2,4,1033,-4,-5,1
2659,-22,-11,984,1,3,-1
2660,-28,-9,1017,1,-7,-5
2661,-12,-11,987,-1,-3,-1
2662,-11,1,1002,3,1,3
2663,18,4,1001,1,3,-1
2664,6,15,998,-1,-1,-5
2665,1,20,1030,-1,-1,-5
2666,-32,3,893,3,5,1
2667,-22,-31,1031,-1,-7,1
2668,-4,-3,1102,3,9,-3
2669,24,-7,1095,-2,-13,-5
2670,43,10,951,-2,7,-1
2671,21,6,983,-1,-5,1
2672,-8,6,987,1,1,-1
2673,-36,-5,1016,1,3,1
2674,-39,-5,1020,-1,-1,-5
2675,-22,1,989,1,1,1
2676,10,-12,1005,-1,-7,-1
2677,21,1,975,3,3,-3
2678,24,0,1011,-1,-3,1
2679,-9,16,1001,-1,1,-1
2680,-46,-14,1116,-3,-5,-1
2681,-35,-9,955,-1,-1,-1
2682,-22,-13,974,1,9,1
2683,24,-6,1034,1,-1,-1
2684,21,-14,964,1,1,-3
2685,15,11,1024,-6,-3,-1
2686,-20,4,984,1,5,1
2687,-37,-9,1007,-1,-3,-1
2688,-29,-7,982,-1,-1,1
2689,-4,-14,1011,-1,-3,-1
2690,20,-12,992,-1,-1,-5
2691,29,2,1003,1,1,-1
2692,11,1,1005,-1,-1,1
2693,-22,-7,995,-1,1,-1
2694,-30,-8,1022,-3,-5,-1
2695,-28,-3,996,-3,-3,-3
2696,-8,-6,1013,-3,-5,-3
2697,13,-3,999,-3,-3,1
2698,18,-13,1008,-1,-1,5
2699,11,9,1110,3,-7,1
2700,-25,8,914,-1,-7,-3
2701,-54,18,856,-1,11,-3
2702,4,-13,1067,-1,-7,-1
2703,0,-10,1028,1,5,3
2704,13,-12,1048,-1,-7,-1
2705,-1,-3,1000,-3,1,-5
2706,-19,-5,984,-1,-1,-1
2707,-17,1,996,-1,1,3
2708,-13,6,991,-3,-7,3
2709,0,-3,1027,1,-1,-1
2710,-1,-6,996,-1,-1,-3
2711,6,-5,1001,-3,-3,-5
2712,-2,-3,1007,1,1,1
2713,-19,-4,1013,1,-3,1
2714,-29,-4,1013,-3,1,-1
2715,-8,-3,1003,-1,-1,-7
2716,0,14,999,1,3,-5
2717,-3,-3,1007,-1,-5,1
2718,-1,-12,1007,1,1,1
2719,-7,-17,999,-1,-3,-3
2720,-18,2,1008,1,-1,1
2721,-11,5,1003,-1,-1,1
2722,-21,1,1000,5,1,1
2723,-10,-3,1010,-1,-1,-1
2724,11,-1,1001,1,1,-3
2725,-1,-8,997,-1,-3,-3
2726,-13,1,1042,-3,-7,-1
2727,-19,-5,1002,1,3,6
2728,3,-3,985,1,1,6
2729,13,-1,999,-1,-3,-3
2730,5,6,1008,3,5,-5
2731,-11,14,1022,-1,-7,-1
2732,-25,-9,996,1,3,1
2733,-22,-19,1016,-1,-1,1
2734,-16,-14,994,1,3,-1
2735,10,2,998,-1,-3,-3
2736,23,20,994,-1,-7,-3
2737,-4,6,1062,3,9,3
2738,-55,7,940,-1,5,1
2739,-33,6,1081,-4,-9,5
2740,-35,-26,995,1,-3,-7
2741,2,-11,1022,-1,-3,-3
2742,41,1,1006,1,5,-1
2743,28,-3,1033,-3,-5,3
2744,5,6,969,1,3,3
2745,-26,12,1018,-1,-5,-5
2746,-45,7,988,-1,-1,-5
2747,-17,5,1035,-1,-3,-3
2748,0,-14,996,1,1,-1
2749,30,-34,995,-3,-11,1
2750,13,-8,933,-1,-5,-3
2751,-17,-3,955,3,9,3
2752,7,1,1066,1,-5,3
2753,-3,-4,963,3,7,-5
2754,-15,4,1032,-3,-7,-7
2755,-23,1,971,1,9,-7
2756,-11,-3,994,-1,-11,3
2757,-2,-19,979,1,5,1
2758,6,-12,1009,-1,-3,-3
2759,-3,3,1005,1,1,-3
2760,-4,8,992,-1,-1,-5
2761,-21,-7,1017,-1,-3,5
2762,-7,-9,993,-1,-3,3
2763,0,-4,1011,-3,-3,-1
2764,-6,-6,992,-1,1,-5
2765,-1,6,1011,-1,-7,-3
2766,0,-2,988,-1,-3,-1
2767,-6,0,1008,-1,-5,1
2768,-11,-11,1003,-1,-3,-1
2769,-13,1,1002,1,1,-1
2770,-1,4,1073,5,-1,-5
2771,-5,-20,900,-1,3,3
2772,-19,-26,914,-3,-1,3
2773,0,11,1073,1,-1,-1
2774,-29,17,1012,1,1,-1
2775,-4,6,1007,-1,-1,-1
2776,-2,-2,985,-4,-3,5
2777,11,-22,999,-3,-5,-3
2778,15,-18,977,1,5,-5
2779,-8,-3,1022,-3,-5,3
2780,-19,4,1017,-1,1,3
2781,-13,2,1005,-5,-5,1
2782,-13,-3,999,1,1,1
2783,5,-7,1003,-1,-3,-7
2784,9,-2,1004,1,1,-5
2785,6,-10,993,3,3,-1
2786,-38,31,808,-1,-3,8
2787,-37,27,1103,3,5,3
2788,-37,14,1144,3,13,-3
2789,7,-20,1012,1,-13,-3
2790,5,12,963,-3,7,-3
2791,-5,8,968,-3,-9,-1
2792,5,-5,955,1,1,3
2793,-1,-16,1019,-1,-1,1
2794,-1,-11,1040,-1,-5,-1
2795,-12,-7,1010,-3,1,-3
2796,-18,1,1014,1,-5,1
2797,-18,-4,986,-1,-1,1
2798,1,1,1026,-1,-6,3
2799,-1,-1,1008,3,1,-1
2800,9,-9,1002,1,1,-5
2801,17,-24,1114,3,-1,-3
2802,-21,10,987,-1,-1,1
2803,-30,19,960,-3,-3,1
2804,-24,-3,1001,-1,-1,-3
2805,0,-11,1003,-5,-4,-5
2806,13,-7,1017,-1,-4,-5
2807,13,-8,998,1,3,-1
2808,5,-11,1018,-3,-3,-3
2809,-23,1,976,-1,1,3
2810,-25,2,999,-3,-1,1
2811,-20,10,1008,-3,-1,-3
2812,-8,-3,1014,-3,-3,-5
2813,12,-13,1000,1,1,-1
2814,1,-26,1004,-3,-1,5
2815,-4,-8,1007,1,1,5
2816,-18,-2,998,1,3,-1
2817,-15,22,1000,-3,-1,-5
2818,-16,11,1006,1,1,1
2819,-5,-3,1003,-1,-6,-1
2820,7,-14,997,-1,-1,-3
2821,14,-13,992,-3,-3,-1
2822,-4,-4,1006,-3,-1,-3
2823,-13,-4,1023,-3,-4,1
2824,-25,10,997,1,3,-3
2825,-14,5,981,1,3,-5
2826,-3,-11,1017,-1,-3,1
2827,-5,-14,992,1,5,-3
2828,7,-4,1012,-1,-1,-1
2829,1,-6,997,1,5,3
2830,-7,-3,1011,-1,-1,1
2831,-2,6,1000,1,1,1
2832,-11,4,1001,-3,-3,-1
2833,-14,4,1013,-3,-3,-3
2834,-1,-11,993,-1,-1,3
2835,-10,-12,1005,-1,-1,-1
2836,1,-14,1008,1,1,-1
2837,-2,-9,1010,1,3,-3
2838,-15,6,1006,3,1,1
2839,-2,1,1005,-1,-3,3
2840,-46,-7,724,-1,-1,-1
2841,-15,-17,991,1,1,-3
2842,-7,-11,995,5,7,-3
2843,28,5,1036,-1,-3,-1
2844,0,1,1069,1,5,1
2845,18,-17,985,-3,-4,1
2846,-25,3,989,-1,3,-1
2847,-24,11,990,-3,-3,-3
2848,-18,5,1001,-1,1,3
2849,-10,-3,1010,1,1,3
2850,2,-5,999,1,1,1
2851,5,-12,995,1,1,-5
2852,-2,-5,1003,-1,-1,-1
2853,-8,11,1003,1,3,1
2854,-27,-5,1006,-1,-1,-1
2855,-13,-11,849,-3,-3,1
2856,-3,-3,1015,1,-3,-5
2857,9,-4,1024,-1,-1,-7
2858,6,-5,1047,1,1,-3
2859,0,3,1010,1,1,1
2860,-3,-1,986,-3,-4,1
2861,-12,-9,979,1,3,-1
2862,-17,1,997,-1,-3,-3
2863,-17,-7,1018,-1,-1,-1
2864,-4,-6,1010,-1,-1,1
2865,-2,-6,1017,-1,-3,3
2866,1,3,996,-1,-1,-1
2867,-6,1,997,-1,-1,-3
2868,-9,-1,998,-3,-1,-1
2869,-11,-8,1010,1,1,-3
2870,-15,-3,1003,1,1,3
2871,-6,-11,1001,-1,-4,-1
2872,-30,-16,777,-1,-3,-3
2873,-13,7,1005,-1,-3,-5
2874,-15,6,941,-1,7,-3
2875,39,14,1022,1,-3,3
2876,26,4,1037,1,3,1
2877,-1,-24,1022,-1,-6,5
2878,-20,-10,977,1,7,-1
2879,-33,-9,989,-1,-2,-3
2880,-26,3,1006,-1,3,5
2881,-6,12,1011,-1,-2,-1
2882,5,-3,996,-3,-2,-5
2883,14,2,991,-3,-1,-3
2884,4,8,1256,-5,1,-5
2885,-9,10,903,1,5,1
2886,-23,-21,954,1,7,3
2887,-13,-13,1050,1,-1,1
2888,-20,11,964,-1,-1,-5
2889,-9,20,1023,1,1,-5
2890,-4,-4,1007,3,1,5
2891,0,-19,1003,-1,-4,3
2892,6,-15,980,1,3,-3
2893,-2,1,994,-1,-2,-9
2894,-17,11,1009,-1,-2,-3
2895,-15,6,1000,-7,-1,3
2896,-11,-5,986,1,1,1
2897,-7,-4,991,-1,-4,-1
2898,2,2,1011,3,-1,-9
2899,6,5,999,-1,1,-1
2900,3,-7,1000,-1,-1,5
2901,-39,-4,1061,-1,-22,3
2902,-17,-4,1069,1,1,-5
2903,-10,18,1056,-3,-1,-9
2904,8,2,946,-3,3,-1
2905,10,5,985,1,1,5
2906,4,-39,993,1,1,1
2907,-13,-11,1006,-1,1,-3
2908,-17,0,1021,1,1,-3
2909,-30,10,1001,-1,-1,1
2910,-12,3,1009,-1,-4,3
2911,1,-12,1010,1,1,5
2912,12,-4,1022,-1,-1,-7
2913,1,12,999,1,7,-9
2914,-17,-6,992,1,5,-3
2915,-16,-17,992,-1,-2,3
2916,-13,-11,1027,-5,-4,-1
2917,-9,5,998,-1,-1,-3
2918,1,21,999,-3,-2,-7
2919,5,7,1009,-1,-2,1
2920,1,-3,987,1,1,-3
2921,-3,-19,990,-1,1,3
2922,-20,-13,1005,-3,-1,-3
2923,-19,-2,1006,1,1,-5
2924,-11,1,1001,-1,-2,-3
2925,-2,0,1014,-1,-4,3
2926,13,-13,1006,-1,-1,1
2927,4,-5,989,-1,3,-2
2928,-4,-8,1010,3,2,0
2929,-2,-6,929,3,-2,0
2930,12,-8,1041,1,0,6
2931,-15,3,1001,1,5,6
2932,-11,3,1014,-5,-4,-2
2933,-16,16,974,-1,0,-4
2934,-8,9,1003,-1,-2,4
2935,6,-3,1002,1,2,0
2936,-3,-19,1005,-3,0,2
2937,-2,-6,1004,3,5,0
2938,-12,8,994,-1,0,-6
2939,-14,10,993,-1,-4,-4
2940,-15,13,992,1,3,6
2941,-2,-4,1014,-1,-2,0
2942,5,-11,1011,1,2,2
2943,7,-8,1004,-1,0,-4
2944,1,-4,996,1,2,-2
2945,-20,0,1008,-3,-4,8
2946,-13,2,1008,1,2,2
2947,-5,8,1002,-1,-4,0
2948,-1,10,1010,-3,-2,-6
2949,-21,10,870,1,3,2
2950,-19,-13,1050,-1,-4,4
2951,1,-23,962,3,9,6
2952,12,-19,1026,-5,-6,0
2953,11,3,978,1,5,-6
2954,0,14,994,-3,-4,-4
2955,-16,6,995,3,5,2
2956,-34,-21,994,-1,-6,6
2957,-13,-15,1010,-1,0,4
2958,-8,-4,1001,1,3,-2
2959,3,2,1009,-1,-2,-4
2960,8,-4,991,-1,0,2
2961,9,-15,1023,-1,0,4
2962,-27,-9,1004,-1,0,2
2963,-17,5,997,3,3,-2
2964,-24,-4,1013,1,2,-6
2965,-6,0,1005,-1,-2,2
2966,-3,-26,728,1,0,6
2967,14,0,990,1,5,2
2968,-10,-26,828,1,11,-4
2969,-20,27,1041,-3,-2,0
2970,-25,12,1083,1,2,6
2971,-16,-20,1023,-3,-4,4
2972,5,-15,980,1,2,2
2973,20,-4,973,-1,-4,-2
2974,24,-1,987,-1,2,-4
2975,-2,1,1014,-1,0,4
2976,-21,-4,1028,-1,-4,4
2977,-24,-7,983,-1,2,-2
2978,-23,-5,989,-1,-2,-4
2979,6,8,1004,-1,0,-4
2980,23,-12,1024,-3,-4,2
2981,16,-7,1002,-1,0,4
2982,-3,2,1014,1,2,-2
2983,-7,5,992,1,2,-2
2984,-19,15,1008,-1,0,0
2985,-19,9,1010,-1,0,2
2986,16,-38,1080,-7,-6,-2
2987,0,17,947,-1,0,-6
2988,21,-8,877,-1,0,-2
2989,-7,11,1060,-5,0,2
2990,-41,2,963,1,5,4
2991,-22,-18,1023,-1,-4,2
2992,-12,-13,981,1,5,0
2993,1,2,993,-1,-6,-6
2994,4,-4,974,1,2,-2
2995,12,-2,1008,-1,-6,2
2996,-13,-9,989,-1,-2,4
2997,-27,-5,1002,-1,-2,2
2998,-19,7,996,-1,-2,-2
2999,-14,6,992,1,5,-4
3000,16,1,1009,-1,0,2
3001,84,-98,1316,7,-6,6
3002,4,7,958,-3,5,4
3003,-40,-6,870,-1,5,-2
3004,-63,13,1089,-1,-4,-4
3005,-38,12,991,-1,0,2
3006,-7,4,1126,-1,-12,4
3007,14,-16,984,1,5,2
3008,25,-13,1034,-3,-8,-2
3009,-4,6,955,1,11,2
3010,-21,-1,1017,-1,-6,2
3011,-32,-1,1029,1,5,4
3012,-33,-2,986,-1,0,-2
3013,-1,-3,1002,-1,-2,-4
3014,16,3,988,-1,0,-4
3015,7,5,1020,1,0,4
3016,1,-2,991,1,2,6
3017,-12,-2,1012,-1,-2,2
3018,-26,-9,996,1,3,2
3019,-18,4,1011,-3,-4,0
3020,-10,1,991,1,2,-2
3021,11,7,835,-1,2,2
3022,36,-1,1104,5,0,-2
3023,-17,5,1095,3,3,2
3024,9,-14,947,-1,-6,0
3025,-14,-6,1044,1,2,-2
3026,-24,7,946,-3,-2,-4
3027,-18,8,966,1,3,2
3028,-11,3,1001,-1,-2,4
3029,1,-13,1012,-1,-2,-2
3030,13,-7,1020,-3,-2,-8
3031,5,-10,998,-1,-2,-4
3032,-14,-3,985,-3,-2,4
3033,-10,-7,1025,-1,-8,6
3034,-17,-5,999,1,2,2
3035,-7,15,1005,-1,-2,-6
3036,1,16,994,-1,0,-4
3037,1,4,999,-3,-6,0
3038,7,-14,1022,1,2,8
3039,-5,-21,996,1,2,0
3040,-23,2,1006,-1,2,-2
3041,-19,16,991,-3,0,-4
3042,-12,10,1004,-3,-2,0
3043,0,-2,1001,-3,0,6
3044,5,-7,1002,1,2,-2
3045,9,-9,1016,1,2,-4
3046,-6,7,993,-1,-2,-4
3047,-14,-4,1003,-1,2,4
3048,-12,2,1006,-3,0,8
3049,-7,-9,995,-5,-2,2
3050,-3,2,1005,-1,0,-4
3051,4,1,1016,-1,-2,-6
3052,-2,-4,1003,-3,0,-2
3053,-5,-16,1002,-3,0,4
3054,-11,-11,1001,3,2,4
3055,-8,2,1005,3,3,0
3056,-9,14,991,1,2,-4
3057,-8,4,1008,1,0,-2
3058,-1,-9,1005,-3,-2,0
3059,-2,-13,1001,-3,-2,-2
3060,-10,-9,1004,-3,-2,-2
3061,-9,-2,1007,-1,-2,-4
3062,-7,-6,1013,-3,0,2
3063,-9,-10,1003,-5,-2,6
3064,-9,-7,989,1,2,0
3065,2,5,993,-1,0,0
3066,-3,-2,1007,-1,-4,-6
3067,0,-7,1013,-3,-2,-4
3068,-9,-13,1002,3,2,-2
3069,-8,-7,1004,-1,-2,-4
3070,-4,4,993,-3,0,4
3071,-6,6,996,1,0,-2
3072,-10,5,1003,-3,0,-2
3073,-3,-2,993,-1,0,0
3074,-5,-13,1016,3,2,-2
3075,-11,-7,996,-1,0,-4
3076,-4,-5,999,-3,0,2
3077,-10,11,998,-3,-4,2
3078,-3,-9,994,1,2,4
3079,-4,-10,1002,3,2,0
3080,-8,12,1005,-1,0,0
3081,-4,-2,1012,1,2,-6
3082,-18,-1,990,-1,0,0
3083,-2,0,1011,-1,-4,0
3084,-1,-6,1005,-1,0,2
3085,-6,0,1008,-1,-2,-2
3086,-9,1,1003,1,2,-2
3087,-8,5,995,-1,-2,0
3088,-11,-11,1006,-1,0,2
3089,-5,-11,1004,1,2,2
3090,-14,-7,1003,-1,0,0
3091,-15,0,996,-3,0,-2
3092,0,7,1001,-1,-2,-4
3093,-1,1,1001,-1,-2,6
3094,-2,-2,997,-1,-2,2
3095,-10,-13,995,-1,0,-2
3096,-7,-7,995,-3,0,-2
3097,-7,-4,1001,-6,-6,2
3098,-14,-5,998,1,2,4
3099,-11,5,1004,1,2,4
3100,-7,5,1004,-1,-2,-2
3101,-4,-4,1002,-3,0,2
3102,1,-5,995,1,2,0
3103,0,-9,1001,1,4,2
3104,-4,-9,999,-3,0,2
3105,-8,-2,1006,-1,0,-2
3106,-2,9,1010,-1,-2,-2
3107,2,-6,1002,-1,-2,-2
3108,-3,-4,1005,-1,-2,2
3109,-6,-8,999,-1,2,-2
3110,0,2,1005,-1,-2,0
3111,-2,2,1010,-3,0,2
3112,-4,0,1002,-3,-2,4
3113,-5,1,999,-1,2,2
3114,-6,-3,1009,1,0,0
3115,4,-3,1002,1,2,0
3116,2,-5,1004,-1,0,-4
3117,-9,-12,996,-1,-2,2
3118,-4,-5,996,1,2,2
3119,-8,-4,993,1,0,2
3120,-2,-7,1002,-1,0,2
3121,-10,8,1017,-1,2,0
3122,-4,3,994,1,2,2
3123,-9,-9,1009,-1,0,-2
3124,2,-12,1007,-1,0,2
3125,-10,-6,1011,-1,-2,-2
3126,-7,-8,1008,-1,0,6
3127,-3,4,988,-1,0,2
3128,-3,-1,1004,-1,-4,-2
3129,-11,7,1016,1,-2,0
3130,-13,-3,1004,-3,-2,0
3131,-2,-10,997,-1,0,0
3132,3,-7,1001,-1,0,0
3133,0,-8,996,3,4,2
3134,2,-3,1010,1,4,0
3135,-18,8,998,-3,-2,0
3136,-3,-2,1006,1,2,2
3137,-10,7,1007,1,4,0
3138,-12,-7,987,-1,0,4
3139,-8,-11,1014,-1,0,2
3140,-6,-5,1002,-1,0,-4
3141,-4,8,1012,-3,-2,2
3142,-4,2,992,-1,0,0
3143,-3,-2,1009,1,4,0
3144,-6,-4,1007,-1,0,2
3145,-8,6,995,-1,-2,0
3146,-6,11,1005,-4,0,-2
3147,4,-10,1001,-1,0,2
3148,-2,-8,1009,-1,-2,2
3149,-3,-3,1006,1,4,0
3150,-3,0,998,-1,0,-2
3151,-4,0,995,1,2,-2
3152,-2,-3,1013,-1,0,-2
3153,-4,-6,988,-3,-4,2
3154,-7,2,1001,-3,-2,-4
3155,-7,0,998,-1,-2,-1
3156,-17,8,1003,-1,0,-3
3157,2,-5,999,-3,2,-1
3158,4,3,1007,-1,0,-1
3159,-2,-4,1000,1,2,-1
3160,2,-5,1009,-1,-2,-3
3161,0,5,1008,-1,-2,-1
3162,-6,-2,1003,-1,-2,5
3163,-13,-9,1010,-1,0,-1
3164,-12,-6,1000,-3,-4,1
3165,-6,3,1001,1,2,-1
3166,-1,5,1003,-1,0,-3
3167,-1,-9,1000,1,2,1
3168,-9,-7,998,-1,0,1
3169,-13,2,1010,-1,-4,-1
3170,-10,5,999,1,2,-5
3171,-8,2,999,3,2,-1
3172,-10,5,994,-1,0,3
3173,-3,-3,1004,-1,-2,-3
3174,-6,6,1000,-1,0,-3
3175,-10,0,995,3,0,-1
3176,-1,1,1004,1,2,3
3177,-3,-5,998,-1,0,1
3178,-11,-6,1009,-1,-2,-1
3179,-4,-3,1004,-1,-2,-3
3180,-3,2,999,3,2,-3
3181,-2,1,1010,-3,0,-1
3182,-8,1,1002,-3,-2,1
3183,-16,-5,1004,-1,2,-1
3184,-5,-3,1001,3,2,3
3185,-10,5,1033,1,2,-3
3186,-8,1,1000,-3,-4,1
3187,-8,3,1003,3,2,1
3188,-6,-5,1001,-1,-2,-3
3189,-8,-2,1013,-3,0,3
3190,-7,-4,1002,-1,0,1
3191,-9,-4,992,-3,-2,1
3192,-4,-7,1013,1,2,-3
3193,-13,0,1004,-1,-2,-1
3194,-15,-2,1003,-3,0,-3
3195,-7,3,1013,1,2,1
3196,-6,2,1009,-3,0,1
3197,-5,-9,1008,-1,0,3
3198,-12,-7,996,-3,-4,1
3199,-8,-3,1009,1,2,1
3200,-17,0,1011,-1,0,-3
3201,-3,2,997,1,3,-1
3202,-4,-2,992,1,2,3
3203,6,0,1004,-1,-4,1
3204,-3,0,1016,-1,-4,1
