sequence,AccelerometerX,AccelerometerY,AccelerometerZ,GyroscopeX,GyroscopeY,GyroscopeZ
0,118,-119,935,135,718,71
1,110,-123,884,59,368,-58
2,125,-171,856,-42,417,-15
3,116,-188,906,108,472,-94
4,165,-154,929,469,296,-226
5,203,-120,968,577,118,-279
6,211,-91,975,694,264,-211
7,197,-95,981,753,354,-121
8,175,-81,965,743,427,-17
9,151,-87,981,714,546,49
10,155,-87,1008,700,577,112
11,128,-93,933,823,706,235
12,86,-128,894,764,852,309
13,31,-144,896,596,946,127
14,48,-102,934,569,636,-15
15,50,-62,958,622,364,-201
16,30,-40,948,264,134,-254
17,79,-69,953,-222,-236,43
18,113,-101,959,-443,-386,406
19,138,-111,975,-472,-599,455
20,100,-143,916,-228,-486,447
21,49,-121,926,59,-245,280
22,55,-119,877,417,-261,-168
23,81,-103,918,772,276,-683
24,91,-90,996,1006,493,-1068
25,102,-57,1045,948,356,-1273
26,174,-72,1069,667,69,-1099
27,214,-106,1079,446,-163,-699
28,231,-120,1066,352,-280,-277
29,209,-106,1091,479,-267,-72
30,179,-93,1101,823,-97,-119
31,183,-73,1086,1153,153,-226
32,129,-38,1071,1202,468,-402
33,90,-6,1048,1215,598,-556
34,74,42,1066,1034,202,-713
35,150,50,1176,1020,200,-832
36,179,4,1119,1528,985,-1179
37,186,2,1079,1883,970,-1373
38,175,1,1046,1958,1097,-1353
39,109,18,1028,1772,1401,-1154
40,59,103,1018,1739,1524,-978
41,-32,189,994,1422,1065,-961
42,22,197,1003,799,218,-787
43,70,145,1030,352,20,-605
44,112,75,1039,215,136,-496
45,146,117,1103,536,100,-627
46,78,141,1114,940,-167,-1066
47,73,153,1038,1319,-247,-1310
48,51,153,974,1475,106,-1287
49,58,96,950,1149,302,-1117
50,83,109,922,891,268,-1012
51,45,71,939,598,73,-941
52,95,124,976,493,5,-670
53,102,121,983,325,206,-535
54,68,116,960,202,657,-166
55,-6,187,983,75,442,-17
56,-4,198,1023,-197,-247,39
57,52,174,1039,-480,-171,436
58,96,147,1065,-611,-93,699
59,38,72,1040,-640,-77,713
60,95,126,1021,-468,-48,549
61,28,98,993,190,126,-301
62,62,69,1031,-156,-46,-25
63,-18,155,979,153,-32,-506
64,-180,121,644,-472,-85,-357
65,-45,60,579,-2048,-2296,629
66,202,-92,1007,-1988,-3632,1074
67,151,-92,914,-1007,-1124,465
68,146,27,975,-1072,284,567
69,172,101,991,-929,343,621
70,144,103,1003,-714,-155,268
71,109,71,988,-343,-153,74
72,152,0,1011,233,179,110
73,171,7,1004,758,298,-25
74,150,16,976,1040,202,-136
75,128,43,981,985,67,24
76,92,43,1010,756,-114,272
77,49,56,1001,499,-343,512
78,55,46,962,340,-446,680
79,43,30,996,366,-509,697
80,60,49,990,477,-665,705
81,82,65,964,686,-730,834
82,40,80,944,901,-745,838
83,117,101,1045,704,-577,908
84,109,119,1029,829,-714,801
85,108,84,1070,920,-556,746
86,92,77,1046,1057,-173,949
87,99,68,1091,721,151,1098
88,88,103,1036,-37,85,990
89,78,158,1036,-462,157,811
90,130,163,1006,-570,153,600
91,171,168,962,-470,81,328
92,166,157,969,-341,-132,114
93,164,112,991,-306,-351,-19
94,163,73,1015,-380,-464,-21
95,163,54,1031,-521,-474,59
96,130,32,1041,-773,-396,211
97,125,62,1095,-1062,-189,379
98,150,95,1095,-1039,-17,422
99,152,99,1070,-761,-13,246
100,153,97,1042,-468,-62,88
101,201,80,1043,-355,-255,28
102,190,50,1060,-410,-620,59
103,170,29,1133,-607,-945,192
104,158,5,1205,-886,-1032,516
105,101,18,1303,-1316,-859,824
106,73,28,1375,-1710,-362,924
107,117,33,1403,-1857,132,793
108,170,43,1424,-1607,348,489
109,201,54,1419,-1169,315,178
110,232,22,1431,-769,239,61
111,263,12,1469,-660,102,133
112,268,-23,1548,-718,46,287
113,296,-16,1628,-707,206,545
114,305,32,1689,-503,458,678
115,312,46,1678,-144,764,508
116,329,29,1625,260,1147,293
117,339,12,1558,569,1505,217
118,318,10,1499,485,1716,155
119,302,23,1423,69,1884,28
120,297,13,1347,-375,2001,-97
121,278,15,1299,-533,2061,-68
122,234,14,1281,-494,2085,-56
123,193,17,1277,-398,2169,-43
124,185,26,1241,-244,2292,-8
125,197,12,1212,-3,2407,-95
126,192,0,1150,469,2501,-267
127,192,-6,1043,926,2575,-457
128,170,1,975,1151,2559,-683
129,160,-50,914,1286,2540,-752
130,166,-45,851,1374,2446,-476
131,135,12,785,1407,2333,-252
132,117,52,731,1415,2212,-254
133,69,67,647,1495,2106,-336
134,20,65,556,1606,2011,-385
135,-35,81,469,1598,1891,-359
136,-97,89,430,1317,1722,-414
137,-152,78,371,926,1589,-580
138,-157,51,279,739,1608,-824
139,-179,-37,200,666,1554,-754
140,-218,-72,145,487,1268,-365
141,-253,-43,67,227,913,-19
142,-288,7,-6,65,571,162
143,-292,23,-28,-21,233,199
144,-277,15,-42,-99,-167,158
145,-283,23,-15,-281,-568,114
146,-277,22,32,-498,-814,8
147,-250,-5,57,-666,-935,-53
148,-229,-24,101,-662,-986,-15
149,-185,-76,138,-568,-987,102
150,-147,-65,136,-384,-976,293
151,-122,-31,125,-138,-1066,356
152,-119,-14,94,59,-1294,278
153,-144,15,100,411,-1556,131
154,-170,10,96,805,-1792,-8
155,-154,-2,109,1022,-2038,-31
156,-118,-19,121,954,-2357,125
157,-68,-20,181,579,-2681,381
158,11,-28,237,38,-2827,623
159,111,4,291,-345,-2845,787
160,195,44,345,-433,-2890,856
161,240,99,409,-433,-3136,836
162,269,114,442,-320,-3376,719
163,316,95,518,81,-3507,586
164,354,81,589,549,-3685,489
165,370,37,641,678,-3829,504
166,390,12,702,563,-3882,580
167,425,-5,803,319,-3888,742
168,414,17,902,-199,-3968,989
169,397,20,1014,-990,-4054,1188
170,444,43,1177,-1570,-3900,1262
171,497,54,1359,-1665,-3800,1194
172,568,18,1512,-1548,-3833,1047
173,620,0,1674,-1179,-3892,897
174,679,6,1879,-720,-4107,834
175,829,-11,2048,-677,-4306,571
176,758,7,2040,-583,-4345,748
177,868,-19,2048,-582,-4011,586
178,828,-22,2048,-279,-3495,614
179,819,-18,2048,-165,-2739,561
180,814,17,2048,-464,-1798,502
181,814,36,2048,-781,-862,334
182,870,23,2048,-708,-161,47
183,852,-26,2048,-275,155,-156
184,817,-40,2048,137,272,-256
185,789,-93,2048,366,511,-174
186,756,-85,2048,358,903,30
187,725,-41,2048,172,1554,153
188,728,-15,2048,88,2237,211
189,719,29,1948,61,2811,201
190,721,40,1812,1,3251,119
191,683,51,1656,-23,3479,57
192,640,33,1531,45,3573,-76
193,571,34,1422,243,3639,-269
194,512,15,1312,295,3723,-467
195,507,-25,1241,292,3911,-572
196,500,-54,1157,301,4091,-455
197,473,-29,1080,393,4222,-336
198,444,-13,996,512,4333,-260
199,410,-4,902,706,4378,-277
200,380,-3,803,862,4317,-279
201,332,14,690,1026,4223,-265
202,254,80,571,1155,4063,-312
203,191,108,437,1241,3843,-455
204,142,138,351,1397,3563,-676
205,120,68,273,1489,3241,-855
206,107,5,240,1479,2895,-691
207,64,-25,227,1284,2645,-301
208,-6,6,209,809,2526,51
209,-44,46,151,194,2487,203
210,-59,74,92,-269,2384,227
211,-100,87,28,-466,2145,172
212,-122,84,8,-425,1766,65
213,-142,43,-28,-201,1364,-19
214,-156,46,-45,63,1030,-82
215,-190,11,-41,83,696,-111
216,-195,-14,-29,-80,403,-90
217,-194,-45,-32,-386,216,-21
218,-172,-55,-25,-691,67,155
219,-161,-40,-30,-859,-163,319
220,-159,-30,-47,-915,-478,344
221,-144,-8,-26,-849,-814,293
222,-103,-3,-8,-675,-1138,254
223,-84,10,26,-320,-1548,156
224,-83,9,55,47,-2003,47
225,-51,-20,112,176,-2374,-13
226,-11,-47,156,118,-2601,-10
227,53,-64,216,-119,-2780,115
228,101,-4,276,-306,-2952,270
229,135,52,378,-226,-3044,301
230,164,149,476,149,-3144,151
231,196,203,512,766,-3167,-179
232,278,171,528,1200,-3239,-633
233,354,144,590,1321,-3501,-842
234,407,40,652,981,-3841,-687
235,385,-2,777,178,-4050,-269
236,383,18,933,-917,-4112,158
237,407,71,1130,-1912,-3972,446
238,444,76,1239,-2212,-3724,420
239,474,55,1294,-1890,-3624,367
240,480,39,1333,-1374,-3624,280
241,515,20,1429,-876,-3763,88
242,566,-28,1551,-669,-4030,-2
243,559,-95,1700,-777,-4300,151
244,540,-118,1875,-1076,-4480,432
245,563,-102,2048,-1439,-4179,510
246,599,-116,2048,-1542,-3517,406
247,605,-139,2048,-1275,-2689,248
248,630,-172,2048,-804,-2007,180
249,682,-197,2048,-474,-1530,108
250,735,-220,2048,-382,-1253,106
251,776,-175,2048,-406,-1079,231
252,818,-140,2048,-419,-734,356
253,846,-108,2048,-203,-195,434
254,837,-71,2048,233,534,422
255,835,-40,2048,700,1329,260
256,846,-63,2048,983,2050,106
257,834,-70,2048,1116,2565,26
258,793,-46,1950,1137,2913,22
259,761,-2,1794,987,3227,16
260,709,45,1642,848,3466,-74
261,686,60,1548,788,3645,-160
262,665,61,1464,860,3679,-246
263,622,74,1369,1047,3677,-369
264,584,74,1246,1258,3737,-519
265,559,93,1150,1489,3850,-713
266,531,119,1061,1698,3960,-1002
267,528,106,942,1751,4098,-1260
268,531,54,793,1694,4243,-1347
269,508,27,658,1571,4235,-1146
270,419,55,523,1442,4067,-750
271,325,118,421,1327,3931,-502
272,215,153,289,1227,3809,-535
273,142,166,182,1145,3612,-728
274,72,124,89,1163,3391,-951
275,5,112,10,1137,3081,-1160
276,-34,80,-12,954,2722,-1414
277,-45,-8,-31,671,2446,-1500
278,-65,-105,-43,385,2167,-1170
279,-121,-117,-72,12,1913,-640
280,-202,-76,-94,-454,1780,-176
281,-236,-27,-129,-818,1729,43
282,-239,-16,-183,-997,1518,90
283,-233,-16,-201,-935,1143,24
284,-236,-23,-199,-677,698,-103
285,-231,-54,-153,-365,268,-179
286,-199,-112,-125,-126,-109,-176
287,-168,-131,-114,-111,-435,-51
288,-152,-120,-111,-189,-747,182
289,-142,-84,-107,-216,-1052,373
290,-138,-45,-113,-201,-1396,420
291,-115,-11,-88,-60,-1706,420
292,-72,-5,-63,-7,-2015,387
293,-20,18,-11,-144,-2347,340
294,30,69,37,-333,-2634,219
295,82,78,103,-363,-2888,51
296,162,43,208,-245,-3210,31
297,186,7,288,-329,-3593,182
298,242,40,388,-714,-3816,422
299,273,84,484,-1201,-3894,559
300,339,97,556,-1576,-4005,479
301,425,109,656,-1775,-4050,276
302,455,107,800,-1792,-4157,18
303,474,55,906,-1568,-4241,-244
304,541,-85,1072,-1546,-4355,-172
305,582,-130,1241,-1656,-4286,178
306,611,-101,1380,-1689,-4140,500
307,671,-158,1505,-1697,-3997,770
308,667,-115,1627,-1570,-4044,1143
309,655,-7,1747,-1212,-4257,1240
310,661,74,1909,-579,-4402,979
311,744,14,2048,-15,-4243,569
312,815,29,2048,239,-3941,289
313,823,31,2048,294,-3540,37
314,818,7,2048,553,-2806,-144
315,832,6,2048,1147,-1726,-121
316,841,41,2048,1524,-726,-10
317,850,94,2048,1424,-93,90
318,862,164,2048,936,239,76
319,839,244,2048,424,229,-94
320,832,262,2048,421,514,-263
321,858,240,2048,573,886,-478
322,860,188,2048,663,1264,-640
323,821,167,2048,881,1723,-521
324,794,167,2002,971,2247,-553
325,729,194,1879,825,2839,-662
326,746,196,1752,616,3397,-773
327,758,212,1613,356,3786,-881
328,739,214,1490,204,3962,-988
329,696,216,1358,192,3927,-1131
330,654,175,1255,294,3893,-1310
331,637,65,1195,526,3868,-1226
332,524,8,1122,760,3905,-943
333,447,13,1011,844,4040,-763
334,378,64,907,772,4214,-717
335,361,109,785,663,4389,-863
336,385,113,680,696,4509,-1068
337,356,63,580,837,4366,-1232
338,287,9,468,1161,4028,-1373
339,231,-17,391,1637,3753,-1461
340,159,-36,319,1965,3534,-1556
341,69,-50,242,1967,3288,-1623
342,15,-94,174,1630,3063,-1572
343,-20,-94,144,1126,2929,-1326
344,-37,-83,103,342,2884,-1105
345,-36,-85,72,-283,2860,-873
346,-27,-81,2,-494,2804,-662
347,-60,-65,-62,-454,2556,-533
348,-121,-53,-126,-263,2132,-502
349,-169,-18,-140,40,1686,-627
350,-173,-54,-177,340,1204,-765
351,-158,-131,-189,639,622,-826
352,-151,-196,-154,784,-17,-685
353,-185,-206,-97,661,-569,-267
354,-234,-165,-87,313,-888,67
355,-234,-117,-72,-109,-1040,258
356,-205,-36,-31,-460,-1148,238
357,-171,22,0,-579,-1278,57
358,-125,29,21,-466,-1403,-213
359,-85,6,15,-308,-1620,-455
360,-38,-35,13,-304,-2064,-543
361,6,-106,67,-671,-2573,-441
362,57,-161,141,-1173,-3064,-121
363,90,-147,221,-1320,-3425,235
364,88,-70,328,-1130,-3694,424
365,132,-26,395,-738,-3902,471
366,196,-10,436,-263,-4056,461
367,278,8,487,155,-4247,471
368,361,49,540,268,-4507,490
369,429,109,607,98,-4724,465
370,431,149,744,-171,-4868,461
371,414,207,916,-833,-4810,422
372,484,249,1102,-1765,-4390,86
373,579,187,1232,-2351,-3870,-340
374,643,93,1335,-2103,-3614,-349
375,579,83,1464,-1246,-3706,-215
376,528,59,1603,-583,-3976,-68
377,474,-8,1790,-794,-4112,26
378,522,-66,2021,-1941,-3948,61
379,634,-65,2048,-3206,-3536,-12
380,744,-119,2048,-3613,-2964,-86
381,787,-124,2048,-2689,-2306,-10
382,786,-74,2048,-781,-1673,88
383,800,-28,2048,971,-1212,33
384,829,32,2048,1868,-952,-78
385,805,111,2048,2149,-767,-154
386,774,199,2048,2010,-357,-281
387,753,299,2048,1600,216,-580
388,803,249,2048,1137,806,-969
389,832,161,2048,766,1325,-933
390,803,161,2048,501,1866,-637
391,762,150,2004,270,2368,-336
392,715,216,1872,212,2733,-236
393,680,247,1754,315,2925,-351
394,646,223,1671,669,3020,-527
395,617,195,1570,1022,3098,-691
396,577,200,1449,1182,3181,-795
397,528,249,1357,1006,3210,-941
398,497,279,1275,712,3247,-1224
399,487,286,1177,456,3348,-1635
400,491,259,1109,260,3472,-2027
401,567,111,1072,44,3591,-2164
402,591,-41,1035,-58,3583,-1488
403,493,8,964,212,3528,-515
404,367,78,859,325,3606,30
405,306,109,705,325,3722,100
406,293,139,564,446,3768,-54
407,261,155,452,749,3575,-201
408,178,145,387,1112,3347,-400
409,153,120,326,1401,3223,-685
410,136,91,227,1473,3065,-918
411,95,98,169,1358,2848,-1062
412,58,90,89,1087,2638,-1158
413,36,84,50,725,2403,-1260
414,-1,47,26,292,2134,-1377
415,-8,3,-22,-25,1919,-1439
416,-41,-87,-30,-132,1733,-1371
417,-57,-144,-60,-107,1522,-1074
418,-118,-179,-86,-156,1343,-685
419,-168,-150,-140,-410,1231,-392
420,-187,-95,-172,-640,1126,-260
421,-193,-71,-179,-775,929,-260
422,-171,-56,-191,-828,581,-394
423,-146,-50,-212,-656,139,-521
424,-162,-62,-214,-371,-407,-558
425,-167,-91,-195,-58,-984,-515
426,-172,-133,-149,231,-1519,-314
427,-157,-153,-87,141,-1948,51
428,-123,-119,-23,-449,-2257,397
429,-58,-98,51,-1027,-2446,612
430,-1,-52,112,-1298,-2591,723
431,41,38,224,-1324,-2605,705
432,52,118,259,-1068,-2560,500
433,118,160,250,-691,-2573,307
434,208,219,269,-285,-2675,131
435,299,267,269,-119,-3079,-95
436,353,328,401,-191,-3734,-379
437,329,316,582,-470,-4316,-785
438,361,227,724,-1177,-4566,-1285
439,422,129,918,-1845,-4405,-1547
440,469,-2,1096,-2244,-4089,-1304
441,549,-89,1185,-2205,-3810,-738
442,607,-127,1281,-1831,-3761,33
443,561,-53,1375,-1546,-4095,789
444,485,0,1507,-1503,-4566,1170
445,478,44,1691,-1652,-4710,1043
446,517,119,1913,-1322,-4573,625
447,597,65,2048,-566,-4243,129
448,672,-90,2048,243,-3974,-164
449,714,-172,2048,471,-3718,51
450,702,-182,2048,-15,-3251,461
451,739,-153,2048,-663,-2443,799
452,771,-53,2048,-790,-1681,1002
453,815,88,2048,-292,-1157,1010
454,833,180,2048,422,-626,647
455,836,189,2048,1270,-27,201
456,854,171,2048,1866,567,-95
457,835,193,2048,1878,972,-277
458,796,253,2048,1274,1380,-404
459,780,328,2048,434,1895,-646
460,746,357,1955,-162,2432,-1002
461,733,381,1887,-388,2897,-1556
462,702,318,1804,-501,3397,-2224
463,698,221,1679,-542,3901,-2691
464,722,80,1585,-484,4237,-2676
465,701,-6,1509,-288,4296,-2142
466,649,-19,1396,-134,4235,-1338
467,549,13,1277,-1,4280,-687
468,506,25,1143,10,4442,-246
469,458,64,986,325,4524,156
470,412,103,843,676,4491,309
471,373,111,695,1024,4350,248
472,330,103,586,1342,4192,74
473,286,59,489,1559,4052,-125
474,204,30,369,1721,3835,-232
475,153,23,294,1524,3583,-301
476,92,-9,251,1016,3409,-359
477,27,-34,188,440,3235,-437
478,5,-44,112,114,3075,-506
479,-50,-45,81,59,2806,-547
480,-88,-40,78,143,2409,-549
481,-95,-46,68,112,2126,-609
482,-80,-50,69,7,1917,-672
483,-91,-43,81,-89,1722,-670
484,-89,-54,61,-175,1563,-670
485,-95,-59,39,-253,1407,-679
486,-99,-85,28,-195,1200,-635
487,-82,-103,-15,1,934,-558
488,-84,-98,-44,253,626,-429
489,-89,-104,-69,594,329,-312
490,-85,-99,-42,694,69,-254
491,-83,-95,-75,567,-187,-238
492,-104,-107,-72,434,-454,-135
493,-122,-115,-96,317,-849,59
494,-119,-111,-77,133,-1325,254
495,-68,-95,-60,-68,-1818,455
496,-34,-87,-6,-212,-2359,707
497,9,-88,84,-425,-2849,947
498,24,-79,198,-757,-3196,1123
499,59,-68,291,-1134,-3351,1176
500,143,-35,350,-1181,-3425,1149
501,195,11,443,-767,-3464,1065
502,204,36,502,106,-3509,949
503,225,-19,496,1124,-3624,1049
504,235,-14,526,1575,-3761,1518
505,279,68,567,1083,-3929,1969
506,359,162,655,-29,-4177,2176
507,392,285,809,-1193,-4376,1965
508,431,290,990,-1900,-4450,1449
509,413,262,1120,-1894,-4349,842
510,455,194,1218,-1361,-4177,336
511,557,144,1327,-1060,-4175,-12
512,577,101,1500,-1056,-4298,-125
513,644,81,1672,-1214,-4335,-60
514,689,82,1867,-1466,-4152,69
515,709,85,2048,-1492,-3900,164
516,705,52,2048,-1212,-3443,155
517,724,76,2048,-607,-2851,94
518,740,75,2048,126,-2290,41
519,740,85,2048,805,-1831,71
520,712,111,2048,1090,-1511,217
521,685,159,2048,895,-1277,342
522,675,204,2048,342,-1025,350
523,749,249,2048,-296,-755,217
524,773,237,2048,-714,-468,-8
525,744,127,2048,-826,-1,-203
526,754,52,2048,-511,745,-135
527,741,62,2048,16,1575,76
528,769,106,2048,444,2370,113
529,746,127,1931,696,2854,82
530,712,160,1778,856,3036,102
531,667,194,1654,1007,3192,59
532,627,227,1516,1026,3266,-37
533,610,254,1436,819,3374,-201
534,581,237,1364,444,3515,-420
535,568,243,1326,49,3714,-678
536,530,232,1281,-341,3934,-982
537,486,204,1209,-431,4202,-1297
538,467,107,1164,-359,4520,-1504
539,485,28,1107,-281,4747,-1437
540,459,11,1010,-253,4850,-1095
541,418,52,905,-242,4825,-722
542,347,52,805,-103,4690,-525
543,293,49,694,63,4538,-492
544,221,42,615,258,4362,-502
545,167,9,528,467,4163,-496
546,127,40,432,598,3960,-592
547,101,32,381,678,3788,-738
548,61,20,316,805,3565,-885
549,38,-12,251,891,3356,-1004
550,15,-27,197,788,3216,-1086
551,-28,-35,118,444,3001,-1080
552,-66,-28,50,98,2743,-1047
553,-100,-20,-12,-193,2501,-1043
554,-114,-40,-48,-275,2276,-1015
555,-122,-39,-106,-160,1981,-967
556,-138,-62,-123,-50,1589,-861
557,-135,-84,-140,-31,1171,-754
558,-128,-113,-148,-17,772,-615
559,-137,-121,-147,71,407,-455
560,-152,-128,-157,104,15,-314
561,-149,-143,-139,196,-360,-215
562,-141,-148,-104,188,-685,-95
563,-152,-138,-115,59,-950,12
564,-155,-121,-101,57,-1191,133
565,-135,-89,-99,171,-1478,199
566,-60,-76,-84,321,-1812,199
567,-43,-58,-53,475,-2208,205
568,-33,-16,1,481,-2624,209
569,21,41,65,401,-2921,139
570,88,70,139,301,-3146,47
571,134,85,190,202,-3376,-13
572,170,94,241,98,-3611,18
573,205,124,322,-146,-3861,113
574,265,156,391,-452,-4042,147
575,301,187,457,-577,-4163,53
576,313,189,530,-314,-4384,-8
577,320,148,591,55,-4724,0
578,385,102,698,307,-5064,82
579,445,117,872,65,-5364,319
580,461,133,1031,-857,-5616,551
581,503,135,1227,-2007,-5632,580
582,523,160,1428,-2927,-5530,383
583,523,118,1603,-3134,-5452,155
584,579,37,1798,-2880,-5312,-203
585,708,-104,2016,-2576,-5140,-490
586,787,-265,2048,-2234,-4937,-367
587,843,-340,2048,-2058,-4579,147
588,818,-278,2048,-1779,-4036,668
589,796,-174,2048,-1148,-3241,850
590,796,-111,2048,-441,-2232,664
591,851,-102,2048,229,-1269,324
592,889,-87,2048,934,-622,137
593,851,-96,2048,1223,-222,59
594,818,-65,2048,934,208,-12
595,810,-43,2048,542,702,-23
596,806,-19,2048,350,1167,41
597,785,-3,2048,389,1636,113
598,805,48,2048,631,2130,98
599,759,88,2048,864,2624,6
600,745,104,1971,997,3192,-150
601,749,129,1833,1145,3647,-306
602,731,169,1721,1389,3899,-418
603,702,188,1592,1663,4077,-504
604,654,197,1472,1719,4159,-637
605,578,183,1367,1622,4216,-707
606,545,129,1264,1446,4268,-744
607,514,129,1203,1157,4358,-648
608,506,178,1145,674,4534,-525
609,472,220,1104,202,4868,-531
610,453,218,983,-54,5128,-627
611,433,235,885,10,5307,-719
612,434,252,798,67,5284,-859
613,414,249,708,214,5145,-1142
614,363,224,631,399,5044,-1437
615,295,187,489,626,5003,-1672
616,221,143,371,850,4960,-1814
617,137,82,260,866,4817,-1943
618,66,21,167,723,4636,-2058
619,23,-30,89,520,4462,-2088
620,21,-99,-15,352,4251,-2006
621,-37,-112,-89,241,3895,-1799
622,-99,-141,-171,40,3442,-1531
623,-161,-156,-217,-271,2942,-1336
624,-203,-204,-266,-626,2483,-1207
625,-236,-247,-313,-857,2048,-1084
626,-242,-281,-350,-906,1579,-887
627,-252,-343,-325,-827,973,-560
628,-274,-356,-326,-644,335,-181
629,-244,-313,-297,-406,-222,268
630,-224,-252,-216,-247,-655,567
631,-208,-197,-187,-66,-1060,727
632,-186,-138,-160,18,-1378,807
633,-166,-112,-116,-93,-1669,768
634,-153,-113,-104,-83,-2001,727
635,-128,-124,-83,104,-2339,742
636,-118,-132,-35,219,-2696,819
637,-108,-115,17,239,-3060,957
638,-29,-87,63,290,-3400,1102
639,12,-26,165,337,-3693,1221
640,43,6,270,262,-3941,1319
641,69,46,330,77,-4028,1340
642,104,101,412,-60,-4077,1352
643,187,116,486,-138,-4196,1276
644,256,104,577,-240,-4458,1078
645,286,108,684,-120,-4775,987
646,362,101,792,389,-5007,1078
647,413,100,898,989,-5193,1321
648,433,114,1013,1131,-5253,1602
649,469,175,1119,776,-5111,1832
650,516,255,1224,114,-4894,1873
651,586,314,1262,-322,-4683,1787
652,651,321,1301,-413,-4550,1559
653,634,286,1376,-333,-4696,1375
654,589,206,1444,3,-4974,1242
655,622,120,1535,339,-5140,1194
656,675,117,1685,317,-5058,1375
657,667,127,1857,-48,-4778,1483
658,664,101,1963,-589,-4152,1434
659,691,106,2036,-827,-3402,1252
660,754,105,2048,-757,-2913,1071
661,800,95,2048,-613,-2628,817
662,848,48,2048,-413,-2405,541
663,846,-24,2048,-103,-2228,432
664,847,-65,2048,421,-1964,483
665,846,-93,2048,669,-1345,571
666,842,-104,2048,550,-325,721
667,822,-61,2048,282,768,885
668,855,-23,2048,280,1720,918
669,889,15,2048,606,2284,930
670,850,34,2048,1032,2511,969
671,812,14,1929,1346,2653,1020
672,774,24,1813,1360,2794,1153
673,754,42,1717,1159,2940,1330
674,770,54,1690,753,3102,1463
675,722,64,1632,300,3339,1533
676,690,66,1583,38,3702,1488
677,668,39,1525,-42,4116,1432
678,676,0,1432,149,4497,1408
679,657,-25,1302,639,4733,1512
680,616,8,1180,1071,4784,1590
681,548,5,1053,1356,4725,1758
682,477,-17,886,1505,4557,2002
683,433,-18,771,1319,4302,2322
684,391,36,704,921,3919,2617
685,357,82,680,473,3628,2637
686,337,65,626,237,3524,2623
687,295,96,582,272,3472,2633
688,283,119,593,366,3577,2516
689,251,59,589,428,3747,2504
690,219,68,507,581,3905,2485
691,205,138,414,733,4069,2332
692,178,183,306,915,4122,2028
693,123,215,183,1145,4009,1666
694,37,196,43,1362,3749,1438
695,-39,144,-51,1610,3378,1342
696,-96,126,-131,1704,3009,1362
697,-115,140,-197,1483,2583,1500
698,-189,122,-233,971,2056,1574
699,-180,116,-241,159,1515,1588
700,-161,159,-229,-593,1022,1504
701,-152,197,-180,-1029,528,1319
702,-165,210,-150,-1038,81,1037
703,-154,185,-145,-519,-161,781
704,-144,156,-141,163,-333,617
705,-163,108,-148,733,-540,520
706,-161,35,-158,827,-739,655
707,-182,70,-140,460,-900,862
708,-164,128,-136,-154,-1134,918
709,-122,133,-128,-689,-1581,805
710,-75,145,-83,-913,-2153,629
711,-33,177,-3,-745,-2620,397
712,39,193,64,-118,-2946,82
713,100,164,114,522,-3251,-176
714,118,102,158,887,-3558,-314
715,183,-40,196,803,-3767,-76
716,202,-55,291,503,-3943,576
717,209,47,336,3,-4191,1137
718,274,176,391,-628,-4450,1229
719,356,285,496,-896,-4667,947
720,449,256,587,-439,-4859,477
721,512,156,742,348,-5019,180
722,483,110,901,673,-5206,211
723,512,50,1005,-32,-5232,199
724,586,-53,1134,-1322,-5122,446
725,695,-86,1301,-2435,-5060,877
726,746,0,1510,-2603,-5019,1180
727,767,90,1744,-1720,-5099,1082
728,826,125,1930,-286,-5054,729
729,814,120,2048,891,-4808,420
730,798,59,2048,1309,-4482,283
731,822,40,2048,944,-3933,283
732,834,70,2048,352,-3228,344
733,821,62,2048,-91,-2411,444
734,824,72,2048,-523,-1677,592
735,847,56,2048,-814,-1101,631
736,821,46,2048,-439,-458,557
737,837,59,2048,-726,-716,621
738,840,52,2048,-228,-140,502
739,859,93,2048,-52,220,424
740,894,118,2048,188,618,205
741,924,49,2048,475,1122,100
742,899,41,2048,632,1804,71
743,871,45,2048,833,2597,45
744,850,49,1971,1042,3255,10
745,823,56,1791,1059,3782,-43
746,787,73,1616,1059,4102,-45
747,707,104,1498,1020,4255,-99
748,671,78,1390,813,4352,-140
749,663,41,1299,653,4348,-66
750,630,-33,1272,604,4313,182
751,597,-33,1255,557,4356,479
752,554,15,1206,680,4579,635
753,513,65,1081,983,4866,639
754,495,94,949,1356,5095,539
755,492,79,815,1510,5159,467
756,441,92,716,1350,5018,461
757,375,96,660,942,4804,512
758,288,92,594,618,4585,696
759,205,73,512,268,4409,869
760,149,52,417,-204,4188,983
761,118,37,373,-488,3897,1022
762,109,22,318,-480,3499,1020
763,76,26,279,-245,3057,1059
764,41,29,262,40,2731,1053
765,0,101,232,36,2518,938
766,-36,187,227,-437,2431,592
767,-26,254,185,-986,2440,33
768,5,291,136,-1263,2454,-599
769,87,224,115,-1200,2405,-1056
770,175,107,87,-824,2163,-1012
771,91,44,39,-263,1755,-574
772,-23,57,14,225,1413,-92
773,-104,92,-44,409,1276,219
774,-164,108,-65,165,1098,262
775,-225,119,-115,-249,792,162
776,-269,92,-155,-521,470,16
777,-258,72,-161,-497,91,-80
778,-246,68,-184,-329,-368,-58
779,-245,60,-190,-238,-925,18
780,-217,55,-175,-283,-1517,170
781,-181,75,-124,-425,-2007,262
782,-71,28,27,-814,-2818,334
783,-143,86,-71,-605,-2468,307
784,-4,-13,114,-1021,-3087,502
785,35,41,157,-1136,-3271,645
786,48,99,188,-1015,-3374,666
787,67,60,213,-751,-3521,574
788,94,25,219,-685,-3718,590
789,128,2,269,-991,-3917,686
790,192,-9,385,-1460,-4193,709
791,260,23,465,-1755,-4485,672
792,323,40,572,-1687,-4790,619
793,414,6,740,-1392,-5081,518
794,500,-19,981,-874,-5292,420
795,540,-70,1192,-408,-5222,369
796,585,-118,1328,-216,-4876,375
797,636,-155,1436,-423,-4530,688
798,660,-125,1515,-804,-4341,967
799,723,-63,1615,-954,-4335,1004
800,745,47,1682,-808,-4312,791
801,727,119,1754,-298,-4165,428
802,694,119,1793,276,-4054,-21
803,731,30,1890,395,-3839,-529
804,819,-117,2034,186,-3515,-646
805,779,-182,2048,-5,-3185,-252
806,742,-120,2048,-58,-2714,96
807,727,-80,2048,-265,-2079,276
808,722,-32,2048,-443,-1411,229
809,759,-11,2048,-425,-839,51
810,790,0,2048,-236,-480,-60
811,813,-51,2048,26,-278,-152
812,829,-103,2048,366,-27,45
813,800,-64,2048,567,419,233
814,811,-1,2048,421,1028,196
815,808,22,2048,382,1749,57
816,841,16,2048,673,2436,-129
817,853,2,2023,1102,3038,-219
818,821,21,1874,1280,3409,-316
819,807,45,1769,1247,3675,-420
820,779,21,1677,1259,3872,-404
821,726,50,1587,1321,4065,-406
822,682,54,1490,1337,4311,-484
823,641,44,1371,1309,4507,-560
824,607,30,1273,1237,4645,-580
825,567,31,1174,1120,4720,-531
826,557,50,1051,1044,4727,-519
827,494,62,938,954,4626,-601
828,438,51,889,854,4477,-670
829,404,30,835,782,4413,-668
830,380,35,775,842,4391,-638
831,344,65,709,960,4395,-648
832,309,78,638,1169,4432,-707
833,266,81,535,1432,4528,-797
834,227,56,413,1614,4591,-830
835,176,68,285,1751,4587,-840
836,118,69,123,1731,4452,-896
837,39,56,-20,1557,4136,-1025
838,-52,15,-140,1331,3632,-982
839,-110,-15,-251,1026,3038,-707
840,-162,18,-312,661,2442,-416
841,-224,29,-317,57,1825,-191
842,-222,10,-287,-570,1239,-21
843,-233,-17,-249,-927,729,98
844,-225,-35,-226,-1021,325,248
845,-213,-47,-187,-917,-36,508
846,-232,-17,-120,-868,-364,723
847,-215,22,-117,-968,-568,795
848,-199,31,-108,-943,-759,760
849,-177,37,-110,-827,-1099,770
850,-170,24,-77,-693,-1452,791
851,-161,19,-50,-712,-1778,836
852,-158,2,8,-859,-2077,850
853,-126,-27,54,-1034,-2292,862
854,-51,-47,72,-1066,-2478,918
855,-3,-19,87,-865,-2800,994
856,55,31,146,-431,-3249,951
857,56,21,212,169,-3694,883
858,78,-28,266,604,-3943,1016
859,155,-26,323,378,-3954,1190
860,226,42,384,-409,-3946,1336
861,300,95,463,-1124,-3911,1340
862,415,98,526,-1206,-4007,1194
863,480,120,577,-597,-4280,1072
864,461,153,642,372,-4720,1092
865,476,109,743,815,-5062,1182
866,533,92,928,147,-5179,1199
867,612,111,1114,-808,-5101,1162
868,669,153,1190,-1201,-4903,965
869,691,110,1299,-816,-4751,645
870,737,17,1357,-83,-4761,569
871,708,93,1489,917,-4784,1010
872,738,39,1427,754,-4784,737
873,712,183,1516,315,-4614,1072
874,791,237,1615,-449,-4275,912
875,881,199,1736,-984,-4097,571
876,927,146,1889,-939,-4142,221
877,889,150,2021,-7,-4237,12
878,878,83,2048,1172,-4073,-13
879,849,34,2048,1624,-3480,153
880,858,117,2048,1196,-2571,422
881,875,186,2048,462,-1657,502
882,917,164,2048,38,-872,389
883,944,196,2048,-136,-171,260
884,931,214,2048,-70,307,168
885,923,201,2048,348,604,22
886,909,162,2048,766,948,-88
887,911,104,2048,833,1358,-127
888,895,92,1980,737,1870,-2
889,862,144,1891,594,2409,63
890,862,158,1783,436,2870,-62
891,859,143,1683,428,3218,-219
892,847,137,1588,526,3452,-369
893,822,97,1525,653,3587,-429
894,791,73,1433,915,3657,-480
895,743,80,1346,1288,3634,-447
896,692,94,1308,1538,3671,-418
897,655,66,1259,1469,3837,-412
898,630,61,1176,1178,4128,-328
899,616,82,1099,930,4425,-287
900,599,92,1025,829,4540,-318
901,548,127,959,926,4585,-414
902,487,145,886,1085,4694,-525
903,438,120,803,1137,4751,-625
904,414,89,739,1053,4739,-642
905,368,69,692,792,4698,-617
906,323,77,607,585,4630,-607
907,324,23,526,569,4540,-480
908,265,51,398,708,4368,-277
909,209,89,314,795,4138,-174
910,141,92,211,801,3852,-215
911,79,71,96,924,3542,-316
912,25,95,1,1139,3225,-404
913,-19,127,-75,1223,2841,-517
914,-75,143,-119,1088,2362,-629
915,-130,126,-163,772,1889,-746
916,-142,109,-181,393,1536,-799
917,-115,87,-154,-113,1239,-812
918,-101,65,-137,-550,921,-750
919,-80,29,-117,-853,653,-621
920,-37,24,-133,-947,473,-338
921,-32,63,-110,-949,266,-117
922,-63,137,-101,-820,-58,-58
923,-81,187,-88,-640,-439,-80
924,-72,197,-28,-343,-704,-228
925,-56,189,-14,-1,-980,-330
926,-71,127,24,44,-1216,-254
927,-60,88,17,-290,-1292,-209
928,-40,60,23,-783,-1339,-72
929,-11,62,-1,-1238,-1544,67
930,32,72,25,-1314,-1966,139
931,93,133,57,-935,-2614,223
932,118,159,134,-458,-3316,262
933,179,199,218,-33,-3857,264
934,267,162,348,-70,-4155,256
935,322,162,523,-663,-4247,307
936,363,125,690,-1490,-4163,276
937,385,121,789,-2019,-3968,248
938,421,148,809,-1972,-3749,221
939,457,132,843,-1576,-3712,248
940,507,101,912,-1273,-3958,322
941,501,80,1019,-1189,-4316,332
942,503,70,1116,-1302,-4564,276
943,544,44,1233,-1482,-4607,190
944,565,-2,1418,-1775,-4556,162
945,558,-21,1567,-1736,-4468,256
946,548,-9,1692,-1263,-4306,326
947,583,32,1783,-638,-3919,356
948,660,46,1847,-365,-3515,260
949,711,104,1899,-445,-3118,117
950,698,71,1938,-708,-2851,-35
951,728,-37,2020,-773,-2609,14
952,697,-18,2048,-398,-2425,207
953,681,32,2048,-35,-2243,274
954,682,9,2048,254,-1915,287
955,675,18,2048,575,-1444,358
956,670,43,2048,829,-859,485
957,696,103,2048,878,-343,520
958,757,133,2048,585,81,510
959,813,148,2048,229,550,449
960,842,172,2048,73,950,408
961,818,181,2048,182,1237,315
962,813,164,2023,378,1552,129
963,782,157,1939,631,1938,-66
964,783,155,1868,903,2388,-285
965,762,142,1729,1182,2755,-435
966,728,161,1611,1190,3069,-568
967,707,177,1493,1051,3380,-744
968,718,205,1395,917,3675,-933
969,703,179,1323,797,3909,-1140
970,697,145,1215,784,4093,-1273
971,678,126,1110,829,4184,-1291
972,631,153,1024,858,4122,-1156
973,574,201,953,870,4067,-1195
974,558,162,896,934,4022,-1295
975,538,121,828,1096,3972,-1322
976,470,109,746,1299,3874,-1267
977,376,142,691,1321,3858,-1213
978,342,157,561,1126,3983,-1260
979,307,189,442,922,4061,-1334
980,237,229,347,708,4013,-1447
981,191,228,256,614,3878,-1658
982,156,171,146,606,3706,-1863
983,127,78,84,544,3382,-1830
984,90,-19,49,362,2876,-1480
985,-1,-32,39,42,2319,-1060
986,-78,-30,33,-292,1897,-777
987,-85,-12,3,-390,1661,-656
988,-98,5,-30,-431,1497,-609
989,-117,21,-47,-408,1276,-601
990,-135,53,-84,-378,1118,-681
991,-151,62,-131,-288,946,-830
992,-176,42,-151,-242,647,-984
993,-182,-31,-177,-318,302,-1058
994,-180,-46,-155,-566,-40,-980
995,-168,-65,-177,-1001,-374,-804
996,-165,-53,-170,-1326,-718,-586
997,-149,-67,-134,-1451,-1159,-402
998,-144,-33,-79,-1351,-1616,-297
999,-134,-3,-10,-1165,-1915,-318
1000,8,25,108,-1095,-2327,-660
1001,71,-2,168,-1187,-2616,-806
1002,-80,20,68,-1076,-2109,-451
1003,142,-36,222,-1361,-3013,-681
1004,203,-35,289,-1441,-3466,-387
1005,215,18,402,-1380,-3935,-56
1006,220,51,553,-1400,-4290,86
1007,309,31,683,-1794,-4478,78
1008,408,20,855,-2611,-4482,61
1009,514,39,1017,-3013,-4409,-12
1010,567,15,1168,-2622,-4345,-156
1011,612,-53,1268,-1632,-4294,-262
1012,526,-50,1322,-572,-4216,31
1013,499,-40,1335,-326,-4069,363
1014,477,-15,1383,-878,-3925,496
1015,527,4,1450,-1638,-3818,291
1016,567,36,1541,-1761,-3831,106
1017,574,-8,1680,-1494,-3980,37
1018,624,-47,1813,-1335,-4009,-21
1019,654,-24,1940,-1279,-3812,51
1020,706,-24,2048,-1335,-3558,31
1021,741,-55,2048,-1351,-3167,26
1022,762,-52,2048,-1113,-2534,78
1023,744,-19,2048,-845,-1825,113
1024,759,-44,2048,-812,-1216,63
1025,773,-18,2048,-738,-685,-27
1026,823,17,2048,-398,-243,-148
1027,831,75,2048,172,71,-236
1028,849,104,2048,655,388,-390
1029,833,88,2048,706,774,-527
1030,828,65,2048,532,1292,-519
1031,829,79,2025,391,1856,-519
1032,788,104,1908,284,2473,-648
1033,760,97,1797,225,3095,-871
1034,759,101,1631,202,3579,-1101
1035,747,95,1478,323,3823,-1252
1036,691,89,1335,481,3813,-1416
1037,639,90,1228,573,3794,-1633
1038,632,21,1136,542,3780,-1762
1039,584,-57,1104,477,3725,-1574
1040,498,-63,1069,499,3716,-1371
1041,432,-24,945,587,3817,-1312
1042,390,2,845,696,3970,-1308
1043,354,5,782,731,4013,-1377
1044,320,19,720,674,3934,-1523
1045,297,23,667,739,3823,-1711
1046,248,10,645,801,3636,-1877
1047,226,-26,611,731,3421,-1974
1048,215,-51,578,505,3292,-1972
1049,177,-41,552,194,3257,-1916
1050,150,-37,520,-99,3257,-1898
1051,126,-102,485,-234,3282,-1900
1052,116,-173,405,-138,3280,-1685
1053,69,-205,364,174,3218,-1316
1054,11,-154,281,452,3040,-1033
1055,-30,-125,169,546,2841,-869
1056,-93,-108,111,663,2526,-760
1057,-147,-93,31,758,2151,-709
1058,-157,-69,-6,684,1815,-730
1059,-185,-54,-44,544,1460,-787
1060,-177,-73,-63,358,1091,-920
1061,-147,-178,-54,161,700,-963
1062,-119,-206,-90,26,292,-717
1063,-128,-169,-113,75,-165,-283
1064,-163,-102,-96,133,-616,10
1065,-165,-77,-91,42,-1005,6
1066,-131,-64,-59,-68,-1335,-64
1067,-127,-71,6,-148,-1630,-111
1068,-112,-63,24,-308,-1917,-203
1069,-88,-36,61,-535,-2153,-390
1070,-20,-62,96,-687,-2353,-554
1071,50,-110,168,-732,-2534,-631
1072,104,-157,248,-695,-2761,-461
1073,116,-142,284,-601,-3025,-127
1074,112,-95,324,-507,-3239,153
1075,127,-30,409,-519,-3464,268
1076,174,-23,515,-732,-3695,313
1077,223,32,635,-1068,-3868,196
1078,305,86,822,-1371,-3911,-43
1079,346,14,1016,-1599,-3929,-301
1080,381,-123,1160,-1742,-3943,-332
1081,469,-176,1249,-1687,-3788,-72
1082,501,-142,1346,-1390,-3650,326
1083,497,-76,1414,-941,-3708,633
1084,524,36,1450,-369,-3800,742
1085,550,97,1548,163,-3872,649
1086,595,113,1680,477,-3911,455
1087,605,156,1817,514,-3884,205
1088,582,142,1924,196,-3661,-90
1089,575,79,2014,-341,-3206,-428
1090,638,-66,2048,-933,-2595,-383
1091,626,-103,2048,-1513,-1980,39
1092,617,-72,2048,-1843,-1448,473
1093,623,17,2048,-1677,-1058,617
1094,659,72,2048,-1152,-878,446
1095,669,74,2048,-470,-872,186
1096,660,75,2048,86,-796,-70
1097,677,76,2048,362,-521,-426
1098,709,-2,2048,385,38,-672
1099,721,-42,2048,325,770,-668
1100,688,5,2048,247,1671,-648
1101,701,35,1997,110,2516,-674
1102,709,71,1810,131,3018,-748
1103,681,119,1660,338,3171,-824
1104,660,158,1563,602,3194,-974
1105,634,160,1490,719,3202,-1209
1106,590,189,1409,543,3233,-1519
1107,545,226,1325,331,3343,-1929
1108,506,220,1271,124,3485,-2412
1109,476,142,1201,-447,4122,-3371
1110,500,189,1239,-160,3747,-2928
1111,464,62,1136,-587,4561,-3664
1112,469,-21,1054,-677,4921,-3771
1113,465,-47,910,-550,5118,-3547
1114,439,-72,821,-326,5036,-3119
1115,404,-130,743,-173,4763,-2601
1116,310,-125,648,-9,4395,-2037
1117,208,-89,606,157,4186,-1629
1118,158,-86,528,282,4018,-1490
1119,119,-97,423,422,3821,-1513
1120,59,-122,361,514,3552,-1568
1121,2,-179,319,522,3225,-1570
1122,-30,-219,265,501,2923,-1527
1123,-76,-250,248,432,2632,-1386
1124,-98,-265,210,243,2358,-1193
1125,-122,-259,184,-37,2055,-892
1126,-155,-259,156,-279,1712,-597
1127,-181,-240,145,-308,1376,-406
1128,-177,-227,142,-109,1100,-320
1129,-175,-222,139,251,858,-265
1130,-170,-210,121,749,702,-217
1131,-179,-213,103,1153,577,-170
1132,-179,-182,67,1225,464,-109
1133,-173,-157,38,1137,345,-70
1134,-172,-118,14,1002,171,-76
1135,-151,-72,26,881,-58,-88
1136,-142,-61,16,836,-337,-105
1137,-134,-64,13,840,-677,-160
1138,-129,-63,9,807,-1036,-232
1139,-108,-88,19,637,-1353,-246
1140,-80,-93,39,264,-1675,-234
1141,-52,-62,92,-228,-1982,-203
1142,-30,-12,151,-576,-2247,-234
1143,-21,14,204,-609,-2423,-410
1144,25,-3,241,-443,-2648,-629
1145,69,-40,260,-230,-3070,-648
1146,98,-30,335,-115,-3499,-482
1147,106,-7,458,-124,-3841,-363
1148,124,-42,576,-316,-4040,-308
1149,178,-125,662,-634,-4140,-140
1150,239,-150,757,-943,-4320,246
1151,299,-61,888,-1234,-4454,596
1152,333,34,998,-1445,-4493,631
1153,395,94,1077,-1394,-4480,434
1154,460,150,1218,-945,-4585,151
1155,473,181,1386,-470,-4806,-187
1156,516,130,1580,-138,-4864,-582
1157,563,11,1790,-152,-4669,-689
1158,557,-57,1996,-708,-4331,-377
1159,558,-58,2048,-1435,-3821,12
1160,567,-37,2048,-1539,-3318,278
1161,601,14,2048,-828,-2882,338
1162,606,41,2048,213,-2589,264
1163,582,57,2048,1045,-2337,84
1164,574,102,2048,1477,-2054,-99
1165,568,160,2048,1393,-1620,-369
1166,593,226,2048,1020,-1052,-760
1167,614,268,2048,622,-411,-1271
1168,657,280,2048,342,216,-1738
1169,638,255,2048,-76,901,-2127
1170,644,169,2048,-433,1661,-2332
1171,697,94,2048,-509,2300,-2250
1172,723,13,2045,-414,2636,-1781
1173,637,41,1966,-242,2794,-1170
1174,553,95,1881,-171,3165,-828
1175,581,143,1758,-136,3673,-869
1176,562,169,1599,75,4013,-951
1177,498,159,1448,295,4235,-1062
1178,466,168,1323,409,4354,-1166
1179,473,167,1208,399,4372,-1244
1180,409,144,1090,256,4354,-1357
1181,360,134,969,-31,4266,-1469
1182,317,97,864,-365,4175,-1482
1183,274,61,787,-701,4032,-1392
1184,240,19,690,-931,3835,-1215
1185,219,17,633,-1074,3638,-1017
1186,179,22,577,-1160,3436,-803
1187,153,10,532,-1164,3298,-650
1188,121,-8,493,-1007,3184,-570
1189,81,-28,435,-812,3016,-488
1190,51,-56,365,-636,2880,-351
1191,-16,-87,283,-425,2737,-228
1192,-68,-119,204,-287,2569,-82
1193,-104,-122,157,-320,2452,69
1194,-118,-124,99,-537,2302,237
1195,-140,-129,27,-755,2052,440
1196,-157,-132,3,-923,1671,629
1197,-173,-117,-14,-1187,1212,758
1198,-173,-86,1,-1427,798,774
1199,-169,-72,46,-1548,483,639
1200,-142,-82,43,-1435,278,414
1201,-134,-99,62,-1050,116,242
1202,-149,-129,43,-455,-91,180
1203,-140,-163,26,120,-347,219
1204,-118,-166,0,295,-650,324
1205,-121,-149,12,276,-999,477
1206,-132,-133,0,290,-1364,678
1207,-129,-128,9,465,-1702,862
1208,-119,-81,22,711,-2025,1004
1209,-105,-27,64,702,-2314,1010
1210,-68,29,90,596,-2568,914
1211,12,37,118,870,-2907,758
1212,60,27,168,1428,-3327,705
1213,119,26,243,1946,-3773,799
1214,140,44,318,2006,-4097,979
1215,177,91,440,1629,-4255,1037
1216,249,147,520,965,-4232,975
1217,283,185,615,399,-4105,752
1218,319,179,638,194,-3995,344
1219,356,156,679,340,-3948,-35
1220,396,118,767,293,-4144,-289
1221,412,118,871,-54,-4443,-570
1222,475,117,1042,-759,-4626,-838
1223,554,149,1193,-1619,-4806,-1203
1224,607,207,1421,-2027,-4696,-1748
1225,621,145,1620,-2083,-4372,-2469
1226,628,6,1667,-1767,-3927,-3160
1227,696,-118,1699,-1179,-3589,-3482
1228,716,-229,1782,-646,-3657,-3232
1229,710,-257,1968,-443,-3724,-2679
1230,676,-199,2048,-457,-3538,-2144
1231,657,-183,2048,-398,-3015,-1601
1232,636,-173,2048,-175,-2409,-1027
1233,652,-101,2048,-220,-1855,-629
1234,703,-36,2048,-488,-1282,-504
1235,724,3,2048,-667,-669,-545
1236,721,-4,2048,-425,-103,-586
1237,718,-7,2048,22,395,-506
1238,699,-36,2048,77,833,-334
1239,668,-42,2048,-300,1136,-154
1240,625,-47,2048,-603,1343,31
1241,592,-38,2013,-923,1598,82
1242,577,-35,1942,-1097,1907,139
1243,601,-31,1872,-949,2192,176
1244,601,-47,1831,-621,2393,295
1245,588,-46,1749,-189,2591,449
1246,568,-19,1678,147,2833,559
1247,541,-23,1599,454,3102,639
1248,515,-19,1503,737,3411,696
1249,497,-12,1388,729,3690,752
1250,466,-23,1283,469,3872,832
1251,441,-41,1195,40,3932,1026
1252,424,-13,1118,-263,3925,1295
1253,404,39,1020,-230,3925,1494
1254,373,95,940,163,3925,1530
1255,338,128,885,668,3956,1369
1256,308,136,805,1051,3981,1026
1257,273,138,739,1202,4089,637
1258,240,121,676,981,4270,315
1259,189,98,586,698,4374,114
1260,162,77,491,571,4364,43
1261,121,61,404,561,4233,43
1262,64,63,324,555,4030,41
1263,34,61,256,569,3807,-6
1264,5,82,213,413,3638,-144
1265,8,91,158,75,3399,-301
1266,-1,79,131,-245,3114,-504
1267,-33,47,86,-517,2825,-707
1268,-43,13,68,-634,2479,-820
1269,-113,-48,76,-710,2145,-871
1270,-138,-110,75,-826,1932,-867
1271,-109,-140,41,-960,1772,-793
1272,-99,-187,-13,-972,1554,-607
1273,-100,-198,-51,-800,1222,-365
1274,-111,-207,-116,-619,784,-166
1275,-138,-210,-123,-308,341,28
1276,-153,-216,-147,233,-126,197
1277,-163,-223,-165,770,-575,326
1278,-130,-220,-126,1010,-993,459
1279,-99,-219,-108,1065,-1419,670
1280,-102,-207,-63,864,-1786,963
1281,-91,-162,-57,647,-2077,1264
1282,-30,-74,-23,583,-2409,1467
1283,-8,-29,34,751,-2823,1567
1284,-1,-7,102,987,-3208,1615
1285,2,17,139,973,-3573,1557
1286,63,44,204,876,-3958,1475
1287,150,60,300,778,-4415,1446
1288,194,81,396,542,-4937,1391
1289,230,110,530,276,-5368,1254
1290,279,81,689,55,-5624,1076
1291,329,78,820,-62,-5788,957
1292,397,83,958,-50,-5790,877
1293,429,119,1136,-99,-5669,881
1294,452,110,1303,-197,-5468,977
1295,523,123,1423,-443,-5304,899
1296,615,163,1541,-695,-5208,783
1297,702,187,1668,-650,-5208,684
1298,743,210,1829,-464,-5255,537
1299,708,147,1937,-290,-5181,280
1300,688,72,2048,-259,-4874,84
1301,711,26,2048,-376,-4286,65
1302,724,3,2048,-681,-3527,45
1303,689,-20,2048,-1056,-2753,-60
1304,727,-13,2048,-1089,-2060,24
1305,753,8,2048,-790,-1540,94
1306,748,-3,2048,-398,-1208,80
1307,745,-20,2048,51,-919,127
1308,743,-63,2048,372,-634,395
1309,740,-64,2048,372,-294,711
1310,738,-22,2048,-31,167,899
1311,748,45,2048,-519,747,873
1312,738,51,2025,-738,1348,694
1313,742,44,1904,-515,1829,625
1314,723,24,1779,-126,2136,584
1315,711,-21,1694,182,2296,592
1316,668,-50,1615,368,2446,696
1317,659,-31,1549,270,2690,729
1318,633,-17,1504,16,3034,692
1319,602,-8,1402,-95,3446,666
1320,550,-38,1340,-339,3839,668
1321,528,-27,1238,-570,4204,633
1322,542,-21,1147,-654,4434,656
1323,544,-34,1035,-464,4497,760
1324,467,-1,929,-74,4348,852
1325,403,-15,865,333,4184,848
1326,342,-47,792,567,3999,881
1327,308,-88,771,563,3893,920
1328,303,-110,771,514,3886,1129
1329,295,-64,735,561,3972,1278
1330,249,-73,680,575,4149,1246
1331,231,-100,576,710,4257,1207
1332,178,-92,467,901,4223,1281
1333,132,-65,370,1090,4093,1360
1334,103,-63,290,1350,3829,1328
1335,35,-50,213,1579,3489,1342
1336,-20,-46,125,1514,3204,1287
1337,-80,-41,21,1030,2557,1180
1338,-54,-44,72,1264,2899,1231
1339,-105,-57,-26,835,2194,1131
1340,-98,-107,-75,622,1831,1084
1341,-106,-156,-72,417,1405,1293
1342,-157,-144,-83,239,1032,1572
1343,-183,-124,-105,200,741,1738
1344,-164,-87,-109,151,479,1752
1345,-159,-70,-133,81,110,1690
1346,-167,-45,-131,139,-323,1623
1347,-171,-3,-152,352,-816,1502
1348,-171,-8,-138,635,-1353,1352
1349,-113,-27,-96,762,-1882,1293
1350,-85,-23,-47,815,-2361,1406
1351,-30,-16,33,881,-2790,1598
1352,-27,39,114,706,-3058,1787
1353,1,91,188,202,-3132,1764
1354,57,119,222,-203,-3064,1645
1355,104,141,245,-288,-3105,1442
1356,182,138,260,-288,-3460,1264
1357,264,111,311,-269,-3915,1104
1358,313,106,408,-136,-4456,1094
1359,311,100,533,40,-4954,1197
1360,336,117,661,184,-5152,1338
1361,402,152,811,292,-4929,1336
1362,466,189,904,290,-4569,1166
1363,486,189,961,180,-4271,951
1364,484,174,1009,-48,-4087,799
1365,511,148,1041,-351,-4101,651
1366,574,106,1152,-603,-4234,586
1367,628,52,1266,-876,-4392,725
1368,641,13,1441,-1171,-4521,887
1369,661,-38,1659,-1425,-4487,1028
1370,680,-98,1832,-1560,-4165,1178
1371,682,-93,1969,-1279,-3728,1393
1372,657,-39,2043,-443,-3267,1422
1373,670,-22,2048,532,-2903,1256
1374,689,-21,2048,1249,-2570,1031
1375,699,-50,2048,1440,-2392,895
1376,735,-56,2048,1217,-2120,934
1377,761,-31,2048,663,-1778,998
1378,774,-24,2048,28,-1349,1047
1379,789,-22,2048,-304,-784,1090
1380,831,-3,2048,-162,-185,1071
1381,825,12,2048,321,366,1030
1382,900,-30,2048,948,960,934
1383,871,-34,2048,1620,1446,985
1384,821,23,1988,2026,1866,973
1385,798,58,1861,2075,2302,928
1386,787,77,1759,1762,2655,852
1387,763,91,1668,1407,2958,821
1388,740,62,1557,1122,3300,772
1389,721,7,1504,936,3671,959
1390,671,1,1444,940,4018,1166
1391,640,18,1325,1120,4358,1221
1392,594,24,1178,1323,4673,1207
1393,512,52,1029,1364,4798,1074
1394,459,100,920,1225,4815,881
1395,421,106,819,983,4694,699
1396,410,35,759,729,4432,621
1397,380,-29,724,516,4089,957
1398,281,-34,741,344,3723,1299
1399,247,-43,767,88,3708,1571
1400,204,-12,749,-66,3897,1844
1401,175,43,676,49,4163,1887
1402,214,79,587,411,4382,1803
1403,210,120,497,864,4317,1717
1404,188,168,406,1198,3946,1338
1405,191,190,354,1307,3468,957
1406,172,206,311,1385,2956,602
1407,135,176,259,1622,2397,365
1408,79,168,237,1963,1895,246
1409,55,126,206,1922,1622,88
1410,36,91,199,1598,1432,31
1411,18,88,178,1247,1391,28
1412,29,102,106,989,1450,41
1413,7,136,35,860,1411,-94
1414,-35,171,-56,805,1309,-424
1415,-86,180,-133,838,1155,-886
1416,-151,172,-201,875,929,-1345
1417,-188,108,-254,866,639,-1740
1418,-163,26,-289,624,321,-1871
1419,-137,-86,-303,188,-126,-1467
1420,-174,-120,-280,-416,-626,-853
1421,-156,-94,-267,-1087,-1030,-267
1422,-102,-34,-231,-1554,-1532,88
1423,-73,16,-193,-1695,-2105,137
1424,-53,61,-113,-1587,-2624,28
1425,-1,75,-64,-1410,-3070,-86
1426,48,26,18,-1287,-3482,-154
1427,126,3,87,-1267,-3968,-95
1428,205,44,220,-1294,-4327,-70
1429,246,47,400,-1378,-4616,-21
1430,320,10,555,-1529,-4741,92
1431,363,-3,755,-1886,-4739,180
1432,368,-24,948,-2314,-4730,180
1433,433,-21,1178,-2318,-4556,63
1434,498,-24,1300,-1853,-4271,71
1435,547,-37,1347,-1279,-4023,129
1436,592,-81,1426,-1003,-3964,330
1437,605,-62,1478,-1181,-4058,535
1438,584,-15,1599,-1435,-4177,592
1439,545,15,1724,-1464,-4310,520
1440,538,-5,1848,-1304,-4253,291
1441,565,-62,1996,-1037,-4009,30
1442,595,-108,2048,-542,-3753,-60
1443,627,-138,2048,59,-3398,71
1444,642,-129,2048,399,-2978,283
1445,634,-85,2048,182,-2394,397
1446,673,-61,2048,-228,-1583,391
1447,729,-37,2048,-457,-882,446
1448,738,8,2048,-332,-458,494
1449,744,70,2048,108,-202,364
1450,746,63,2048,575,87,172
1451,724,56,2048,723,432,26
1452,715,93,2048,719,891,-158
1453,741,62,1951,766,1319,-381
1454,728,36,1889,934,1677,-429
1455,701,15,1787,983,2052,-400
1456,681,44,1659,860,2485,-386
1457,636,66,1511,696,2833,-383
1458,609,70,1401,729,3061,-426
1459,550,73,1307,782,3118,-490
1460,469,22,1254,493,3186,-644
1461,491,69,1263,678,3136,-566
1462,463,-7,1225,249,3259,-584
1463,437,-15,1241,47,3345,-484
1464,453,-31,1233,-82,3393,-361
1465,463,-15,1249,-7,3468,-242
1466,451,15,1229,352,3561,-226
1467,454,14,1143,764,3698,-322
1468,428,61,1013,1196,3759,-441
1469,368,63,944,1553,3667,-582
1470,337,25,897,1704,3554,-666
1471,344,-13,900,1520,3509,-543
1472,330,-8,860,1165,3565,-304
1473,313,61,811,885,3659,-142
1474,298,98,743,792,3708,-148
1475,297,78,658,1000,3630,-261
1476,229,66,498,1448,3372,-431
1477,153,89,357,1792,3069,-527
1478,71,84,235,2022,2622,-664
1479,16,45,132,2096,2257,-754
1480,-33,14,63,1940,1934,-670
1481,-78,-16,-4,1508,1665,-494
1482,-175,-13,-53,874,1518,-191
1483,-279,23,-68,153,1522,108
1484,-271,44,-119,-578,1704,289
1485,-197,53,-137,-1269,1690,336
1486,-183,65,-157,-1636,1348,338
1487,-126,83,-183,-1632,884,231
1488,-111,77,-188,-1261,294,63
1489,-148,89,-172,-656,-374,-199
1490,-178,41,-89,-130,-929,-383
1491,-165,-62,-43,81,-1232,-377
1492,-166,-71,-15,114,-1376,-183
1493,-177,-68,-14,-3,-1419,53
1494,-149,-53,-45,-210,-1446,239
1495,-110,8,-89,-414,-1571,317
1496,-103,48,-125,-390,-1823,342
1497,-65,88,-150,-267,-2271,319
1498,-19,137,-131,-181,-2810,235
1499,33,124,-20,-140,-3413,131
1500,83,58,107,-292,-3919,170
1501,128,19,266,-664,-4103,358
1502,167,43,433,-1111,-4050,578
1503,226,51,602,-1548,-3823,584
1504,307,41,757,-1824,-3478,571
1505,423,19,847,-1837,-3236,617
1506,502,28,811,-1628,-3278,614
1507,544,81,795,-1378,-3634,643
1508,510,115,858,-1101,-4237,690
1509,524,122,948,-957,-4857,641
1510,577,83,1101,-884,-5294,483
1511,620,39,1316,-894,-5566,393
1512,659,-45,1578,-908,-5312,256
1513,672,-98,1780,-1007,-4720,221
1514,618,-115,1814,-1123,-3982,385
1515,664,-105,1767,-1033,-3202,588
1516,672,-27,1712,-900,-2870,664
1517,663,-12,1695,-794,-2995,592
1518,635,-14,1757,-484,-3257,533
1519,626,-45,1920,-132,-3419,457
1520,635,-116,2048,-197,-3331,399
1521,687,-151,2048,-568,-2966,405
1522,739,-139,2048,-933,-2161,528
1523,838,-117,2048,-826,-1343,653
1524,854,-23,2048,-60,-663,658
1525,819,34,2048,717,-128,502
1526,800,61,2008,1208,212,297
1527,773,83,1916,1333,493,127
1528,783,105,1846,1047,716,-47
1529,794,103,1824,625,932,-125
1530,760,99,1789,354,1147,-195
1531,766,68,1799,249,1436,-189
1532,767,77,1825,292,1835,-183
1533,728,40,1764,508,2288,-236
1534,711,53,1667,854,2766,-398
1535,709,70,1523,1231,3141,-535
1536,675,75,1413,1567,3304,-640
1537,631,77,1315,1747,3339,-754
1538,587,71,1208,1625,3413,-806
1539,543,73,1150,1348,3466,-787
1540,514,46,1126,991,3520,-748
1541,499,13,1110,711,3511,-652
1542,492,19,1091,637,3503,-556
1543,453,44,1065,663,3538,-539
1544,442,69,1015,780,3669,-660
1545,390,45,971,985,3788,-830
1546,351,-24,940,1096,3895,-826
1547,331,-37,915,1094,4055,-631
1548,336,7,880,952,4227,-428
1549,292,63,790,772,4198,-297
1550,271,83,720,762,4143,-275
1551,255,93,681,987,4009,-344
1552,223,99,591,1254,3753,-404
1553,197,92,543,1477,3440,-451
1554,163,104,474,1516,3171,-498
1555,109,106,415,1448,2958,-547
1556,67,86,361,1340,2745,-601
1557,16,76,272,1245,2540,-607
1558,-45,78,203,1200,2294,-545
1559,-118,71,149,922,2018,-408
1560,-121,43,127,282,1766,-174
1561,-129,43,93,-449,1532,84
1562,-107,70,53,-906,1266,252
1563,-79,101,45,-1048,983,297
1564,-80,119,4,-867,651,239
1565,-61,130,-31,-466,329,104
1566,-84,124,-42,90,-25,-6
1567,-143,114,-64,528,-359,-113
1568,-154,73,-92,561,-646,-150
1569,-144,14,-77,192,-966,-86
1570,-126,0,-52,-341,-1284,88
1571,-119,27,-43,-884,-1527,309
1572,-81,47,-44,-1179,-1728,426
1573,-73,72,-37,-1195,-1964,469
1574,-68,82,-60,-1085,-2239,449
1575,-8,88,-50,-835,-2564,383
1576,3,93,-26,-593,-2960,281
1577,106,85,44,-335,-3429,125
1578,147,52,134,-152,-3950,221
1579,166,66,272,-216,-4374,342
1580,200,97,404,-501,-4452,449
1581,277,105,542,-1167,-4255,494
1582,330,103,654,-1810,-3978,424
1583,473,95,849,-2060,-3694,221
1584,421,108,756,-2136,-3755,321
1585,511,75,947,-1736,-3909,106
1586,516,38,1042,-1281,-4243,49
1587,506,43,1176,-878,-4560,94
1588,470,37,1360,-888,-4624,205
1589,488,-8,1541,-1371,-4380,235
1590,534,-55,1736,-2142,-3905,248
1591,611,-128,1911,-2775,-3357,250
1592,700,-102,2048,-2654,-3048,358
1593,711,-91,2048,-2083,-2857,451
1594,715,-66,2048,-1193,-2804,346
1595,719,-42,2048,-144,-2700,192
1596,712,-22,2048,807,-2495,53
1597,722,-22,2048,1317,-2183,-12
1598,712,-2,2048,1254,-1734,18
1599,697,11,2048,733,-1122,65
1600,723,57,2048,145,-386,26
1601,754,79,2048,-70,274,10
1602,762,90,2048,30,679,-45
1603,746,104,1983,190,899,-135
1604,730,101,1926,442,1126,-205
1605,721,105,1836,706,1366,-338
1606,711,111,1804,952,1569,-467
1607,682,99,1748,1192,1815,-570
1608,631,109,1674,1331,2163,-676
1609,629,96,1558,1290,2600,-754
1610,601,70,1458,1204,2960,-734
1611,568,73,1379,1131,3237,-678
1612,542,61,1301,1053,3444,-656
1613,528,66,1198,1010,3552,-662
1614,487,86,1087,1088,3608,-691
1615,451,85,1012,1239,3536,-701
1616,463,81,938,1282,3407,-746
1617,433,44,907,1213,3266,-719
1618,361,46,846,1137,3153,-607
1619,310,59,780,1008,3177,-574
1620,300,55,710,936,3251,-594
1621,249,63,605,954,3266,-595
1622,200,51,489,1049,3186,-637
1623,149,64,404,1194,3085,-703
1624,87,68,318,1213,2903,-679
1625,40,33,267,1016,2681,-619
1626,23,-6,209,504,2473,-492
1627,0,15,201,26,2261,-275
1628,-30,21,176,-320,2009,-99
1629,-28,24,161,-503,1745,-19
1630,-37,23,139,-486,1466,53
1631,-37,22,126,-382,1163,53
1632,-33,39,91,-201,839,78
1633,-32,54,74,-15,493,100
1634,-38,99,70,139,155,98
1635,-58,96,88,227,-146,49
1636,-57,82,85,192,-441,43
1637,-53,66,97,26,-677,86
1638,-55,53,122,-226,-861,186
1639,-61,47,148,-494,-1028,317
1640,-44,49,162,-755,-1161,383
1641,-32,55,159,-837,-1300,401
1642,-6,57,154,-794,-1546,375
1643,31,95,191,-675,-1888,346
1644,74,100,217,-501,-2271,350
1645,85,103,313,-357,-2683,356
1646,119,71,425,-415,-2997,401
1647,172,44,503,-712,-3075,475
1648,227,59,616,-1080,-2976,512
1649,314,45,719,-1331,-2784,528
1650,306,59,834,-1119,-2657,633
1651,283,79,877,-708,-2685,740
1652,367,81,914,-603,-2833,756
1653,409,80,1037,-880,-3044,766
1654,456,108,1179,-1261,-3255,744
1655,431,102,1333,-1576,-3302,678
1656,494,95,1464,-1824,-3204,494
1657,546,53,1607,-1783,-3050,244
1658,525,25,1724,-1353,-2946,205
1659,556,26,1823,-917,-2720,190
1660,565,4,1904,-564,-2444,147
1661,569,5,1994,-240,-2239,108
1662,555,7,2013,-99,-1839,139
1663,560,10,2002,45,-1398,180
1664,569,52,2001,98,-1073,238
1665,598,98,1990,59,-800,270
1666,604,141,1975,145,-564,311
1667,629,158,1954,215,-290,196
1668,640,166,1939,340,7,88
1669,628,165,1942,258,360,-19
1670,620,159,1939,155,782,-205
1671,649,108,1899,266,1223,-330
1672,630,95,1838,510,1667,-357
1673,587,95,1742,620,2018,-390
1674,555,88,1653,616,2321,-445
1675,544,60,1551,579,2583,-447
1676,523,77,1431,547,2723,-469
1677,499,68,1323,545,2737,-484
1678,460,71,1208,549,2710,-498
1679,416,69,1124,575,2665,-556
1680,407,33,1057,559,2557,-519
1681,371,15,1044,520,2485,-386
1682,342,41,1046,536,2606,-355
1683,319,20,1014,557,2843,-328
1684,329,20,914,542,3106,-373
1685,314,37,816,612,3245,-365
1686,257,63,721,772,3241,-347
1687,253,58,611,942,3139,-371
1688,205,63,528,1065,2934,-398
1689,178,85,457,1079,2733,-322
1690,128,79,368,975,2548,-250
1691,83,89,300,875,2309,-269
1692,40,87,230,768,2091,-240
1693,18,89,182,588,1850,-191
1694,-27,90,154,323,1587,-129
1695,-40,75,155,16,1282,-72
1696,-52,66,161,-345,995,-29
1697,-49,45,203,-681,757,35
1698,-35,54,211,-839,600,106
1699,-37,74,219,-771,429,156
1700,-33,83,217,-527,237,170
1701,-17,83,190,-253,59,65
1702,-18,72,140,84,-167,-53
1703,-34,63,102,391,-458,-133
1704,-66,32,89,436,-714,-174
1705,-61,-3,98,182,-1005,-95
1706,-55,5,110,-289,-1327,100
1707,-42,45,184,-664,-1646,250
1708,13,75,223,-798,-1952,309
1709,69,98,291,-750,-2204,219
1710,106,77,357,-570,-2429,127
1711,113,34,428,-492,-2591,57
1712,133,2,519,-615,-2736,76
1713,199,-32,592,-912,-2905,242
1714,212,-27,704,-1093,-3066,533
1715,222,-2,763,-1000,-3153,748
1716,291,39,812,-945,-3120,781
1717,368,100,893,-892,-3111,707
1718,354,148,987,-796,-3136,471
1719,401,80,1059,-585,-3091,217
1720,451,18,1123,-408,-2989,178
1721,483,20,1173,-525,-2931,283
1722,492,48,1188,-859,-2892,418
1723,523,86,1215,-1130,-2876,436
1724,549,88,1241,-1230,-2919,432
1725,541,84,1320,-1384,-2921,387
1726,564,41,1421,-1580,-2919,272
1727,563,14,1535,-1615,-2833,305
1728,557,-4,1654,-1505,-2708,301
1729,584,-14,1748,-1357,-2464,205
1730,595,-43,1832,-988,-2187,115
1731,608,-57,1892,-439,-1941,76
1732,594,-82,1976,-37,-1736,108
1733,602,-79,2017,-7,-1431,139
1734,631,-56,2048,-130,-1027,178
1735,680,-17,2035,-183,-579,166
1736,685,20,2035,-15,-157,63
1737,719,21,2014,292,264,-95
1738,736,6,1956,598,669,-201
1739,708,10,1898,727,1065,-254
1740,703,2,1787,711,1481,-336
1741,701,15,1688,663,1823,-396
1742,673,12,1598,686,2081,-451
1743,647,-2,1520,721,2321,-447
1744,609,19,1420,741,2516,-435
1745,569,21,1336,803,2667,-443
1746,544,31,1261,852,2780,-496
1747,514,42,1198,928,2862,-547
1748,484,23,1164,1028,2948,-564
1749,471,29,1115,1081,3071,-590
1750,475,16,1049,1065,3163,-572
1751,439,24,995,997,3177,-465
1752,394,68,929,879,3165,-437
1753,355,79,865,844,3171,-463
1754,329,59,813,827,3145,-461
1755,281,66,748,725,3126,-467
1756,243,46,685,647,3054,-474
1757,208,31,649,641,2950,-410
1758,171,22,619,581,2802,-322
1759,152,32,602,420,2708,-283
1760,159,49,558,340,2655,-279
1761,134,53,542,422,2591,-283
1762,142,53,464,622,2448,-336
1763,116,33,428,930,2184,-308
1764,44,27,382,1157,1929,-277
1765,30,34,321,1151,1743,-267
1766,13,30,265,999,1661,-197
1767,-32,41,221,745,1538,-113
1768,-49,71,175,528,1384,-51
1769,-55,65,121,290,1204,-10
1770,-45,72,112,-1,903,14
1771,-34,81,110,-255,501,65
1772,-60,120,117,-298,132,96
1773,-55,123,167,-205,-239,30
1774,-53,81,170,-156,-593,-51
1775,-46,34,196,-248,-851,-43
1776,-65,56,227,-384,-1027,45
1777,-62,63,265,-558,-1165,92
1778,-30,44,272,-746,-1304,119
1779,4,52,332,-859,-1472,160
1780,28,30,379,-957,-1665,201
1781,84,48,410,-1087,-1851,248
1782,87,72,448,-1082,-2105,289
1783,111,74,504,-904,-2380,285
1784,173,90,520,-708,-2646,192
1785,222,94,567,-531,-2952,117
1786,268,72,661,-417,-3261,110
1787,291,51,762,-396,-3441,156
1788,314,40,839,-552,-3402,205
1789,339,30,925,-732,-3218,213
1790,337,44,951,-757,-3028,285
1791,339,61,971,-765,-2831,321
1792,388,71,988,-929,-2681,237
1793,427,77,1068,-1093,-2726,158
1794,443,56,1145,-1136,-2952,112
1795,447,14,1275,-1169,-3126,98
1796,469,-14,1380,-1378,-3089,160
1797,522,-67,1539,-1751,-2945,258
1798,531,-34,1650,-1845,-2661,328
1799,565,-11,1733,-1505,-2382,295
1800,574,-3,1781,-908,-2140,178
1801,601,-29,1826,-414,-1896,47
1802,605,-24,1837,-115,-1653,6
1803,584,-26,1875,-41,-1468,47
1804,583,-31,1907,-74,-1232,69
1805,549,-28,1960,-226,-911,92
1806,560,-58,1983,-437,-523,108
1807,561,-53,2013,-521,-28,96
1808,596,-33,2011,-400,516,-35
1809,627,-52,1925,-31,1009,-160
1810,613,-51,1863,405,1348,-224
1811,594,-40,1763,661,1649,-301
1812,599,-41,1678,756,1940,-371
1813,582,-43,1582,729,2138,-357
1814,571,-31,1508,717,2268,-283
1815,537,2,1411,747,2384,-275
1816,526,16,1342,813,2501,-293
1817,499,31,1248,874,2669,-304
1818,470,45,1154,920,2802,-318
1819,439,60,1071,969,2880,-371
1820,402,63,1024,1038,2985,-465
1821,370,50,930,1077,3089,-482
1822,327,58,905,985,3143,-508
1823,300,32,846,801,3186,-515
1824,283,29,801,577,3243,-502
1825,261,18,733,311,3218,-474
1826,235,40,673,190,3114,-476
1827,196,32,611,213,3014,-492
1828,160,36,540,348,2889,-461
1829,133,39,481,485,2712,-453
1830,74,17,426,493,2499,-435
1831,78,6,386,432,2206,-388
1832,78,-9,347,358,1913,-254
1833,48,-17,329,307,1595,-133
1834,30,-3,313,260,1321,-49
1835,9,1,292,272,1116,57
1836,1,10,254,340,970,123
1837,-18,23,230,196,823,178
1838,-16,60,209,79,661,190
1839,-15,59,160,114,429,156
1840,-35,84,143,127,87,80
1841,-46,84,169,-15,-321,20
1842,-12,29,230,-158,-771,57
1843,-8,21,307,-359,-1038,223
1844,-9,50,351,-544,-1198,321
1845,-9,71,392,-587,-1263,295
1846,4,37,426,-640,-1304,217
1847,8,-3,434,-632,-1388,192
1848,38,-8,449,-660,-1552,225
1849,90,12,478,-744,-1823,199
1850,108,-14,518,-650,-2198,149
1851,151,-26,548,-367,-2636,233
1852,163,-6,625,8,-3023,393
1853,176,18,720,198,-3232,492
1854,222,39,816,104,-3318,518
1855,221,43,918,-89,-3255,522
1856,257,40,956,-429,-3073,444
1857,318,6,1049,-744,-2935,414
1858,342,-8,1127,-966,-2864,457
1859,385,-3,1184,-1111,-2798,479
1860,453,50,1235,-1054,-2775,496
1861,480,73,1320,-779,-2782,455
1862,475,63,1414,-402,-2761,471
1863,479,29,1515,-99,-2603,424
1864,476,43,1606,-203,-2409,358
1865,481,29,1665,-541,-2058,326
1866,491,40,1699,-769,-1706,297
1867,504,18,1734,-873,-1405,274
1868,525,9,1737,-890,-1196,332
1869,544,10,1772,-902,-1038,373
1870,558,-9,1811,-902,-905,364
1871,547,-12,1837,-800,-771,360
1872,561,-18,1855,-624,-495,332
1873,593,5,1855,-373,-130,278
1874,597,17,1850,-60,298,129
1875,578,22,1825,299,749,-6
1876,564,4,1741,557,1190,-168
1877,575,-14,1673,635,1585,-277
1878,556,-25,1595,639,1889,-291
1879,543,-34,1558,573,2132,-236
1880,525,-16,1470,506,2327,-178
1881,500,8,1397,522,2454,-201
1882,472,18,1310,674,2548,-207
1883,446,34,1252,811,2587,-260
1884,410,33,1183,917,2602,-338
1885,397,48,1125,1032,2643,-410
1886,361,46,1095,1096,2725,-504
1887,346,33,1046,1116,2823,-619
1888,327,14,968,1135,2948,-717
1889,329,-27,917,1102,3003,-578
1890,293,-2,847,948,3038,-359
1891,252,55,813,667,3013,-277
1892,225,68,735,497,2966,-299
1893,212,69,714,407,2911,-349
1894,196,49,681,418,2788,-375
1895,173,52,618,520,2659,-406
1896,127,60,573,606,2524,-461
1897,90,44,548,700,2395,-553
1898,88,43,528,668,2311,-633
1899,68,20,459,532,2264,-627
1900,44,13,420,426,2184,-527
1901,19,21,374,342,2042,-416
1902,22,36,301,225,1823,-330
1903,-8,64,250,79,1509,-285
1904,-28,81,228,1,1163,-211
1905,-42,87,208,30,847,-219
1906,-37,91,196,73,520,-265
1907,-44,78,202,116,198,-322
1908,-57,47,232,110,-99,-351
1909,-43,7,267,-62,-333,-363
1910,-47,-22,283,-347,-497,-166
1911,-72,13,315,-613,-620,24
1912,-62,56,297,-749,-706,61
1913,-52,77,294,-724,-802,4
1914,-28,49,302,-613,-1011,-68
1915,-27,39,322,-509,-1300,-86
1916,4,29,385,-556,-1591,-129
1917,36,20,437,-626,-1939,-88
1918,43,2,481,-638,-2237,43
1919,87,0,555,-703,-2460,143
1920,95,7,642,-806,-2560,274
1921,120,23,711,-927,-2568,338
1922,155,16,754,-986,-2507,317
1923,201,20,776,-1001,-2515,278
1924,231,35,808,-843,-2640,201
1925,232,29,849,-394,-2861,166
1926,257,-5,878,-37,-3028,264
1927,289,-8,946,-40,-3081,424
1928,335,43,1029,-449,-3089,494
1929,399,32,1102,-814,-3017,432
1930,412,17,1167,-912,-2958,397
1931,392,22,1239,-685,-2921,301
1932,404,-38,1303,-400,-2902,217
1933,380,-67,1340,-373,-2747,291
1934,449,-8,1457,-1085,-2439,309
1935,420,-43,1389,-744,-2501,324
1936,467,-19,1528,-1060,-2396,194
1937,487,-79,1606,-693,-2298,114
1938,472,-92,1645,-187,-2218,117
1939,444,-124,1679,362,-2103,112
1940,439,-141,1693,817,-1868,147
1941,427,-130,1691,1004,-1562,252
1942,455,-98,1688,770,-1202,401
1943,501,-39,1693,202,-911,516
1944,562,25,1706,-199,-698,555
1945,554,56,1746,-187,-556,496
1946,587,69,1777,42,-411,289
1947,611,24,1823,280,-202,196
1948,617,29,1853,450,141,133
1949,631,23,1855,598,620,45
1950,629,45,1813,780,1196,-41
1951,615,56,1690,920,1723,-148
1952,599,49,1575,1001,2139,-277
1953,586,62,1472,1047,2389,-359
1954,563,91,1368,940,2509,-447
1955,525,95,1287,840,2591,-525
1956,501,92,1224,778,2661,-656
1957,470,67,1174,721,2649,-693
1958,433,55,1120,655,2647,-666
1959,424,43,1097,532,2692,-689
1960,390,30,1052,514,2727,-654
1961,350,31,996,547,2784,-615
1962,318,27,926,581,2864,-607
1963,310,24,843,604,2944,-623
1964,263,36,769,579,2948,-650
1965,203,35,675,643,2907,-693
1966,181,32,588,793,2864,-709
1967,144,41,510,780,2733,-728
1968,152,21,461,631,2472,-717
1969,118,18,427,457,2210,-629
1970,90,13,432,278,1993,-482
1971,76,25,415,124,1800,-338
1972,55,37,411,-15,1636,-283
1973,61,55,416,-97,1491,-326
1974,45,60,406,-27,1397,-365
1975,38,57,379,139,1280,-422
1976,24,61,353,252,1159,-486
1977,25,70,298,370,1042,-633
1978,-7,84,270,450,870,-740
1979,-30,51,223,389,690,-781
1980,-32,4,223,131,454,-658
1981,-8,2,228,-279,98,-429
1982,0,39,284,-558,-259,-199
1983,-24,64,311,-666,-558,-80
1984,-8,82,338,-617,-786,-49
1985,-6,65,357,-476,-995,-64
1986,11,69,388,-412,-1257,-97
1987,6,49,423,-437,-1532,-156
1988,52,14,454,-400,-1780,-166
1989,105,-33,497,-445,-2032,-45
1990,113,-61,563,-613,-2339,207
1991,134,-22,624,-742,-2638,397
1992,130,17,709,-839,-2831,494
1993,174,49,814,-759,-2862,533
1994,168,68,925,-470,-2737,453
1995,212,66,949,-128,-2530,385
1996,267,75,955,53,-2394,364
1997,334,99,989,-29,-2445,319
1998,335,97,1072,-214,-2681,416
1999,306,73,1150,-703,-2862,455
2000,346,75,1221,-1146,-2909,461
2001,431,90,1322,-1521,-2814,447
2002,453,92,1428,-1539,-2743,369
2003,429,77,1509,-1103,-2564,223
2004,418,24,1555,-584,-2251,158
2005,428,29,1606,-337,-1866,117
2006,461,21,1606,-501,-1607,84
2007,464,37,1616,-677,-1448,72
2008,452,51,1643,-837,-1290,28
2009,470,29,1691,-986,-1165,-60
2010,489,-35,1760,-1044,-999,-66
2011,511,-64,1819,-994,-765,45
2012,493,-59,1872,-312,-144,-47
2013,482,-65,1858,-724,-454,71
2014,491,-80,1840,65,233,-105
2015,508,-72,1726,426,1073,-56
2016,499,-90,1804,399,639,-95
2017,502,-44,1636,247,1370,-74
2018,499,-18,1580,147,1569,-80
2019,499,-2,1500,133,1710,-119
2020,479,-17,1457,182,1835,-189
2021,449,-36,1423,280,1954,-135
2022,418,-42,1394,391,2132,-49
2023,390,-30,1345,391,2389,-58
2024,374,-10,1288,395,2692,-123
2025,346,-21,1215,332,2956,-158
2026,319,-12,1141,332,3095,-222
2027,298,-7,1038,495,3134,-324
2028,272,1,968,674,3110,-431
2029,252,-11,898,741,3011,-496
2030,242,-5,830,780,2911,-496
2031,240,-7,757,743,2745,-396
2032,206,15,725,715,2544,-312
2033,178,27,715,700,2380,-297
2034,157,18,680,758,2284,-314
2035,124,6,677,774,2255,-330
2036,109,-42,626,659,2222,-267
2037,89,-55,583,516,2216,-115
2038,50,-13,537,377,2208,20
2039,31,8,478,315,2169,55
2040,36,20,417,305,2057,-17
2041,11,28,367,307,1839,-64
2042,8,27,301,418,1585,-119
2043,-6,23,269,647,1305,-178
2044,-23,33,232,784,972,-129
2045,-4,38,199,811,636,-56
2046,-17,33,208,625,311,12
2047,-42,29,216,223,20,108
2048,-54,21,250,-248,-218,164
2049,-45,37,286,-396,-394,196
2050,-42,56,317,-216,-556,174
2051,-55,43,343,-17,-724,121
2052,-39,-2,363,63,-894,104
2053,-17,-7,370,30,-1101,155
2054,8,24,384,-9,-1351,268
2055,17,47,436,-298,-1601,383
2056,39,54,498,-732,-1845,387
2057,79,62,544,-964,-2005,358
2058,115,66,589,-988,-2116,321
2059,98,54,654,-804,-2236,264
2060,123,7,689,-607,-2323,199
2061,149,-14,727,-544,-2368,205
2062,172,-24,792,-517,-2458,362
2063,203,-4,851,-558,-2597,477
2064,245,-2,882,-632,-2710,422
2065,287,56,913,-619,-2806,395
2066,315,99,950,-588,-2833,393
2067,316,124,975,-552,-2821,346
2068,340,112,1027,-582,-2741,262
2069,373,80,1123,-679,-2683,139
2070,376,46,1209,-990,-2657,16
2071,442,-16,1290,-1230,-2677,-47
2072,421,-14,1369,-1357,-2605,45
2073,410,29,1423,-1332,-2480,131
2074,417,18,1490,-1123,-2286,65
2075,413,-10,1535,-722,-2030,-43
2076,432,-13,1513,-382,-1802,-135
2077,466,-47,1564,-72,-1765,-49
2078,465,-55,1609,-19,-1814,65
2079,459,-62,1656,-154,-1823,219
2080,489,-53,1727,-392,-1704,309
2081,480,-51,1799,-535,-1509,307
2082,459,-66,1847,-545,-1122,242
2083,459,-75,1844,-271,-538,117
2084,477,-52,1758,96,71,-6
2085,507,-45,1726,278,458,-121
2086,518,-40,1665,330,677,-201
2087,497,-16,1620,252,835,-254
2088,526,-60,1594,186,999,-279
2089,497,-89,1570,227,1169,-178
2090,468,-50,1531,180,1429,-97
2091,461,-22,1477,127,1751,-156
2092,453,-19,1395,211,2020,-254
2093,446,-36,1312,411,2225,-357
2094,429,-64,1268,629,2327,-426
2095,382,-53,1191,741,2358,-492
2096,355,-24,1124,746,2446,-515
2097,351,-34,1040,715,2501,-558
2098,340,-37,998,723,2481,-545
2099,324,-42,960,752,2411,-463
2100,295,-48,928,674,2307,-408
2101,254,-55,876,594,2274,-334
2102,239,-39,850,528,2300,-234
2103,208,4,847,487,2348,-222
2104,210,-13,778,545,2364,-260
2105,191,-6,718,674,2335,-293
2106,168,-1,661,711,2296,-289
2107,124,17,607,688,2188,-303
2108,85,11,563,575,2016,-295
2109,86,-13,548,334,1874,-238
2110,92,-36,557,41,1698,-146
2111,69,-37,531,-158,1554,51
2112,52,1,491,-328,1448,153
2113,22,29,452,-326,1354,194
2114,65,50,413,-195,1216,110
2115,35,46,366,114,971,80
2116,42,37,331,371,714,-49
2117,22,22,309,620,471,-109
2118,6,24,286,727,272,-119
2119,19,4,274,416,102,-117
2120,4,1,263,-35,-116,-47
2121,-1,29,258,-355,-411,156
2122,-6,45,278,-556,-677,254
2123,11,74,308,-541,-939,215
2124,22,67,306,-267,-1208,117
2125,19,41,359,22,-1497,37
2126,27,-4,400,129,-1777,22
2127,42,-36,450,-148,-1962,114
2128,58,-28,520,-660,-2070,186
2129,113,-20,596,-1015,-2105,315
2130,126,5,648,-1127,-2144,418
2131,137,17,710,-1005,-2222,408
2132,162,2,730,-761,-2353,379
2133,196,-8,789,-609,-2486,360
2134,264,-4,879,-664,-2677,373
2135,291,-26,971,-961,-2843,412
2136,329,-43,1092,-1345,-2882,453
2137,402,-40,1215,-1781,-2716,516
2138,421,-11,1339,-2005,-2433,444
2139,415,-24,1381,-1646,-2140,336
2140,413,-37,1348,-931,-1796,223
2141,401,-51,1323,-238,-1669,131
2142,411,-60,1306,-21,-1714,78
2143,438,-89,1340,-156,-1847,137
2144,424,-95,1427,-480,-1935,281
2145,422,-91,1564,-959,-1884,344
2146,442,-56,1650,-1218,-1599,303
2147,460,-94,1726,-1254,-1208,188
2148,460,-148,1770,-945,-907,121
2149,446,-185,1774,-474,-620,92
2150,468,-198,1762,12,-335,98
2151,480,-177,1732,313,-126,110
2152,481,-127,1674,278,46,114
2153,477,-74,1648,168,223,94
2154,492,-73,1656,200,438,-31
2155,500,-102,1648,438,702,-56
2156,493,-108,1639,664,1009,-37
2157,482,-115,1588,657,1366,-21
2158,480,-83,1524,661,1729,14
2159,441,-46,1440,817,2069,47
2160,440,-11,1331,836,2313,-11
2161,427,11,1237,772,2403,-144
2162,416,34,1166,682,2364,-246
2163,388,33,1118,672,2323,-312
2164,372,18,1061,645,2290,-428
2165,338,-27,1039,639,2305,-406
2166,308,-54,1020,547,2335,-279
2167,293,-60,989,321,2407,-158
2168,272,-33,999,153,2542,-60
2169,232,-21,992,94,2710,-117
2170,218,-40,927,246,2880,-203
2171,204,-56,867,469,2948,-248
2172,191,-62,812,645,2852,-293
2173,149,-48,772,815,2704,-355
2174,122,-37,716,1010,2524,-433
2175,117,-50,666,1125,2333,-453
2176,91,-48,624,1141,2110,-404
2177,67,-28,600,981,1868,-338
2178,39,-20,565,799,1677,-277
2179,14,-13,559,707,1520,-219
2180,2,-1,563,580,1380,-207
2181,-23,17,547,606,1341,-232
2182,-33,16,542,795,1335,-334
2183,-36,17,484,1041,1302,-469
2184,-41,-22,434,1108,1221,-498
2185,-61,-26,396,879,1061,-340
2186,-74,-6,380,397,821,-123
2187,-95,27,358,-97,550,35
2188,-150,-197,336,-636,255,182
2189,-54,29,348,-1152,-19,260
2190,-15,39,385,-1326,-327,309
2191,-12,58,401,-1058,-659,295
2192,28,38,450,-662,-948,215
2193,6,33,510,-93,-1220,162
2194,-11,-11,509,344,-1415,90
2195,-8,-25,525,457,-1470,72
2196,8,-34,533,205,-1521,155
2197,8,-15,507,-250,-1558,227
2198,33,8,493,-459,-1696,371
2199,58,21,514,-548,-1902,432
2200,98,27,512,-474,-2159,451
2201,120,49,541,-355,-2429,498
2202,126,71,594,-183,-2654,492
2203,148,47,646,-144,-2808,412
2204,207,22,701,-281,-2853,428
2205,253,33,793,-609,-2839,451
2206,301,6,861,-1017,-2685,475
2207,328,35,888,-1341,-2464,479
2208,311,45,887,-1472,-2247,483
2209,283,29,943,-1554,-2230,444
2210,294,-32,1023,-1713,-2407,319
2211,361,-75,1123,-1664,-2650,285
2212,400,-61,1208,-1492,-2946,276
2213,444,-80,1350,-1439,-3196,196
2214,452,-130,1565,-1443,-3138,129
2215,463,-223,1744,-1529,-2794,82
2216,391,-267,1809,-1554,-2236,47
2217,407,-262,1757,-1222,-1476,63
2218,480,-243,1713,-795,-956,98
2219,458,-216,1633,-386,-978,115
2220,438,-170,1603,57,-1157,164
2221,459,-153,1662,344,-1288,170
2222,463,-140,1711,457,-1323,84
2223,478,-133,1784,454,-1200,-21
2224,466,-164,1879,211,-788,-45
2225,473,-217,1913,-48,-193,-95
2226,471,-234,1901,-46,438,4
2227,458,-190,1790,227,1055,102
2228,483,-157,1681,455,1483,63
2229,481,-148,1551,772,1659,2
2230,459,-115,1456,1153,1649,-25
2231,432,-86,1389,1389,1528,-84
2232,437,-81,1380,1422,1487,-129
2233,429,-79,1362,1209,1577,-166
2234,428,-71,1345,981,1788,-179
2235,404,-45,1313,848,2054,-172
2236,379,-51,1273,825,2309,-187
2237,390,-69,1224,934,2565,-228
2238,354,-54,1174,1155,2747,-213
2239,310,-60,1088,1358,2835,-205
2240,305,-31,983,1459,2862,-287
2241,294,-33,916,1401,2817,-289
2242,274,-9,851,1258,2645,-277
2243,234,19,786,1086,2479,-293
2244,203,35,711,940,2350,-318
2245,203,26,662,852,2210,-330
2246,168,24,642,830,2032,-244
2247,129,14,620,721,1901,-150
2248,127,1,605,547,1817,-99
2249,104,4,588,360,1737,-56
2250,110,20,589,141,1669,-21
2251,86,49,594,-66,1634,-51
2252,72,60,561,-138,1624,-179
2253,74,54,527,-4,1575,-254
2254,58,49,503,200,1458,-306
2255,38,45,478,360,1296,-379
2256,30,20,455,424,1190,-441
2257,40,-23,415,389,1102,-385
2258,16,-12,384,211,954,-174
2259,-22,31,338,-72,780,-37
2260,-38,55,310,-326,573,-13
2261,-29,60,294,-484,298,-17
2262,-24,50,262,-429,-71,-23
2263,-23,90,290,-271,-423,-49
2264,-47,63,298,-173,-786,-76
2265,-30,17,376,-191,-1105,-95
2266,-20,-42,449,-453,-1234,8
2267,-12,-58,514,-885,-1288,180
2268,25,-31,545,-1301,-1292,280
2269,55,0,544,-1431,-1306,274
2270,74,34,552,-1123,-1402,239
2271,101,24,554,-656,-1599,186
2272,139,35,557,-392,-1876,108
2273,180,58,599,-187,-2183,22
2274,206,62,645,10,-2491,-47
2275,186,14,704,2,-2718,-72
2276,197,-38,790,-486,-2788,-10
2277,249,-60,849,-1179,-2706,73
2278,231,-11,919,-1269,-2581,223
2279,177,-5,949,-935,-2386,215
2280,215,-58,942,-715,-2247,100
2281,279,-73,934,-758,-2290,96
2282,322,-51,1021,-777,-2583,145
2283,365,-22,1080,-635,-2943,98
2284,407,-36,1178,-613,-3154,18
2285,395,-51,1325,-586,-3193,-8
2286,422,-111,1436,-738,-3003,-25
2287,377,-133,1543,-863,-2575,69
2288,409,-149,1597,-758,-2030,112
2289,409,-134,1574,-578,-1579,108
2290,392,-166,1567,-511,-1296,151
2291,390,-160,1600,-709,-1103,207
2292,416,-144,1614,-1037,-980,219
2293,436,-120,1675,-1199,-896,117
2294,453,-159,1747,-1166,-843,8
2295,483,-201,1834,-902,-693,22
2296,429,-228,1912,-455,-413,63
2297,453,-217,1917,170,81,24
2298,504,-216,1878,586,772,-10
2299,481,-204,1798,608,1208,-6
2300,463,-167,1671,395,1538,-4
2301,457,-121,1598,184,1772,-25
2302,467,-104,1519,14,1825,-135
2303,471,-111,1487,74,1782,-230
2304,460,-161,1490,352,1778,-142
2305,410,-157,1515,621,1845,-17
2306,385,-125,1479,664,2073,-45
2307,395,-129,1415,705,2339,-94
2308,390,-115,1342,776,2565,-94
2309,349,-93,1277,914,2725,-111
2310,347,-82,1159,1110,2805,-185
2311,343,-53,1064,1242,2823,-234
2312,324,-23,977,1264,2731,-254
2313,311,8,894,1233,2554,-281
2314,287,10,823,1211,2372,-271
2315,255,24,755,1203,2229,-226
2316,232,12,698,1158,2112,-185
2317,211,-12,670,1143,2042,-136
2318,167,-7,625,1096,2001,-17
2319,132,30,562,975,2012,24
2320,115,43,506,916,2040,-45
2321,119,47,451,803,2030,-174
2322,99,55,377,746,1868,-299
2323,60,63,300,821,1614,-330
2324,51,64,279,780,1372,-349
2325,22,50,257,528,1102,-383
2326,16,33,291,258,858,-424
2327,17,-3,302,35,714,-400
2328,12,-14,323,-109,569,-240
2329,-17,5,287,-185,423,-140
2330,-17,12,292,-310,237,-136
2331,18,21,272,-361,-7,-166
2332,26,49,296,-115,-329,-177
2333,17,69,309,235,-650,-244
2334,-3,46,333,465,-894,-314
2335,8,-4,361,346,-1064,-302
2336,21,-45,409,-138,-1154,-193
2337,34,-31,467,-646,-1222,-11
2338,26,-16,503,-1002,-1304,129
2339,49,-5,536,-1142,-1425,160
2340,63,6,560,-1002,-1618,108
2341,83,30,605,-619,-1868,-8
2342,122,16,675,-222,-2075,-166
2343,152,-43,759,43,-2236,-238
2344,193,-103,834,47,-2392,-78
2345,201,-83,901,-117,-2441,149
2346,208,-18,970,-355,-2394,225
2347,270,-48,1021,-613,-2218,149
2348,293,-72,1046,-738,-2062,248
2349,297,-50,1058,-576,-2091,344
2350,312,-11,1054,-234,-2155,352
2351,312,16,1075,170,-2314,369
2352,325,-22,1109,217,-2478,444
2353,389,-66,1192,-176,-2585,633
2354,371,-64,1318,-707,-2550,977
2355,328,-25,1422,-1187,-2478,1010
2356,363,-7,1494,-1322,-2181,791
2357,357,-66,1550,-1129,-1884,662
2358,330,-67,1585,-742,-1634,459
2359,365,-96,1632,-560,-1419,291
2360,439,-135,1667,-381,-1292,276
2361,423,-167,1706,-92,-1277,457
2362,424,-192,1780,10,-1218,643
2363,399,-205,1845,53,-1064,869
2364,401,-122,1869,170,-738,889
2365,443,-76,1918,319,-196,758
2366,475,-92,1877,704,354,592
2367,514,-142,1808,922,802,563
2368,501,-150,1738,1038,1054,727
2369,511,-121,1654,1057,1165,873
2370,473,-100,1575,1120,1253,1031
2371,435,-91,1512,1114,1345,1237
2372,409,-55,1415,756,1559,1313
2373,388,0,1371,225,1720,1248
2374,376,56,1367,59,1929,858
2375,415,-3,1330,340,2247,496
2376,428,-139,1329,715,2438,551
2377,426,-151,1272,1022,2546,809
2378,406,-147,1185,1075,2622,1016
2379,330,-84,1091,924,2557,1190
2380,256,-53,931,688,2593,1344
2381,233,-37,845,233,2454,1500
2382,252,-41,777,116,2313,1526
2383,217,-81,653,319,2007,1567
2384,167,-57,643,428,1815,1697
2385,178,4,666,295,1591,1733
2386,185,22,677,213,1403,1518
2387,200,25,669,465,1403,1305
2388,158,3,667,762,1393,1270
2389,149,-5,607,926,1438,1151
2390,144,-12,556,922,1536,1090
2391,117,2,512,930,1561,1125
2392,108,27,427,877,1473,1098
2393,76,61,354,750,1323,1010
2394,43,66,326,510,1198,901
2395,41,49,261,235,995,897
2396,42,71,256,82,665,899
2397,24,115,267,47,337,733
2398,42,102,284,246,71,590
2399,27,98,310,389,-159,459
2400,10,83,325,272,-273,326
2401,33,32,323,-99,-257,287
2402,48,17,335,-459,-306,371
2403,34,46,357,-668,-407,492
2404,12,40,326,-814,-538,424
2405,25,-5,297,-824,-679,340
2406,25,-17,300,-687,-989,436
2407,48,-3,304,-525,-1390,471
2408,85,47,346,-355,-1827,379
2409,169,30,382,65,-2265,250
2410,149,9,435,498,-2681,283
2411,145,8,515,518,-2966,362
2412,181,-24,586,116,-3032,438
2413,209,-18,654,-394,-2954,660
2414,211,3,716,-849,-2816,748
2415,273,20,755,-1214,-2603,582
2416,310,13,792,-1187,-2478,506
2417,350,6,828,-855,-2648,442
2418,350,16,880,-523,-2941,287
2419,350,24,948,-252,-3189,147
2420,424,-58,1036,-207,-3359,84
2421,439,-84,1153,-359,-3407,203
2422,476,-57,1313,-671,-3206,199
2423,511,-64,1457,-964,-2712,71
2424,548,-125,1563,-1285,-2159,-56
2425,487,-147,1597,-1289,-1696,24
2426,547,-122,1624,-1033,-1214,104
2427,554,-112,1618,-882,-1017,82
2428,545,-119,1622,-755,-1214,-41
2429,538,-119,1660,-595,-1390,-70
2430,517,-150,1713,-494,-1452,-39
2431,499,-191,1781,-582,-1398,33
2432,469,-207,1870,-736,-1271,28
2433,472,-225,1929,-679,-982,80
2434,488,-201,1955,-218,-456,180
2435,521,-180,1894,305,42,246
2436,533,-157,1834,569,348,180
2437,560,-156,1777,551,581,166
2438,564,-137,1737,448,813,280
2439,550,-111,1698,272,1038,272
2440,560,-76,1666,90,1304,151
2441,562,-80,1599,180,1591,-43
2442,560,-120,1536,539,1805,-123
2443,526,-119,1460,903,1971,-220
2444,495,-123,1393,1149,2171,-322
2445,486,-138,1327,1264,2378,-390
2446,486,-133,1252,1371,2569,-428
2447,452,-146,1186,1385,2657,-359
2448,397,-153,1131,1258,2729,-261
2449,379,-131,1088,1032,2825,-148
2450,349,-118,1002,954,2868,8
2451,314,-100,938,989,2850,57
2452,282,-132,889,1141,2712,172
2453,262,-124,828,1336,2514,297
2454,276,-101,754,1463,2292,340
2455,220,-68,670,1584,2042,385
2456,194,-40,628,1541,1817,487
2457,175,-41,574,1379,1675,555
2458,164,-36,544,1149,1563,676
2459,135,-37,532,711,1499,807
2460,104,-9,514,321,1569,920
2461,114,7,486,120,1567,1092
2462,132,26,424,73,1399,1141
2463,120,89,386,362,1190,1069
2464,140,148,365,778,897,762
2465,155,93,349,1067,501,481
2466,140,74,365,1184,196,383
2467,134,100,348,1067,26,196
2468,136,77,343,821,-40,155
2469,156,80,337,975,-23,88
2470,104,110,307,354,44,84
2471,94,139,259,-84,194,-74
2472,98,114,246,-267,223,-142
2473,79,94,239,-343,46,-131
2474,79,106,250,-533,-253,-199
2475,81,83,283,-779,-544,-345
2476,86,19,343,-843,-794,-349
2477,70,16,375,-808,-1044,-265
2478,69,3,422,-812,-1222,-285
2479,92,-9,473,-892,-1290,-215
2480,134,-5,490,-1127,-1279,-174
2481,154,63,501,-1240,-1345,-244
2482,154,29,520,-1132,-1488,-365
2483,234,-21,530,-1117,-1726,-287
2484,205,-3,562,-1302,-1991,-64
2485,232,23,648,-1806,-2116,-103
2486,299,8,748,-2242,-2060,-207
2487,285,-49,846,-2224,-1966,-412
2488,314,-72,944,-1738,-1939,-636
2489,346,-134,1007,-1111,-2017,-666
2490,279,-106,970,-476,-2140,-613
2491,300,-85,929,-353,-1980,-679
2492,396,-102,905,-746,-1757,-451
2493,392,-26,953,-1465,-1583,-340
2494,397,-9,1086,-2218,-1554,-609
2495,438,-124,1270,-2480,-1759,-773
2496,416,-197,1388,-2216,-1939,-824
2497,405,-227,1513,-1588,-1984,-734
2498,406,-229,1593,-931,-1861,-744
2499,425,-212,1617,-355,-1693,-763
2500,404,-196,1636,-62,-1435,-771
2501,411,-169,1611,-148,-1161,-769
2502,436,-146,1619,-480,-896,-845
2503,448,-131,1643,-748,-759,-963
2504,446,-125,1705,-820,-736,-1070
2505,475,-173,1805,-783,-745,-1203
2506,481,-247,1876,-566,-669,-1220
2507,505,-225,1929,-201,-521,-1123
2508,499,-230,1967,188,-181,-972
2509,550,-245,1976,450,284,-611
2510,522,-75,1773,184,1311,-467
2511,524,-163,1899,393,889,-386
2512,542,8,1695,170,1659,-730
2513,526,80,1616,305,1831,-1185
2514,507,98,1546,410,1968,-1961
2515,566,-56,1471,504,2116,-2564
2516,534,-175,1463,555,2268,-2250
2517,543,-165,1434,358,2423,-1941
2518,518,-161,1407,141,2565,-1609
2519,480,-166,1353,51,2780,-1183
2520,429,-105,1308,96,3095,-804
2521,400,-51,1191,176,3278,-789
2522,381,-13,1117,336,3304,-982
2523,338,39,1046,588,3225,-1267
2524,308,73,979,717,3151,-1699
2525,337,-115,942,766,3061,-2017
2526,373,-218,899,772,2985,-1418
2527,276,-134,911,733,2872,-711
2528,154,-23,888,246,2796,-570
2529,168,16,836,-238,2932,-775
2530,130,43,821,-336,3096,-974
2531,103,133,757,-312,3194,-1582
2532,97,136,684,-60,3300,-2443
2533,85,60,612,321,3284,-3076
2534,100,-92,563,567,3227,-3322
2535,180,-327,539,549,2999,-2658
2536,123,-351,457,352,2563,-1230
2537,-16,-199,466,73,2110,-314
2538,-71,-62,438,-164,1858,-4
2539,-45,-8,405,-175,1745,2
2540,-58,26,400,-45,1618,-199
2541,-76,62,341,39,1520,-590
2542,-69,90,306,248,1456,-1103
2543,-26,11,256,379,1288,-1492
2544,-6,-128,230,442,919,-1265
2545,-9,-218,232,313,512,-508
2546,-32,-131,273,0,165,246
2547,-83,-34,278,-435,-126,555
2548,-64,17,280,-677,-321,455
2549,-44,53,332,-771,-382,231
2550,-36,112,336,-564,-476,-156
2551,-46,101,330,-127,-587,-525
2552,-50,95,322,178,-714,-890
2553,28,17,314,280,-976,-1135
2554,57,-121,373,84,-1435,-765
2555,0,-140,454,-238,-1798,-51
2556,-51,-80,538,-752,-1931,301
2557,-33,-42,579,-1263,-1943,233
2558,11,0,643,-1439,-1837,63
2559,33,36,671,-1211,-1788,-302
2560,34,39,690,-767,-1808,-744
2561,35,4,701,-386,-1921,-1154
2562,55,-61,732,-220,-2173,-1511
2563,135,-150,783,-306,-2488,-1552
2564,180,-235,887,-593,-2790,-1041
2565,205,-146,1034,-820,-2962,-590
2566,189,-66,1152,-992,-2913,-396
2567,197,-91,1245,-988,-2741,-381
2568,235,-112,1277,-636,-2525,-351
2569,248,-53,1357,-170,-2378,-392
2570,241,-42,1399,213,-2284,-560
2571,255,-75,1375,440,-2275,-781
2572,246,-135,1367,510,-2290,-888
2573,289,-168,1444,516,-2314,-592
2574,293,-220,1551,285,-2273,-136
2575,253,-180,1610,-88,-2134,516
2576,218,-71,1683,-213,-1794,750
2577,241,-21,1730,-220,-1448,565
2578,282,3,1770,-94,-1202,285
2579,300,20,1768,264,-1044,10
2580,322,68,1761,676,-960,-363
2581,294,118,1770,946,-900,-949
2582,314,59,1803,951,-745,-1521
2583,375,-8,1845,688,-427,-1830
2584,433,-122,1942,231,26,-1713
2585,425,-183,1970,-467,544,-1066
2586,392,-139,1958,-812,1251,-465
2587,384,-28,1836,-722,1903,-125
2588,421,19,1713,-263,2280,-185
2589,367,33,1580,461,2452,-388
2590,337,41,1428,1104,2460,-703
2591,293,82,1308,1637,2427,-1004
2592,275,110,1227,1809,2370,-1392
2593,244,103,1148,1707,2280,-1830
2594,248,45,1174,1430,2341,-2195
2595,248,4,1166,789,2596,-2302
2596,243,-32,1124,-123,2891,-2201
2597,219,-31,1090,-941,3218,-2072
2598,192,-38,1014,-1386,3503,-1953
2599,222,-40,896,-1375,3620,-1865
2600,198,-22,791,-949,3387,-1683
2601,140,5,744,-314,3022,-1510
2602,109,-11,694,358,2727,-1443
2603,69,-44,645,920,2501,-1404
2604,27,-67,612,1112,2257,-1351
2605,41,-97,603,1129,2206,-1183
2606,32,-135,592,987,2239,-881
2607,10,-125,550,475,2237,-531
2608,-14,-73,478,-121,2159,-213
2609,-37,-6,420,-429,2024,-47
2610,-17,35,364,-433,1778,-45
2611,-25,43,335,-263,1409,-168
2612,-30,35,314,51,1001,-316
2613,-79,16,291,379,575,-404
2614,-72,-23,278,699,169,-463
2615,-66,-33,256,865,-150,-373
2616,-70,-65,302,979,-425,-129
2617,-17,-75,322,731,-605,117
2618,-35,3,372,170,-755,365
2619,-30,73,372,-385,-749,330
2620,-27,102,354,-629,-652,188
2621,-8,110,314,-488,-695,26
2622,-15,117,312,-97,-941,-131
2623,-5,110,322,291,-1294,-285
2624,9,61,366,526,-2109,-414
2625,11,72,305,543,-1708,-369
2626,16,67,437,209,-2364,-470
2627,13,23,524,-199,-2415,-535
2628,18,-31,586,-535,-2404,-439
2629,45,-56,615,-879,-2398,-224
2630,93,-35,691,-1205,-2454,8
2631,70,-9,731,-1476,-2593,184
2632,129,18,797,-1478,-2771,248
2633,146,23,870,-1244,-2976,239
2634,161,39,956,-941,-3214,53
2635,177,43,1037,-580,-3388,-125
2636,204,11,1132,-258,-3470,-256
2637,220,-26,1247,-6,-3458,-386
2638,308,-108,1380,47,-3320,-308
2639,295,-124,1499,-150,-3101,67
2640,274,-72,1563,-422,-2736,342
2641,260,-40,1544,-513,-2325,387
2642,268,-13,1535,-506,-1968,307
2643,299,3,1541,-529,-1788,227
2644,311,-2,1559,-463,-1794,108
2645,291,8,1582,-267,-1896,-80
2646,304,-24,1664,-178,-2038,-308
2647,322,-52,1792,-244,-2103,-467
2648,323,-82,1935,-457,-1868,-570
2649,383,-125,2023,-941,-1386,-683
2650,352,-159,2048,-1388,-761,-627
2651,406,-129,2048,-1467,-122,-586
2652,440,-221,2031,-1199,448,-349
2653,429,-219,1987,-715,899,227
2654,393,-140,1884,-168,1268,535
2655,406,-73,1733,473,1575,528
2656,413,-34,1650,1106,1743,406
2657,372,-33,1595,1489,1850,256
2658,351,-34,1521,1608,2032,102
2659,341,-36,1464,1492,2274,-2
2660,342,-17,1410,1055,2464,-84
2661,336,1,1320,627,2591,-160
2662,313,23,1258,348,2645,-260
2663,303,26,1239,225,2671,-357
2664,279,32,1198,262,2755,-494
2665,265,24,1136,375,2837,-613
2666,254,35,1103,551,2938,-758
2667,248,32,1045,729,3036,-910
2668,234,12,993,893,3085,-992
2669,218,-4,912,1059,3069,-1000
2670,187,-18,862,1088,3005,-920
2671,164,-18,806,928,2948,-844
2672,136,1,751,740,2911,-765
2673,114,16,697,643,2886,-709
2674,93,15,645,551,2841,-715
2675,56,24,597,522,2741,-742
2676,75,11,568,549,2602,-769
2677,49,-5,525,612,2462,-785
2678,23,-19,521,596,2319,-797
2679,-14,-43,477,557,2225,-771
2680,-12,-83,426,432,2126,-683
2681,-30,-76,407,164,1923,-486
2682,-43,-80,346,-82,1667,-238
2683,-46,-58,345,-228,1458,-6
2684,-66,-54,306,-414,1255,164
2685,-64,-43,280,-418,1005,365
2686,-91,-18,237,-76,802,596
2687,-106,-14,203,264,585,742
2688,-131,-17,156,518,321,821
2689,-151,-17,130,541,-109,811
2690,-152,13,153,371,-573,768
2691,-132,13,195,14,-1013,680
2692,-114,-3,252,-400,-1419,670
2693,-119,18,315,-828,-1767,686
2694,-96,28,369,-1051,-1921,664
2695,-32,9,416,-1033,-2001,666
2696,-21,-7,439,-853,-2142,746
2697,16,6,454,-535,-2306,821
2698,24,27,465,-131,-2431,846
2699,18,14,495,194,-2605,819
2700,54,24,503,264,-2835,737
2701,65,53,595,174,-3040,709
2702,89,69,639,-101,-3181,615
2703,165,79,704,-271,-3253,492
2704,206,109,779,-322,-3380,299
2705,206,80,837,-179,-3618,117
2706,231,31,921,33,-3798,26
2707,299,-49,1072,112,-3823,47
2708,298,-99,1231,-205,-3732,576
2709,298,-38,1305,-597,-3484,1041
2710,321,31,1334,-916,-3198,1106
2711,369,83,1386,-1004,-3064,862
2712,387,99,1430,-578,-3029,596
2713,348,75,1493,239,-2947,387
2714,325,47,1514,944,-2835,213
2715,364,26,1558,1244,-2730,96
2716,399,-23,1638,1063,-2638,53
2717,390,-72,1756,533,-2423,219
2718,383,-47,1825,-193,-2052,451
2719,386,-18,1841,-720,-1628,608
2720,380,6,1813,-820,-1216,645
2721,395,33,1804,-590,-937,623
2722,390,22,1791,-74,-767,612
2723,388,-10,1761,444,-652,623
2724,402,-2,1759,614,-542,692
2725,440,10,1780,342,-437,780
2726,443,55,1825,-64,-214,928
2727,442,59,1830,-455,161,905
2728,467,13,1820,-650,671,969
2729,498,9,1808,-636,1243,1090
2730,469,-26,1746,-650,1772,1283
2731,442,-47,1628,-572,2178,1510
2732,412,-22,1495,-357,2507,1643
2733,436,-17,1376,-37,2665,1793
2734,402,42,1274,258,2637,1948
2735,357,114,1242,287,2563,1725
2736,332,112,1171,248,2534,1319
2737,324,29,1131,322,2569,1010
2738,275,-10,1110,225,2634,928
2739,270,-24,1077,-164,2716,836
2740,268,-34,1014,-490,2807,848
2741,255,-44,966,-623,2866,864
2742,236,-54,906,-635,2819,869
2743,218,-35,856,-545,2706,821
2744,190,-46,783,-256,2571,817
2745,152,-43,740,229,2399,823
2746,122,-28,701,672,2249,731
2747,123,-29,702,977,2130,539
2748,94,-58,665,1164,2071,416
2749,63,-90,642,1190,2053,436
2750,36,-133,614,967,2075,551
2751,84,-230,582,600,2081,938
2752,26,-243,557,260,1960,1867
2753,-29,-104,486,-10,1782,2352
2754,-18,22,429,-293,1587,2362
2755,-38,58,350,-416,1243,2086
2756,-1,73,311,-158,755,1783
2757,7,89,306,270,346,1574
2758,31,89,307,531,-46,1410
2759,13,71,342,629,-355,1340
2760,12,33,340,598,-468,1389
2761,-3,58,325,535,-478,1465
2762,-34,103,295,410,-493,1336
2763,-61,129,277,280,-523,1102
2764,-68,94,263,47,-593,846
2765,-73,94,280,-260,-718,541
2766,-78,83,291,-547,-896,248
2767,-68,35,321,-711,-1071,33
2768,-77,2,368,-767,-1220,-127
2769,-54,-22,406,-752,-1300,-289
2770,-1,-82,450,-638,-1368,-349
2771,41,-117,489,-472,-1550,-213
2772,66,-109,513,-306,-1782,-47
2773,98,-98,574,-144,-2070,57
2774,86,-66,646,-93,-2230,164
2775,127,-2,689,-195,-2320,47
2776,167,54,713,-172,-2345,-158
2777,167,80,760,47,-2400,-420
2778,213,-26,785,330,-2448,-519
2779,246,-134,802,436,-2546,-215
2780,248,-147,889,317,-2696,219
2781,274,-159,947,-11,-2798,557
2782,345,-135,981,-343,-2804,1022
2783,361,-14,1003,-496,-2780,1342
2784,367,145,1020,-373,-2753,1281
2785,360,237,1016,100,-2614,926
2786,384,216,1019,748,-2685,490
2787,414,138,1089,1207,-2993,205
2788,456,28,1205,1176,-3429,37
2789,451,-38,1378,803,-3702,92
2790,452,-124,1606,137,-3784,541
2791,458,-86,1827,-785,-3636,832
2792,463,-82,1983,-1443,-3179,688
2793,504,-125,2025,-1367,-2495,543
2794,536,-127,2023,-728,-1872,528
2795,541,-128,2032,-228,-1384,483
2796,553,-123,2005,-179,-1095,354
2797,563,-107,1995,-218,-816,213
2798,584,-123,1955,-240,-529,119
2799,597,-190,1948,-105,-222,143
2800,567,-208,1930,164,130,365
2801,507,-182,1901,323,655,457
2802,543,-193,1816,201,1339,446
2803,553,-172,1724,90,1970,647
2804,534,-121,1592,139,2348,717
2805,513,-84,1455,352,2509,621
2806,502,-93,1334,610,2534,539
2807,480,-104,1242,758,2415,533
2808,438,-118,1201,664,2210,696
2809,423,-116,1131,436,2069,852
2810,374,-108,1053,278,1995,979
2811,337,-83,1016,242,1979,1016
2812,330,-51,1029,153,2055,969
2813,316,-79,1027,82,2161,992
2814,289,-91,1014,168,2315,983
2815,278,-108,945,283,2479,1010
2816,269,-121,932,403,2569,1092
2817,247,-139,875,522,2596,1258
2818,229,-98,818,625,2577,1430
2819,200,-46,752,606,2516,1453
2820,214,-23,687,520,2374,1334
2821,189,-25,668,528,2163,1260
2822,177,-4,672,567,1932,1240
2823,157,14,673,569,1733,1227
2824,102,26,663,617,1585,1061
2825,128,49,666,862,1581,838
2826,125,4,652,977,1589,580
2827,145,-10,623,961,1479,455
2828,81,-6,572,803,1370,389
2829,60,-14,565,615,1366,311
2830,63,1,512,604,1430,358
2831,59,65,453,551,1419,315
2832,27,85,407,487,1243,121
2833,11,70,371,590,1073,-78
2834,25,65,311,651,921,-177
2835,41,-8,288,557,608,-162
2836,19,-33,313,352,257,84
2837,-8,-15,333,180,9,252
2838,-25,8,303,-37,-120,291
2839,-15,-2,297,-242,-222,330
2840,-33,21,297,-310,-351,385
2841,-24,13,292,-322,-573,379
2842,6,-15,280,-269,-863,360
2843,23,0,267,-160,-1204,377
2844,36,10,309,-68,-1570,436
2845,44,23,318,-8,-1943,520
2846,70,39,358,20,-2294,500
2847,101,59,404,-37,-2501,465
2848,110,43,477,-129,-2620,420
2849,115,-6,570,-205,-2720,436
2850,124,-57,644,-363,-2812,598
2851,150,-60,687,-638,-2886,776
2852,196,-28,757,-840,-3017,895
2853,276,58,874,-974,-3081,928
2854,328,115,956,-877,-3066,662
2855,375,113,1028,-498,-3046,324
2856,438,73,1079,-125,-3027,82
2857,493,10,1196,207,-3130,63
2858,515,-28,1276,336,-3120,184
2859,514,-39,1401,14,-2913,309
2860,492,-40,1497,-599,-2530,430
2861,517,-35,1575,-1158,-2114,498
2862,544,-31,1620,-1312,-1802,365
2863,533,-47,1650,-927,-1712,217
2864,495,-56,1670,-336,-1718,127
2865,487,-81,1698,80,-1734,108
2866,496,-94,1729,239,-1581,74
2867,503,-91,1766,114,-1322,117
2868,514,-98,1787,-269,-1032,147
2869,531,-97,1844,-656,-618,149
2870,536,-74,1854,-801,-230,110
2871,548,-101,1847,-588,143,-21
2872,545,-115,1833,-236,485,-56
2873,549,-114,1801,16,841,-123
2874,567,-86,1730,215,1108,-160
2875,551,-61,1658,377,1317,-201
2876,528,-49,1604,416,1454,-306
2877,544,-74,1559,453,1583,-388
2878,521,-99,1524,494,1768,-330
2879,498,-83,1475,387,1973,-330
2880,453,-57,1394,403,2223,-392
2881,449,-30,1313,594,2532,-484
2882,449,-34,1229,817,2729,-566
2883,429,-55,1163,1002,2811,-607
2884,400,-62,1098,1014,2852,-607
2885,364,-49,1037,899,2846,-574
2886,334,-29,985,735,2805,-599
2887,306,-27,911,590,2772,-590
2888,282,4,881,520,2745,-594
2889,264,-11,812,467,2716,-635
2890,237,-17,785,426,2645,-636
2891,215,-64,774,383,2557,-513
2892,183,-53,727,428,2466,-363
2893,179,-26,685,494,2384,-347
2894,154,-40,636,574,2198,-361
2895,92,-18,585,723,2022,-297
2896,56,22,543,664,1921,-219
2897,60,61,493,489,1819,-258
2898,43,82,448,309,1661,-377
2899,16,120,446,149,1415,-594
2900,33,146,445,4,1223,-892
2901,1,107,384,-109,1050,-1349
2902,74,-98,414,-150,778,-1351
2903,71,-192,438,67,538,-773
2904,6,-81,469,266,305,-355
2905,-21,13,443,199,231,-248
2906,10,49,381,8,296,-345
2907,13,65,336,-121,284,-562
2908,-9,80,308,-136,175,-775
2909,-18,70,260,-174,30,-943
2910,-4,-5,223,-248,-243,-885
2911,-70,-27,232,-336,-577,-590
2912,-84,-44,262,-547,-859,-289
2913,-60,-98,309,-888,-1140,4
2914,-59,-96,379,-1275,-1480,321
2915,-71,-71,449,-1551,-1822,483
2916,-4,-21,532,-1633,-2079,489
2917,40,15,596,-1474,-2404,377
2918,58,73,701,-1140,-2667,139
2919,174,126,761,-859,-2800,-283
2920,185,86,846,-629,-2812,-617
2921,230,-8,885,-510,-2755,-859
2922,265,-79,908,-271,-2644,-752
2923,250,-105,944,-244,-2515,-476
2924,202,-87,954,-683,-2447,-279
2925,216,-42,952,-1273,-2388,-222
2926,248,-10,960,-1683,-2382,-291
2927,263,23,1025,-1912,-2482,-568
2928,247,-6,1100,-1951,-2558,-1015
2929,331,-117,1175,-1806,-2540,-1404
2930,394,-253,1255,-1496,-2544,-1449
2931,406,-329,1340,-978,-2550,-1142
2932,395,-357,1414,-500,-2341,-611
2933,403,-307,1469,-463,-2025,-125
2934,427,-200,1499,-849,-1724,37
2935,424,-84,1549,-1189,-1439,-66
2936,442,18,1569,-1191,-1183,-592
2937,436,74,1582,-744,-933,-1367
2938,445,89,1579,-197,-738,-2234
2939,560,-372,1714,305,-562,-2908
2940,501,-49,1593,203,-659,-2980
2941,605,-573,1822,-101,-396,-1724
2942,529,-492,1886,-332,-68,-283
2943,491,-275,1912,-525,593,453
2944,510,-108,1785,-697,1100,449
2945,541,-7,1638,-334,1350,151
2946,529,42,1525,467,1487,-265
2947,539,73,1469,1240,1555,-695
2948,521,58,1395,1633,1503,-1156
2949,517,-65,1393,1490,1495,-1470
2950,543,-234,1401,1016,1536,-1084
2951,474,-244,1419,617,1714,-334
2952,426,-144,1373,324,2091,131
2953,419,-49,1284,115,2366,256
2954,409,-15,1185,239,2475,194
2955,387,17,1088,719,2495,16
2956,382,24,1006,1229,2444,-138
2957,396,30,913,1494,2214,-232
2958,344,43,847,1510,1866,-320
2959,311,35,802,1406,1573,-363
2960,281,24,803,1207,1448,-355
2961,271,13,840,828,1411,-320
2962,230,-4,867,281,1548,-330
2963,210,-6,835,-226,1829,-273
2964,180,20,784,-418,2184,-191
2965,195,27,751,-402,2425,-156
2966,167,34,660,-261,2497,-177
2967,151,29,597,12,2481,-281
2968,112,24,532,360,2356,-398
2969,79,18,469,655,2136,-486
2970,12,10,426,824,1923,-529
2971,1,-27,380,830,1721,-552
2972,-9,-63,343,674,1477,-508
2973,-72,-72,368,389,1266,-336
2974,-74,-55,335,-172,1116,-279
2975,-53,-32,322,-576,1026,-260
2976,-80,-26,333,-594,899,-191
2977,-73,-18,313,-461,745,-172
2978,-82,-26,291,-265,579,-209
2979,-87,-24,287,0,411,-213
2980,-115,-18,262,164,249,-250
2981,-114,-41,254,90,77,-342
2982,-113,-25,256,-152,-91,-355
2983,-125,-18,241,-533,-292,-349
2984,-84,-4,232,-847,-515,-381
2985,-55,-6,269,-1021,-800,-426
2986,-24,10,311,-1088,-1107,-490
2987,25,-5,364,-1027,-1357,-597
2988,68,-13,439,-920,-1671,-752
2989,92,-63,504,-806,-1972,-838
2990,97,-99,563,-773,-2200,-785
2991,121,-114,636,-754,-2382,-660
2992,173,-105,699,-779,-2484,-480
2993,183,-82,791,-845,-2521,-359
2994,239,-64,848,-900,-2538,-402
2995,280,-64,872,-664,-2620,-441
2996,311,-81,878,-263,-2732,-386
2997,337,-87,962,-99,-2866,-355
2998,363,-76,1060,-383,-3056,-330
2999,405,-147,1183,-803,-3097,-230
3000,406,-191,1239,-1019,-3023,115
3001,385,-137,1310,-742,-2739,430
3002,444,-67,1345,-428,-2448,457
3003,372,-74,1380,-101,-2296,426
3004,366,-96,1380,-158,-2179,172
3005,409,-96,1413,-361,-2064,-78
3006,470,-60,1482,-703,-2155,-344
3007,460,-65,1574,-951,-2390,-638
3008,510,-190,1773,-1105,-2546,-779
3009,525,-303,1990,-1168,-2363,-605
3010,540,-334,2048,-992,-1900,-254
3011,561,-312,2048,-650,-1226,123
3012,535,-262,2048,2,-564,381
3013,557,-171,2048,658,-130,387
3014,580,-108,1954,1276,163,311
3015,612,-60,1838,1912,247,180
3016,581,17,1753,2467,206,22
3017,570,34,1739,2539,233,-172
3018,560,65,1729,2039,436,-429
3019,562,99,1718,1285,846,-806
3020,579,68,1719,530,1430,-1133
3021,562,-5,1646,22,2053,-1220
3022,553,-62,1584,-136,2639,-1058
3023,536,-54,1459,-23,3071,-812
3024,512,-13,1340,221,3331,-652
3025,443,25,1220,453,3442,-664
3026,408,20,1099,639,3487,-771
3027,381,24,1019,770,3495,-885
3028,330,37,977,731,3460,-1004
3029,317,53,915,504,3405,-1189
3030,277,76,851,324,3415,-1398
3031,276,37,808,256,3427,-1588
3032,257,-9,770,233,3401,-1677
3033,213,-60,718,164,3331,-1517
3034,242,-86,645,153,3237,-1261
3035,206,-59,577,242,3003,-885
3036,120,-37,539,299,2643,-654
3037,70,-31,507,410,2376,-625
3038,44,-44,477,547,2171,-629
3039,28,-44,449,610,1952,-590
3040,4,-57,436,569,1786,-533
3041,-1,-61,401,428,1663,-486
3042,2,-69,393,293,1561,-383
3043,-3,-54,362,283,1430,-258
3044,-13,-24,337,309,1276,-156
3045,-2,-4,295,334,1055,-103
3046,-2,-4,270,418,733,-43
3047,-47,10,245,666,360,67
3048,-49,29,267,928,18,65
3049,-50,54,283,1155,-222,-66
3050,-54,29,304,1278,-384,-248
3051,-78,5,330,1121,-429,-377
3052,-77,-28,320,684,-441,-455
3053,-77,-29,355,205,-400,-488
3054,-100,-18,354,-400,-421,-539
3055,-61,-41,338,-877,-538,-556
3056,-9,-44,343,-1101,-814,-478
3057,15,-14,350,-1064,-1257,-361
3058,42,0,396,-763,-1743,-260
3059,69,59,475,-316,-2195,-301
3060,38,114,590,158,-2456,-484
3061,28,87,672,592,-2484,-775
3062,67,50,706,787,-2357,-1191
3063,117,-43,761,633,-2325,-1406
3064,155,-112,818,-99,-2411,-1267
3065,218,-120,894,-1269,-2693,-867
3066,237,-48,1006,-2291,-3144,-301
3067,243,0,1100,-2637,-3513,151
3068,275,75,1290,-2289,-3513,340
3069,310,76,1439,-1771,-3310,338
3070,318,63,1490,-1117,-2923,231
3071,308,21,1533,-562,-2607,110
3072,327,-27,1551,-424,-2443,-78
3073,341,-51,1605,-480,-2447,-185
3074,339,-44,1661,-734,-2501,-246
3075,379,-57,1729,-1148,-2505,-289
3076,432,-50,1818,-1308,-2376,-252
3077,429,-27,1913,-984,-2007,-164
3078,402,3,1915,-484,-1474,-174
3079,460,-11,1919,63,-988,-260
3080,453,22,1918,506,-689,-345
3081,424,30,1904,717,-431,-525
3082,471,56,1846,830,-85,-771
3083,456,99,1814,803,221,-949
3084,452,106,1715,600,468,-1220
3085,444,100,1646,555,723,-1552
3086,464,31,1606,678,1387,-1791
3087,454,74,1614,639,1028,-1765
3088,472,-61,1602,561,1780,-1578
3089,447,-115,1581,410,2229,-963
3090,383,-61,1448,291,2684,-404
3091,380,14,1343,154,3061,-207
3092,345,49,1236,277,3350,-146
3093,325,41,1115,404,3458,-269
3094,295,39,1003,576,3428,-347
3095,258,38,947,688,3335,-338
3096,228,42,878,651,3171,-299
3097,213,46,821,527,2979,-275
3098,190,46,793,418,2776,-236
3099,164,48,763,287,2616,-224
3100,136,48,732,84,2514,-232
3101,108,42,722,-68,2477,-267
3102,87,44,698,-162,2477,-338
3103,74,7,648,-168,2489,-414
3104,67,-10,607,-76,2456,-435
3105,68,-42,555,53,2323,-365
3106,50,-57,530,137,2077,-217
3107,18,-44,488,111,1831,-31
3108,6,-29,438,14,1587,127
3109,0,-18,422,18,1350,276
3110,-13,4,405,80,1225,360
3111,9,45,398,164,1159,319
3112,15,68,360,283,1108,268
3113,-1,68,338,418,1052,131
3114,-4,48,293,502,932,-45
3115,-36,18,272,442,764,-195
3116,-61,-13,246,180,477,-324
3117,-81,-38,231,-27,153,-260
3118,-99,-54,227,-172,-122,-197
3119,-95,-71,235,-250,-425,-94
3120,-92,-65,251,-308,-730,55
3121,-74,-48,274,-365,-1013,133
3122,-59,-33,298,-394,-1302,127
3123,-17,-24,330,-369,-1665,59
3124,2,-2,396,-256,-2066,63
3125,26,7,443,-117,-2497,49
3126,60,15,519,0,-2837,-11
3127,63,-12,631,149,-3064,53
3128,92,-8,738,231,-3163,98
3129,94,-19,825,135,-3081,125
3130,130,-31,902,-146,-2952,117
3131,183,-32,964,-480,-2814,156
3132,213,-24,1019,-748,-2757,317
3133,239,31,1067,-906,-2738,430
3134,259,70,1094,-805,-2761,483
3135,288,109,1133,-486,-2792,387
3136,278,115,1185,-158,-2863,176
3137,261,79,1238,154,-2907,-27
3138,297,12,1317,270,-2847,-168
3139,332,-75,1429,70,-2777,-70
3140,340,-102,1528,-371,-2669,250
3141,321,-56,1612,-1021,-2427,494
3142,333,-33,1654,-1517,-2154,614
3143,350,-9,1682,-1558,-1874,656
3144,374,9,1686,-1312,-1685,582
3145,396,21,1706,-918,-1609,430
3146,399,2,1745,-430,-1589,239
3147,421,-38,1769,51,-1534,84
3148,417,-80,1850,328,-1372,20
3149,459,-96,1927,406,-917,129
3150,449,-90,1918,340,-257,414
3151,427,-37,1842,190,438,619
3152,459,18,1727,31,975,672
3153,451,52,1626,59,1251,647
3154,439,77,1535,258,1417,539
3155,427,90,1436,518,1522,405
3156,424,98,1363,815,1571,295
3157,404,94,1315,1022,1616,170
3158,390,87,1281,1049,1680,39
3159,374,69,1245,922,1815,-60
3160,364,56,1222,617,2005,-105
3161,338,66,1155,379,2188,-88
3162,331,42,1104,313,2389,-49
3163,304,35,1070,238,2606,30
3164,276,37,987,35,2757,31
3165,253,62,908,-96,2770,22
3166,248,66,845,-66,2694,6
3167,225,60,801,55,2485,-66
3168,188,48,743,192,2237,-140
3169,170,30,753,283,2014,-185
3170,148,24,764,281,1870,-236
3171,118,3,779,205,1844,-240
3172,81,-30,785,104,1909,-187
3173,75,-36,765,-94,2079,-148
3174,73,-46,745,-277,2214,-58
3175,64,-58,687,-398,2214,88
3176,51,-38,655,-467,2126,182
3177,25,-16,601,-533,1966,221
3178,12,-20,572,-517,1723,211
3179,5,-20,531,-398,1436,178
3180,-9,-23,501,-267,1153,153
3181,-20,9,495,-25,862,147
3182,-33,-4,471,315,624,123
3183,-41,2,442,635,432,65
3184,-60,-26,438,752,266,-4
3185,-60,-47,423,604,69,-43
3186,-62,-62,433,334,-126,6
3187,-58,-55,440,-49,-355,65
3188,-59,-42,442,-416,-573,123
3189,-35,-34,464,-551,-761,174
3190,-6,-6,467,-467,-927,184
3191,-18,3,493,-277,-1072,153
3192,-7,-26,516,-94,-1191,139
3193,18,-34,512,20,-1275,156
3194,26,-16,506,106,-1409,194
3195,44,-7,496,209,-1624,235
3196,58,-14,523,246,-1876,283
3197,42,-15,572,117,-2187,352
3198,41,-33,637,-84,-2478,434
3199,101,-32,705,-217,-2675,530
3200,118,-35,783,-344,-2779,637
3201,129,-5,881,-461,-2868,688
3202,161,-3,965,-490,-2892,617
3203,186,-23,1050,-426,-2874,498
3204,242,-14,1111,-381,-2868,395
3205,273,10,1207,-224,-2825,362
3206,280,-18,1305,6,-2730,293
3207,315,-51,1386,47,-2607,225
3208,327,-100,1450,-96,-2466,299
3209,349,-104,1515,-240,-2267,559
3210,381,-45,1562,-252,-1966,703
3211,373,5,1590,-187,-1697,694
3212,399,39,1597,-33,-1409,571
3213,424,40,1607,238,-1187,405
3214,436,34,1605,531,-1060,309
3215,411,50,1608,744,-995,207
3216,386,28,1607,893,-863,108
3217,388,-33,1645,867,-634,110
3218,387,-52,1666,666,-263,283
3219,378,-13,1671,322,155,502
3220,372,39,1628,-25,557,553
3221,387,98,1581,-115,897,477
3222,401,102,1520,100,1188,307
3223,409,98,1434,475,1348,135
3224,393,107,1391,848,1456,-10
3225,377,99,1340,1070,1477,-123
3226,361,118,1288,1098,1489,-279
3227,362,87,1250,979,1514,-412
3228,316,83,1198,793,1524,-392
3229,312,90,1156,586,1600,-373
3230,311,104,1095,375,1755,-371
3231,311,109,1062,96,1868,-422
3232,307,127,1007,-158,1913,-508
3233,293,136,962,-244,1923,-601
3234,254,114,913,-271,1887,-740
3235,239,89,862,-285,1819,-838
3236,216,48,848,-348,1682,-820
3237,196,-4,853,-558,1526,-687
3238,168,-20,833,-834,1411,-484
3239,143,-3,849,-1053,1358,-302
3240,140,6,835,-1197,1341,-254
3241,145,12,835,-1183,1268,-273
3242,106,23,848,-994,1212,-345
3243,68,-3,842,-793,1210,-496
3244,83,-25,809,-644,1212,-681
3245,62,-73,810,-422,1122,-732
3246,33,-113,792,-168,997,-572
3247,11,-118,774,-121,927,-451
3248,8,-142,760,-279,835,-316
3249,-1,-148,747,-418,751,-80
3250,-29,-111,747,-586,700,98
3251,-41,-71,719,-758,637,137
3252,-54,-53,698,-789,526,80
3253,-48,-26,690,-635,387,-49
3254,-29,-37,698,-314,268,-211
3255,-7,-68,691,84,91,-297
3256,5,-112,707,371,-140,-269
3257,-2,-154,733,500,-374,-101
3258,16,-151,810,420,-488,108
3259,14,-124,844,182,-439,313
3260,13,-85,872,-23,-312,406
3261,42,-54,851,-211,-197,399
3262,61,-1,847,-262,-150,317
3263,55,11,852,-154,-198,145
3264,60,-15,858,27,-286,-66
3265,68,-40,878,188,-392,-121
3266,59,-58,917,186,-519,-72
3267,59,-55,938,106,-591,-8
3268,60,-53,975,6,-585,12
3269,77,-53,1022,-117,-544,6
3270,61,-47,1033,-152,-447,14
3271,67,-37,1033,-189,-306,-15
3272,98,-20,1021,-289,-202,-58
3273,109,-18,1028,-347,-204,-105
3274,117,-8,1005,-271,-249,-121
3275,124,7,1001,-41,-320,-162
3276,113,-3,982,233,-392,-226
3277,116,-22,1012,459,-445,-232
3278,124,-46,1023,506,-427,-215
3279,103,-42,1057,401,-349,-127
3280,79,-35,1054,153,-177,-86
3281,108,-42,1031,-156,-3,-86
3282,112,-17,1028,-365,116,-54
3283,117,3,995,-400,151,-62
3284,126,-2,978,-279,112,-119
3285,128,2,954,-109,-5,-164
3286,99,2,960,22,-134,-191
3287,126,-17,978,45,-216,-219
3288,124,-41,1013,-55,-245,-197
3289,115,-34,1013,-265,-220,-131
3290,118,-39,1029,-433,-154,-51
3291,109,-34,1037,-566,-25,94
3292,110,-12,1041,-771,65,117
3293,116,-4,1004,-847,96,65
3294,115,-14,1025,-742,104,-45
3295,117,10,998,-519,46,-172
3296,102,-2,973,-228,-42,-281
3297,96,-15,989,8,-109,-353
3298,86,-39,983,117,-140,-365
3299,102,-56,986,67,-126,-283
3300,75,-62,1015,-234,-81,-168
3301,69,-33,1009,-701,-5,-70
3302,91,-32,976,-1012,67,-56
3303,78,-6,963,-994,59,-43
3304,101,9,957,-763,-42,-60
3305,110,29,927,-363,-169,-115
3306,105,8,948,22,-300,-199
3307,111,-38,974,240,-380,-277
3308,125,-62,998,211,-409,-219
3309,117,-69,1037,28,-363,-125
3310,133,-80,1067,-281,-296,-109
3311,133,-77,1066,-445,-220,-92
3312,124,-76,1065,-418,-132,-58
3313,111,-60,1046,-232,-54,-60
3314,97,-52,1036,84,42,-111
3315,95,-60,981,403,96,-222
3316,99,-77,934,637,53,-302
3317,97,-83,938,725,-66,-328
3318,113,-104,949,725,-193,-316
3319,107,-96,956,721,-304,-267
3320,100,-112,965,594,-357,-197
3321,126,-122,1002,371,-349,-101
3322,125,-111,1028,121,-255,63
3323,125,-85,1027,-219,-120,156
3324,152,-56,1024,-455,-29,174
3325,165,-37,1008,-402,5,153
3326,186,-33,999,-189,-44,90
3327,201,-42,1012,41,-134,10
3328,177,-46,1025,238,-212,-11
3329,169,-65,1030,276,-218,-25
3330,163,-54,1055,229,-159,-27
3331,167,-56,1046,190,-60,6
3332,147,-43,1029,137,67,28
3333,145,-45,1013,88,175,51
3334,137,-29,985,0,218,69
3335,132,-31,983,0,204,76
3336,123,-24,961,65,116,53
3337,136,-34,949,137,36,-11
3338,135,-24,964,240,-50,-37
3339,132,-30,979,324,-105,-29
3340,127,-41,983,344,-97,-11
3341,126,-50,995,268,-60,67
3342,143,-54,1010,137,1,168
3343,136,-22,1011,80,69,248
3344,137,7,995,57,91,239
3345,141,27,982,123,77,158
3346,127,23,990,283,26,49
3347,134,11,986,455,-23,-68
3348,131,-7,984,543,-97,-179
3349,109,-16,1006,463,-136,-199
3350,115,-33,995,278,-87,-172
3351,130,-30,1037,84,5,-84
3352,138,-23,1041,-56,81,-13
3353,121,-9,1020,-66,120,43
3354,134,3,1023,-19,147,30
3355,145,20,1011,151,112,-11
3356,138,35,972,459,50,-82
3357,141,29,954,740,-34,-177
3358,135,29,965,838,-126,-263
3359,152,0,964,715,-185,-324
3360,148,-24,999,469,-206,-267
3361,141,-40,1017,137,-150,-125
