sequence,AccelerometerX,AccelerometerY,AccelerometerZ,GyroscopeX,GyroscopeY,GyroscopeZ
0,-1,3,1007,-1,-3,-3
1,-2,-3,1001,1,1,-1
2,-3,-1,1011,-1,-1,-1
3,-2,-4,1005,3,-1,-4
4,-1,-4,1009,1,1,-1
5,-2,0,996,-5,-3,-1
6,0,8,1006,1,1,-1
7,1,-2,996,1,3,-1
8,-4,-9,1009,1,-1,-1
9,-7,5,1013,-1,-3,-1
10,-10,-5,995,-3,-3,-3
11,-11,-7,1006,1,1,-3
12,-6,1,995,3,1,-3
13,-1,-3,992,-3,-3,-3
14,4,-12,1015,-1,-1,-1
15,-10,-3,1002,-1,-1,3
16,6,0,1002,-1,-5,-1
17,-7,-9,995,-1,-3,-3
18,-3,-1,1004,-1,1,1
19,-1,-8,1001,-1,-3,1
20,1,-5,997,-3,-5,3
21,-10,-5,987,-1,-1,1
22,-10,-10,1032,-1,-5,-3
23,-7,-6,1008,1,1,-3
24,-6,-10,1006,1,3,-3
25,-11,3,1002,1,1,-3
26,-4,-12,993,-1,-3,1
27,-1,-16,1009,-1,-1,-1
28,-8,6,979,-1,-1,-3
29,-6,7,1017,-1,-3,1
30,-8,4,1006,-1,-1,3
31,-6,0,1008,1,1,5
32,-6,-8,993,1,3,-1
33,-7,-7,996,3,5,-8
34,-2,-5,996,-3,-1,-3
35,9,0,1004,-3,-4,-1
36,-1,-6,993,1,3,1
37,-4,11,1016,-1,-1,-1
38,-12,9,1000,-5,-1,-5
39,-12,2,1012,1,1,-1
40,-7,-14,1015,-1,1,-1
41,4,-8,1000,-1,-1,1
42,4,-8,1008,1,-3,-1
43,-5,9,1009,-1,-3,1
44,-11,13,995,-5,-3,-5
45,-12,2,1012,1,-3,1
46,-5,-8,1022,1,1,1
47,-2,-7,1002,1,1,-5
48,6,-8,1004,3,1,-5
49,-3,-6,1008,-3,-3,-1
50,0,2,1004,-1,-3,1
51,1,0,1004,-1,-1,1
52,2,-2,992,-1,-1,-3
53,-2,-5,1005,-1,-1,-5
54,-14,-5,996,-1,-4,-3
55,0,-7,1004,-1,-1,1
56,2,-14,1003,-1,-1,3
57,0,1,998,1,1,-6
58,-1,4,1005,-3,-3,-5
59,-2,8,1008,1,1,-3
60,2,-1,999,-1,-3,-1
61,-7,-2,1000,1,1,-1
62,-2,-9,986,1,3,-5
63,-6,-4,1016,1,1,-8
64,-6,-7,1005,-3,1,-1
65,-4,-1,999,-1,-3,1
66,-8,1,1002,-5,-3,-1
67,-7,3,990,-3,-3,-1
68,-4,0,1008,-1,-3,-3
69,-4,-6,997,1,1,-3
70,-4,-5,1005,-3,-1,-3
71,-4,-11,1014,3,1,-1
72,0,1,1009,1,1,1
73,-1,1,1003,1,-1,-1
74,-9,1,1009,-3,-1,-1
75,-9,4,1003,1,3,3
76,2,-10,1005,-1,-1,-1
77,-6,2,1001,1,1,-3
78,1,-9,1014,-3,-1,-1
79,-3,-5,1008,1,-1,1
80,-9,8,1000,-1,-3,-1
81,-3,3,1001,-3,-3,3
82,5,-9,1016,-1,-1,1
83,-15,-11,999,-1,-3,-3
84,-2,-9,999,-1,-3,-1
85,-3,0,1001,-1,-1,1
86,-4,2,1018,-3,-1,1
87,-1,3,998,-1,-1,-5
88,-1,-6,1008,-1,-1,1
89,-5,-2,999,-1,-1,-3
90,-4,0,1012,3,3,-3
91,-1,-13,1008,-1,-1,-1
92,-8,-4,1002,-1,-3,1
93,-9,58,1086,54,-38,-3
94,-8,-2,1005,11,-16,5
95,-3,0,994,5,-1,19
96,-1,1,1015,-7,-1,11
97,-4,-6,1003,-11,3,-1
98,4,-10,1009,-7,7,-1
99,-11,-5,997,-11,9,1
100,-9,-1,999,-1,-4,3
101,-4,-8,1003,5,-6,-1
102,-8,-5,977,3,-1,-1
103,-4,-1,1002,-5,-1,-1
104,-3,-1,1017,-5,-3,3
105,-1,-7,998,-3,-1,1
106,5,-5,1011,-1,-3,3
107,2,0,1012,-7,-1,-1
108,-4,7,1002,-5,-1,1
109,0,3,1003,-5,3,3
110,-4,-2,1004,-7,1,5
111,-6,1,1011,-9,5,-1
112,-1,1,1012,-3,1,-1
113,-11,11,999,-1,5,-1
114,-5,-7,1012,1,1,3
115,4,-14,988,-7,-3,3
116,0,-3,1000,-3,1,5
117,9,11,997,-3,3,13
118,3,121,1011,3,-1,355
119,-2,44,1004,3,7,562
120,9,120,1010,1,3,468
121,3,108,1031,-3,-1,400
122,-4,94,1016,3,-3,128
123,10,28,1008,-1,1,-47
124,-43,31,1008,-1,-4,-204
125,-38,104,1025,-3,-4,-186
126,-27,185,1018,-9,-1,-161
127,2,104,1033,1,-6,-407
128,6,77,1016,-7,-3,-756
129,10,40,967,-1,-10,-756
130,8,-104,872,-1,1,-426
131,22,-56,956,-1,-1,-311
132,36,62,999,-1,3,-159
133,-9,54,1035,3,5,-395
134,-61,150,1004,1,3,-448
135,8,36,1022,-3,5,-147
136,13,22,900,3,3,218
137,-12,162,1038,-3,9,214
138,-1,75,1054,-5,1,-67
139,-50,122,1069,-15,5,177
140,-69,19,1057,-11,7,363
141,-67,72,1033,-7,3,-6
142,68,182,974,-1,-1,7
143,62,159,962,-13,-4,-67
144,5,117,992,-28,1,-81
145,-40,136,1104,-13,-3,-24
146,-53,61,1047,-21,-14,-208
147,-60,28,942,-17,-4,-241
148,36,33,1066,-13,-4,-208
149,56,143,933,-11,-12,-243
150,10,78,934,3,-12,-428
151,32,-9,1140,-13,-12,-344
152,46,-51,862,7,-4,-264
153,-26,-37,669,-9,-1,-256
154,-21,30,1180,1,-8,-143
155,62,126,886,-13,-4,-258
156,-80,175,833,-11,-14,-141
157,-19,157,884,-5,-16,-288
158,-106,20,1108,-27,-8,-555
159,3,88,687,-1,-4,-497
160,127,101,999,-13,-3,-549
161,-17,-74,1038,3,-3,-647
162,13,139,1059,-1,-1,-405
163,-15,-111,833,-40,9,-512
164,-115,-106,1059,-15,11,-532
165,255,3,1348,-1,9,-260
166,-83,-40,1071,14,-1,-210
167,232,87,1164,16,7,-299
168,39,207,1180,18,9,-206
169,-18,121,1012,9,5,-370
170,75,428,750,14,-1,-422
171,113,-178,1239,-1,9,-497
172,61,-87,841,-11,5,-512
173,-57,11,799,-5,9,-465
174,-166,-60,758,-48,-12,-663
175,137,-197,1392,28,15,-403
176,-79,-117,1145,-1,1,-590
177,-12,-318,1272,5,11,-450
178,116,-316,1188,-1,-1,-348
179,-17,-404,942,-1,-28,-358
180,-65,-279,988,-9,7,-290
181,-82,-346,943,-28,-1,-331
182,7,-380,979,1,-12,-24
183,54,-430,996,-1,-3,-137
184,-10,-346,993,1,-1,156
185,-12,6,1006,-1,-4,99
186,-10,-14,996,1,-3,15
187,-42,-55,1016,7,-4,120
188,11,-13,1008,7,-1,462
189,58,-221,1028,9,1,408
190,45,-243,967,-21,-1,242
191,127,-241,1080,-15,5,300
192,0,-237,951,-25,-3,177
193,42,-296,951,-15,-3,160
194,65,-298,1207,3,-6,126
195,6,-241,1055,11,-1,294
196,-78,-80,1115,-46,-4,271
197,-27,-227,851,-3,-1,318
198,8,-265,830,-7,3,382
199,58,-47,966,-3,-4,519
200,30,-58,1058,5,-10,579
201,37,-156,1113,-13,-4,402
202,35,-242,1007,-23,-4,583
203,108,-127,1099,-1,-8,660
204,4,54,1013,-11,-32,835
205,-56,-113,1076,-21,-12,601
206,-43,-276,1145,-11,-3,441
207,-70,-67,1139,-15,-4,285
208,-151,6,596,-13,-16,259
209,-28,-178,948,-15,5,232
210,7,-55,1137,-21,-1,271
211,-3,-100,1204,-9,1,324
212,-44,-205,1221,-21,7,204
213,68,-94,1171,7,-1,408
214,12,-113,1055,42,-20,652
215,51,-135,1100,50,13,724
216,55,-94,825,57,7,722
217,66,-22,891,61,11,720
218,33,-103,1181,20,3,816
219,-120,29,1113,-5,13,824
220,8,-61,991,-11,17,820
221,-19,-18,928,3,25,769
222,-29,-12,1160,5,29,714
223,115,113,986,26,15,769
224,93,54,1049,32,13,822
225,57,-120,1289,3,23,749
226,-34,12,836,9,17,716
227,97,-46,922,7,-4,802
228,56,-53,1111,1,-12,786
229,50,-10,701,3,-8,900
230,-68,-24,1614,-5,-8,786
231,-69,-125,843,-1,-8,855
232,-259,35,1209,-1,-10,740
233,43,64,422,-7,-16,933
234,-15,93,1405,-21,-4,945
235,48,-75,1154,-17,5,958
236,-21,6,1189,-11,1,970
237,-128,116,714,-3,3,1046
238,30,-16,1269,-3,3,1019
239,-53,-42,590,-5,-3,939
240,69,78,971,1,7,876
241,-49,177,652,-1,11,906
242,-272,197,1308,-1,-4,898
243,101,-24,1393,-3,-3,874
244,-81,201,808,1,7,857
245,47,45,1018,1,11,841
246,150,52,278,15,7,900
247,9,61,1000,9,15,855
248,-70,-89,882,-1,17,935
249,10,-43,1068,3,13,788
250,-36,-77,905,-3,17,744
251,32,-94,1099,-13,5,747
252,117,-4,1213,9,-3,898
253,-37,165,1173,9,-8,898
254,-4,50,766,1,3,829
255,197,-8,1398,-3,11,669
256,40,-31,1255,-9,17,777
257,70,134,974,-9,15,954
258,-163,59,1480,-1,1,812
259,-53,164,661,-17,5,941
260,-109,32,591,9,-4,1187
261,40,22,1104,-11,1,1156
262,-51,149,1111,5,-4,872
263,35,-56,530,3,7,1091
264,-40,145,1139,-13,15,904
265,21,162,1022,1,9,980
266,9,61,442,1,7,1036
267,47,45,971,-1,-10,910
268,258,-95,1011,5,-4,894
269,64,77,1328,11,13,990
270,240,302,939,11,15,1154
271,64,299,976,5,11,911
272,63,333,970,13,9,814
273,128,409,896,-3,5,538
274,169,522,1005,-9,1,527
275,83,407,998,-1,-1,349
276,73,362,994,7,-3,189
277,53,308,1021,-1,5,144
278,141,275,992,5,-1,70
279,155,252,999,-1,-4,72
280,1,2,1013,-3,3,31
281,-1,-2,993,-5,5,3
282,-3,7,1004,-7,5,7
283,14,25,998,-3,3,9
284,41,187,994,1,1,251
285,51,220,1014,-1,3,333
286,113,307,994,-1,-1,158
287,119,206,999,-1,-1,339
288,56,269,1045,1,-6,413
289,11,297,1013,-1,-1,447
290,28,400,931,7,5,298
291,-38,20,1162,9,-3,-53
292,-15,211,991,1,-6,-241
293,-92,178,886,3,-8,-319
294,178,169,1210,-3,-6,-510
295,56,149,1249,-1,-1,-532
296,34,-80,541,-9,1,-421
297,-67,-173,1230,-9,1,-374
298,-89,54,962,1,3,-294
299,-16,49,955,-3,-10,-434
300,34,140,744,-5,-4,-370
301,-11,92,787,-1,-3,-385
302,205,288,1284,1,-1,-518
303,-60,-57,932,5,-12,-589
304,-15,51,1941,1,-8,-676
305,44,73,766,-3,-10,-528
306,-26,324,785,-1,7,-542
307,-34,-109,1440,1,1,-600
308,45,221,803,1,1,-499
309,35,-31,932,1,-3,-549
310,108,-112,1318,11,-6,-536
311,-118,100,1037,-1,-4,-725
312,102,172,991,3,3,-594
313,-152,409,719,-9,-4,-581
314,-88,36,1214,5,-10,-340
315,-36,354,745,-9,-1,-567
316,-204,200,518,-3,-10,-631
317,-78,103,472,3,-10,-762
318,1,-32,999,-1,-8,-620
319,-58,-165,1319,-1,-10,-577
320,-136,238,1200,-27,-3,-462
321,26,-55,1390,-7,1,-633
322,63,-191,1930,10,3,-602
323,57,12,1179,-1,-3,-497
324,8,-177,1089,-11,-12,-643
325,-55,-23,1055,-9,-10,-612
326,-30,-241,1310,16,-6,-471
327,0,-11,911,-1,7,-479
328,7,-95,1295,-13,3,-522
329,-535,2048,-1071,34,9,-717
330,31,240,620,7,38,-1596
331,36,83,834,-13,29,-276
332,163,-376,1726,-68,144,-1321
333,98,22,1190,-46,40,-823
334,76,263,1083,-23,-108,-1122
335,48,-208,1059,-29,-6,-960
336,70,-137,1217,18,-16,-842
337,175,118,1031,-15,33,-837
338,45,-50,568,22,-16,-846
339,175,-209,1579,-1,7,-946
340,11,-27,669,-15,-8,-501
341,85,140,1426,24,-44,-481
342,-109,-234,1259,26,-10,-344
343,21,76,1205,-34,15,-694
344,-107,97,229,-29,1,-741
345,42,69,1016,-7,-6,-1030
346,91,-29,659,-25,3,-1198
347,228,-74,258,-27,-1,-1194
348,305,-273,1458,-7,1,-1200
349,48,-111,785,-11,-6,-1184
350,-78,-176,780,7,-16,-1317
351,-50,-257,902,-17,-16,-1124
352,206,-324,1299,-11,-14,-983
353,-16,-255,974,-1,-6,-926
354,-7,-228,720,12,3,-878
355,-110,-186,675,-1,3,-758
356,-30,-66,614,-1,-4,-712
357,215,-304,372,9,-4,-745
358,-177,-178,860,7,-6,-702
359,-236,-196,1064,10,-8,-647
360,154,-272,930,5,-8,-534
361,-72,-220,977,12,1,-391
362,-38,-200,1163,1,-8,-432
363,-16,-356,893,-1,1,-442
364,26,-423,1063,-1,-3,-284
365,9,-393,987,-1,3,-110
366,89,-264,993,-1,-4,-75
367,-4,-4,1010,1,-1,-3
368,-13,-7,998,5,-4,-3
369,-61,-105,992,5,-3,-36
370,9,-75,1009,-3,-1,-475
371,26,-118,984,-3,-8,-573
372,43,-87,1012,-5,1,-659
373,31,-230,949,-7,-6,-796
374,12,-224,1105,-5,-10,-604
375,77,-441,890,-7,-4,-497
376,-9,-435,826,-5,-1,-305
377,-35,-454,938,-7,-8,-174
378,-67,-158,1138,-11,1,138
379,-100,-89,943,-9,-1,386
380,40,-244,1359,-11,3,394
381,157,-271,656,-7,1,654
382,168,-204,420,-1,-3,660
383,-85,-36,942,-11,7,544
384,157,-275,358,3,5,527
385,87,-262,813,3,-1,298
386,-90,-77,912,1,7,447
387,-42,-166,1323,3,9,712
388,-63,-37,1010,-9,9,687
389,-57,-139,1012,7,5,581
390,-17,-46,1083,7,7,667
391,7,-82,1071,9,5,802
392,164,-145,578,1,-1,661
393,-148,-50,1898,24,13,601
394,258,-245,-104,20,-4,603
395,-88,-140,768,22,7,771
396,-101,-8,895,16,5,974
397,107,-31,953,36,-4,1013
398,-171,17,1082,-64,33,911
399,-167,-33,1234,-97,126,1203
400,-148,-41,507,-5,42,820
401,-78,-29,1271,9,25,1019
402,-5,-3,1173,-19,64,943
403,-25,50,1924,3,52,632
404,118,136,1289,-1,29,845
405,-93,159,1400,30,44,759
406,-26,1,1095,53,35,1126
407,144,397,954,57,1,765
408,-98,-269,756,91,-77,708
409,-257,111,850,214,-92,1179
410,93,118,1019,94,-87,1515
411,-39,-234,1272,-27,-108,771
412,-75,270,1173,-107,42,150
413,30,-93,596,-5,19,894
414,17,-53,1095,-23,19,634
415,-149,137,1345,-34,31,533
416,23,61,826,-9,-6,732
417,48,-47,799,1,-3,812
418,-84,15,996,-1,15,499
419,-21,150,1015,1,9,492
420,13,114,878,32,5,675
421,324,-257,257,1,15,615
422,36,37,973,6,21,675
423,9,204,1135,6,9,660
424,35,91,907,12,5,564
425,-68,68,1010,1,5,119
426,47,161,1276,12,-18,187
427,93,-197,846,16,7,109
428,77,-33,1022,6,19,253
429,-23,-9,879,1,3,339
430,-61,-86,1390,-7,5,462
431,-114,125,774,-3,11,392
432,-211,139,762,-3,3,337
433,-43,48,1055,10,-14,318
434,84,95,785,-13,9,302
435,138,-65,1000,3,-10,228
436,-148,206,1011,8,-3,138
437,-50,-74,1029,-9,9,-6
438,4,48,1120,-5,-1,113
439,77,-29,1191,1,1,167
440,99,-3,668,-11,7,263
441,15,7,1211,1,3,314
442,-20,21,1034,-13,15,421
443,57,68,544,-5,13,574
444,45,43,1293,-3,7,538
445,17,-80,957,4,-1,773
446,-2,41,1018,1,5,790
447,32,-106,963,-15,15,898
448,30,43,1047,1,11,656
449,62,18,899,3,15,701
450,-33,80,956,-5,-1,783
451,-42,-16,893,-3,-3,581
452,63,67,836,3,5,663
453,-4,52,1150,1,1,662
454,-47,119,1041,1,1,640
455,-57,356,1354,6,-6,626
456,72,223,839,6,5,572
457,36,316,991,8,5,492
458,10,358,999,1,7,374
459,-29,445,1116,8,-5,388
460,65,278,932,1,-1,179
461,10,320,1021,-5,3,54
462,-2,281,1003,-1,3,-18
463,-20,27,1003,-3,1,-57
464,-3,8,1003,-7,3,-6
465,200,44,1006,-11,7,-6
466,86,75,1005,-3,3,25
467,47,93,1016,-1,-5,244
468,137,149,946,1,-5,271
469,-7,111,1076,4,-3,468
470,-11,156,1011,-1,-5,523
471,84,234,1000,-1,-8,578
472,1,288,1012,4,-1,630
473,19,318,974,-9,9,566
474,-28,253,988,4,-3,501
475,-29,113,1059,-3,-6,-47
476,92,301,1080,-15,7,-188
477,152,380,1024,1,3,-389
478,9,344,1349,-27,9,-370
479,-7,89,1021,-1,-12,-671
480,9,60,1053,-1,-3,-489
481,119,235,914,6,-1,-305
482,208,-29,1058,4,-1,-96
483,22,171,791,-1,-12,-151
484,-27,215,880,-15,-10,-399
485,41,109,1020,1,-5,-354
486,28,156,877,-3,3,-473
487,74,-113,1068,1,7,-487
488,-34,-13,913,4,-18,-690
489,45,55,928,6,-14,-770
490,13,76,753,-7,5,-755
491,21,-14,984,-1,-12,-749
492,29,326,1070,3,3,-682
493,144,47,1392,1,1,-633
494,-15,-3,953,-9,-5,-756
495,21,465,683,10,-6,-749
496,-229,106,875,4,-5,-774
497,17,247,686,3,1,-870
498,-92,-23,915,-19,-5,-895
499,24,115,926,-5,3,-872
500,-80,129,515,-21,-6,-774
501,10,228,683,12,-24,-837
502,-14,-76,1057,-1,5,-620
503,-61,-128,1208,-15,-6,-635
504,117,83,661,-15,-1,-962
505,51,-122,1641,-1,-12,-1120
506,-53,-404,1534,10,1,-924
507,-132,190,772,-1,-26,-973
508,33,-72,1276,-5,-8,-940
509,25,-95,1625,-1,-10,-647
510,-58,-96,967,-1,3,-653
511,33,-106,811,-17,-6,-635
512,-311,524,-26,30,17,-680
513,-69,14,1508,26,-6,-1327
514,61,177,1002,4,-6,-399
515,-53,158,910,-52,113,-1368
516,6,90,1243,-21,21,-858
517,45,-8,933,-70,-40,-1038
518,159,-83,1278,-81,35,-817
519,47,46,709,9,-24,-872
520,19,121,1323,-1,-12,-719
521,-239,-35,1438,38,-26,-655
522,-26,27,1237,42,-46,-889
523,95,-219,1480,3,-12,-926
524,43,-28,1013,18,-8,-663
525,31,-251,1130,-25,11,-755
526,99,25,467,-13,-1,-516
527,80,-98,1006,-33,1,-643
528,188,85,449,-58,-12,-667
529,304,15,266,-7,-10,-712
530,82,77,1087,20,-10,-766
531,-16,-47,1105,-9,-4,-887
532,205,-109,805,-11,-6,-866
533,197,-114,911,-1,-6,-866
534,28,-180,938,-11,-24,-799
535,-106,-74,1182,-15,3,-571
536,-38,-321,1221,-13,-8,-671
537,-57,-215,1034,-1,-4,-626
538,-120,-226,1051,22,-10,-577
539,-23,-245,1224,-1,-4,-762
540,-34,-224,795,-1,-6,-782
541,-100,-502,1563,-1,-6,-598
542,38,-283,1069,9,-8,-450
543,-130,-230,1360,-1,1,-422
544,-40,-295,1191,1,-4,-296
545,8,-380,1181,3,-1,-116
546,-59,-383,1101,-3,5,-172
547,7,-323,1077,-3,5,-61
548,-32,-244,970,-1,-4,-77
549,22,-263,989,7,-1,-24
550,-9,36,1014,1,1,21
551,-5,-9,1008,5,1,-3
552,1,-26,1021,3,-1,-3
553,22,-239,995,3,-3,-130
554,46,-186,998,-1,-4,-360
555,49,-231,995,-7,-4,-290
556,16,-329,1054,-7,5,-497
557,14,-226,953,-17,3,-356
558,-41,-216,1090,-1,-1,-249
559,-133,-156,1244,3,-4,-79
560,16,-188,817,-11,-1,21
561,159,-342,1088,-1,-6,269
562,40,-100,853,-9,-1,437
563,-3,-111,1037,-7,11,484
564,-25,-72,748,-1,1,572
565,85,-189,1039,-17,9,552
566,33,-208,1036,5,-3,511
567,25,-69,1014,-5,3,351
568,215,-222,1446,-5,-12,230
569,-82,-207,1143,-1,-10,306
570,52,-175,959,3,1,501
571,-30,-184,1035,7,-8,699
572,-80,10,1169,9,7,595
573,51,-2,1012,-1,13,867
574,-32,-161,569,-5,-8,779
575,-81,-153,1182,22,9,878
576,-60,-181,775,3,17,863
577,23,-6,981,-1,7,663
578,-57,75,919,-1,7,906
579,17,-134,1246,36,17,650
580,67,-2,956,55,11,734
581,-80,82,1181,34,3,833
582,-1,-46,996,14,9,581
583,142,-98,440,3,-20,814
584,17,259,285,22,-28,638
585,164,-12,1015,9,-26,913
586,-165,153,1331,-21,-8,1091
587,-138,-23,1571,3,-16,1038
588,-136,-382,790,-9,-16,1185
589,10,33,1648,-1,-18,1042
590,-220,318,814,-15,-12,954
591,32,97,577,-33,15,753
592,-24,175,1421,-15,-1,763
593,-81,140,1431,-17,-10,542
594,-119,294,1505,5,9,624
595,4,140,1230,-1,-4,562
596,113,-228,2048,-34,7,613
597,100,-20,838,-1,15,548
598,-24,-29,727,-13,-10,736
599,-30,45,1444,-3,11,790
600,-93,140,1228,-19,21,740
601,-80,237,1341,-7,13,1064
602,-69,131,630,22,7,851
603,100,-87,251,3,11,876
604,-24,-77,1010,9,9,954
605,47,-28,1149,3,7,923
606,-186,170,658,-1,1,911
607,-73,121,876,-1,7,906
608,97,278,914,5,5,923
609,0,-73,690,-11,17,605
610,-36,-19,1140,-15,15,603
611,174,-32,1167,-7,5,740
612,125,-154,1291,-7,21,1240
613,12,16,1362,-13,3,953
614,15,-55,761,-19,17,1193
615,-74,75,767,24,-32,1158
616,15,-38,1127,-5,3,1187
617,77,70,573,-9,17,933
618,-18,327,845,-11,5,882
619,-100,-26,927,-3,7,831
620,35,8,669,-15,23,689
621,12,-15,1186,4,-1,712
622,21,196,1210,2,-3,732
623,45,-4,919,2,-5,589
624,232,-71,998,2,7,767
625,12,-91,1418,0,13,630
626,132,15,1074,0,9,435
627,43,232,1170,2,1,451
628,-10,164,846,-7,5,632
629,-23,61,979,6,-1,320
630,68,174,1109,-15,5,189
631,57,106,300,-3,1,324
632,30,239,761,2,11,351
633,-44,128,1068,-9,3,294
634,22,249,815,-1,9,410
635,76,302,1078,4,3,548
636,127,266,1104,0,3,515
637,7,431,1051,0,5,312
638,-3,489,899,-1,3,-87
639,95,465,1011,0,3,-380
640,172,323,983,2,-3,-547
641,56,39,1009,-1,-3,-256
642,-3,-2,1015,-3,-1,-12
643,-6,-6,1010,-7,3,-3
644,-6,-3,1005,-5,3,3
645,17,80,1009,-7,1,-1
646,63,151,1014,2,5,85
647,111,272,1023,-5,-1,-59
648,56,191,969,-1,-3,54
649,64,138,1023,0,-1,78
650,60,110,917,0,-5,140
651,36,249,739,-1,-1,273
652,142,445,926,0,1,374
653,67,417,1082,2,-6,189
654,-31,478,1113,-11,-5,-12
655,56,363,989,2,-3,-235
656,-69,2,874,-7,-8,-762
657,55,92,902,-1,-5,-694
658,176,41,773,6,-5,-456
659,64,386,1133,-9,-1,-399
660,79,175,1000,-1,-8,-399
661,99,275,706,4,-12,-292
662,33,396,642,-1,-8,-366
663,-10,-60,841,-15,-6,-526
664,46,-2,547,2,-14,-587
665,46,245,1151,8,-10,-506
666,51,242,1269,-5,7,-422
667,7,54,849,-1,-3,-495
668,5,54,989,-11,-10,-551
669,-154,-164,937,12,-22,-700
670,-147,-52,964,-17,1,-858
671,41,184,994,-3,-6,-954
672,-8,152,882,-3,7,-1149
673,-133,-176,1226,-13,17,-940
674,15,96,1037,22,-16,-909
675,19,186,969,10,-20,-1046
676,-35,196,967,-5,-12,-905
677,66,175,972,-15,1,-633
678,33,145,1281,-17,3,-616
679,46,225,978,14,-6,-434
680,6,3,1284,10,3,-284
681,-49,-18,1083,-21,-10,-696
682,39,32,1526,-3,-8,-655
683,-108,60,863,-11,-14,-823
684,-42,-160,1162,-9,-10,-895
685,40,82,1133,-1,-24,-1057
686,-26,-28,913,6,-18,-1120
687,-90,188,410,6,-5,-1212
688,345,-72,393,-3,9,-1147
689,-95,168,926,-1,-14,-1217
690,-51,-303,315,0,-3,-1237
691,111,-162,735,24,3,-1102
692,185,-68,1761,10,15,-977
693,301,-215,1776,20,9,-1008
694,140,-170,675,2,-3,-1046
695,-123,-299,1442,-3,1,-1028
696,-221,-111,999,4,5,-1010
697,-11,-189,969,6,1,-700
698,117,-52,911,-9,23,-733
699,108,107,733,-23,25,-878
700,45,53,1020,14,9,-565
701,-70,-73,1124,-9,9,-813
702,169,-32,909,-41,19,-764
703,11,-96,1367,-50,-5,-801
704,-139,-125,1315,-35,-12,-766
705,-17,-84,1126,-7,-5,-952
706,33,-94,829,-13,-12,-813
707,35,-258,1796,-37,-12,-878
708,-86,-66,555,-1,-14,-819
709,183,-217,485,0,-3,-708
710,15,-138,685,-1,-5,-626
711,7,-154,1062,-3,-6,-534
712,-126,-194,1527,-1,-10,-540
713,-18,118,922,24,-5,-594
714,128,-238,877,0,11,-557
715,71,-36,1228,-1,7,-483
716,42,-81,1100,-41,25,-770
717,19,-475,1067,-9,1,-639
718,28,-335,1172,-5,-5,-428
719,-1,-112,1071,2,-5,-235
720,-64,-344,996,-4,-6,-165
721,-39,-211,900,4,1,-186
722,3,-295,1041,2,5,-194
723,-10,-337,944,0,1,-258
724,-16,-427,1071,-2,-1,-145
725,21,-326,1010,-4,1,-53
726,-1,-13,1008,-4,-6,-6
727,-4,-8,1002,0,-3,-1
728,3,1,998,2,-6,1
729,-4,0,1007,2,-1,-3
730,-16,-49,1004,2,-1,-6
731,-22,-232,1003,-2,-3,-180
732,19,-117,987,-4,-3,-352
733,43,-145,999,-2,-1,-155
734,6,-438,1008,-4,1,-463
735,-2,-218,945,-6,5,-415
736,-14,-144,869,-9,3,-124
737,30,-261,926,-9,1,-120
738,-113,-179,1254,-7,3,-100
739,44,-259,1068,-9,-8,38
740,43,-181,1032,0,1,203
741,-59,-145,681,-4,-5,533
742,14,-234,833,-4,-1,390
743,-45,-227,1361,-27,13,347
744,-45,-232,944,-2,-6,412
745,105,-262,1064,6,-10,310
746,320,-385,1108,-4,-6,419
747,164,-359,1075,12,15,673
748,-86,-96,671,-2,1,574
749,72,-111,546,12,5,552
750,-19,-373,1502,-13,21,548
751,56,-55,728,28,13,931
752,171,-121,1144,22,11,712
753,106,58,1145,2,15,874
754,327,-381,902,26,23,855
755,-31,-69,1478,32,27,818
756,88,-124,1128,10,17,855
757,235,-87,1365,37,-32,953
758,40,-52,576,47,-42,964
759,70,301,1022,-7,-22,1078
760,174,-90,1275,-2,-34,1037
761,-25,-127,1127,-15,-10,1212
762,171,52,770,-7,5,1021
763,-149,252,1242,-7,7,999
764,-12,-210,1086,-37,7,915
765,165,109,322,-21,5,828
766,-136,238,870,-33,-8,626
767,-101,83,1205,16,3,566
768,191,-316,1112,-6,-1,826
769,149,-383,1272,8,5,949
770,40,31,1067,-7,3,1025
771,-77,61,606,-27,44,1101
772,101,-120,643,8,11,1269
773,119,-254,1391,10,5,1341
774,-18,-11,841,10,11,1228
775,-19,-115,1607,8,11,1083
776,-37,6,1292,-9,5,763
777,23,-55,1643,-7,11,812
778,-47,-74,442,4,9,695
779,255,-201,1161,-4,13,562
780,-129,265,941,-2,3,867
781,-21,92,1155,-19,5,843
782,-78,112,776,-15,11,1124
783,-45,-82,724,22,-20,1167
784,48,-189,1202,-6,1,1025
785,76,-56,1276,0,-6,1007
786,60,-265,882,-15,17,1013
787,-120,168,883,-6,11,921
788,91,37,1129,-7,-10,1099
789,-58,-30,1028,-6,3,855
790,172,-125,1068,0,13,701
791,231,-12,-73,18,11,822
792,116,195,869,-13,13,900
793,140,276,1164,-9,21,1119
794,60,397,1496,-9,15,1187
795,-37,103,1749,6,1,1183
796,201,-13,389,-4,7,996
797,-10,276,1325,20,1,1001
798,85,110,254,10,-1,884
799,24,182,1204,8,5,763
800,183,225,888,0,5,945
801,0,421,768,-2,11,1117
802,89,157,1004,4,-5,1160
803,86,322,864,2,7,1048
804,11,414,750,-17,7,706
805,82,358,1132,-6,5,556
806,12,572,964,-4,3,417
807,3,381,888,-4,5,-57
808,114,266,1044,-2,-1,-102
809,116,187,1013,0,3,38
810,86,137,995,-4,1,142
811,-2,-5,1008,-2,1,35
812,3,-8,1001,-6,1,1
813,-4,0,1013,-6,1,1
814,3,17,995,-7,7,9
815,147,265,1007,2,3,105
816,45,232,1002,2,-1,154
817,89,149,1073,2,-1,-24
818,15,174,990,4,-5,-108
819,111,203,934,6,3,95
820,51,234,926,4,-1,74
821,81,275,929,4,3,134
822,60,249,953,12,-3,-85
823,56,223,1106,-4,-3,-294
824,36,256,1091,-2,-1,-565
825,64,209,1099,-2,-10,-819
826,179,36,1198,-2,-3,-971
827,35,-12,992,2,-7,-741
828,-7,5,911,-12,-8,-778
829,-6,73,1095,-17,-1,-557
830,-54,-123,802,2,-14,-428
831,-52,145,781,-12,-3,-391
832,75,105,1188,-4,-5,-344
833,47,293,989,-12,-8,-710
834,-6,139,913,-12,-10,-901
835,28,91,763,-2,-12,-1077
836,-32,11,1120,-2,-12,-1188
837,108,25,1027,-2,-16,-1003
838,-203,18,1013,-8,-12,-899
839,66,-21,1127,-4,-8,-549
840,30,191,1194,-15,-1,-323
841,-123,16,1060,-8,3,-110
842,-125,-51,1172,4,-7,-157
843,-100,232,1042,24,-20,-639
844,-86,70,864,0,-7,-688
845,48,49,1114,-19,3,-840
846,75,-17,1191,0,-1,-754
847,117,50,1206,-10,3,-569
848,-18,-89,1280,20,-14,-549
849,135,-11,730,16,-8,-444
850,-178,230,735,16,-7,-426
851,-143,-36,589,-2,-7,-770
852,-61,264,811,-8,-5,-922
853,-27,184,865,6,3,-1055
854,27,115,887,-15,3,-1145
855,-63,-54,1009,12,-8,-1243
856,22,44,689,-8,-14,-1424
857,59,-31,746,-2,-12,-1481
858,69,-73,1073,-10,-8,-840
859,136,-91,1630,-17,-14,-977
860,130,198,1356,4,-12,-987
861,-19,-61,1193,8,-26,-753
862,162,-357,1878,22,-14,-758
863,10,-216,846,0,7,-753
864,-317,503,914,0,-5,-1071
865,-188,-54,1030,-4,-12,-987
866,-33,-377,1296,18,15,-1172
867,-179,255,1314,35,-10,-1301
868,-138,-440,950,20,-3,-1268
869,1,187,967,6,19,-1014
870,6,-121,911,12,29,-1036
871,-1,-13,519,20,19,-954
872,-69,-78,509,10,11,-837
873,-77,-540,825,-35,52,-829
874,107,-60,643,0,17,-606
875,79,-260,584,-10,19,-868
876,28,-55,901,-23,21,-563
877,55,-129,1116,-19,11,-602
878,53,-301,1158,-21,13,-493
879,-68,-214,995,-33,9,-407
880,-4,-221,685,-45,-7,-512
881,176,-167,1219,2,-3,-669
882,126,-85,749,-19,-1,-921
883,-61,-274,781,0,7,-624
884,-10,-435,1386,-15,-5,-817
885,61,-209,944,-15,1,-809
886,-70,-374,1388,8,1,-827
887,50,-323,1191,-8,-14,-487
888,-43,-306,1076,-15,-8,-413
889,-11,-238,935,-4,-1,-379
890,53,-202,1160,2,-7,-403
891,-21,-351,1175,0,-1,-362
892,-14,-350,894,2,3,-360
893,-57,-103,964,2,-1,-290
894,31,-248,1047,0,3,-448
895,5,-234,993,-8,5,-360
896,-5,-246,1070,-2,-1,-200
897,21,-210,1007,-2,-7,-85
898,45,-318,1017,0,1,-59
899,5,2,1016,-2,-1,-18
900,-1,-13,997,-2,-1,-1
901,-5,2,1016,0,-5,-3
902,75,-175,993,4,-1,-51
903,42,-166,988,-6,-5,-676
904,53,-94,1011,-6,-3,-579
905,32,-99,1025,-2,-5,-413
906,93,-336,1056,-10,-3,-469
907,-12,-281,1047,-12,-3,-381
908,93,-323,931,-4,-3,-296
909,-121,-233,1021,-2,-8,-1
910,-89,-173,1020,-10,-5,99
911,26,-259,652,-6,-5,171
912,27,-264,924,2,-3,162
913,13,-206,1009,-2,3,273
914,4,-80,1166,-12,7,199
915,138,-202,564,0,-3,306
916,-16,-124,1231,2,-1,273
917,-240,-68,1231,-2,-3,552
918,202,-276,759,6,1,562
919,34,-104,822,2,5,421
920,75,-105,541,6,-3,626
921,-13,-88,1160,2,5,646
922,-6,-165,1235,8,5,540
923,-42,-83,1343,10,5,669
924,-237,-5,1275,37,1,781
925,-21,89,532,14,-1,761
926,3,-200,853,0,15,615
927,128,-73,772,49,-34,1103
928,-4,-131,810,-45,44,931
929,77,-157,1201,20,-5,863
930,252,-410,1064,10,5,990
931,-40,-80,1196,-25,15,949
932,-89,-42,1037,2,-36,1216
933,5,-318,165,-25,19,1105
934,277,43,1376,45,70,1267
935,-60,-82,1076,6,52,953
936,96,-187,783,29,-63,894
937,68,-151,1367,96,-96,749
938,-650,58,262,-115,-311,1710
939,106,282,1290,-25,5,578
940,52,31,1043,-8,7,1091
941,22,-34,731,-4,5,855
942,4,76,967,-4,7,861
943,-190,45,963,0,29,714
944,62,-86,977,-16,-5,781
945,-471,372,910,14,7,806
946,45,-51,1400,24,11,769
947,78,184,894,-10,13,1097
948,-14,-191,227,-19,31,1253
949,94,-3,1501,-4,5,828
950,-50,184,1664,22,1,816
951,36,-12,1060,-17,25,765
952,29,-27,1204,6,-7,570
953,-103,120,884,-12,7,511
954,-120,21,797,-21,1,658
955,35,259,953,-2,-14,822
956,-173,193,947,4,-1,929
957,-137,93,1525,-2,-3,814
958,-96,179,625,-8,13,935
959,164,146,-253,-17,15,951
960,58,-38,-101,0,3,943
961,118,146,962,-14,5,937
962,101,-2,687,-4,13,847
963,222,-250,315,4,-1,814
964,-109,133,1339,-4,9,767
965,-118,16,1491,2,11,843
966,37,218,1090,-16,13,626
967,95,94,1283,-2,-3,933
968,-10,21,923,2,13,818
969,150,17,1016,-8,1,945
970,50,24,1182,4,11,1226
971,30,235,779,4,1,1031
972,56,36,828,14,3,1060
973,13,236,1062,12,-10,1076
974,-33,141,978,6,13,964
975,108,372,960,-16,9,638
976,68,288,804,-6,5,509
977,-14,368,1068,2,-8,277
978,45,179,1144,0,3,-34
979,120,61,978,-14,-5,54
980,59,-52,1088,0,1,644
981,51,216,853,0,5,937
982,-19,300,871,-2,5,482
983,86,374,1129,4,3,599
984,15,407,958,-4,5,470
985,58,381,1073,8,1,205
986,114,358,989,4,-3,335
987,131,219,1014,8,-3,91
988,-4,-2,1003,0,1,3
989,5,-9,997,-19,7,3
990,-8,-13,1006,-16,7,3
991,-4,-3,1002,-10,3,7
992,153,191,1004,-6,5,29
993,95,142,999,6,1,619
994,108,138,1003,6,-1,431
995,103,162,1012,0,-3,361
996,23,70,929,4,-3,185
997,24,126,972,8,1,394
998,102,280,959,2,5,458
999,43,294,978,0,-5,191
1000,44,276,1095,0,3,95
1001,-10,399,851,2,-3,42
1002,27,204,1061,2,-7,-14
1003,33,26,709,-2,-3,-208
1004,30,171,1516,-6,-5,-399
1005,42,70,1044,-2,1,-420
1006,23,288,863,-2,-7,-301
1007,33,71,1403,-6,-3,-286
1008,-13,233,815,-2,-3,-419
1009,52,48,576,-12,-7,-608
1010,78,205,976,-17,-7,-639
1011,40,326,1012,-14,-7,-684
1012,-86,57,956,4,-12,-952
1013,86,89,947,-6,-5,-891
1014,100,130,991,-2,-10,-1075
1015,131,68,1265,2,-10,-659
1016,23,109,856,6,-8,-583
1017,-157,-16,1069,-4,-16,-534
1018,36,64,1246,8,-14,-495
1019,26,147,991,-18,7,-719
1020,-41,-148,1346,-16,-3,-813
1021,25,72,1129,-8,-7,-1133
1022,150,5,681,-6,-1,-989
1023,-110,53,1048,10,-8,-692
1024,-83,195,930,2,-1,-737
1025,-117,-36,1211,6,-24,-702
1026,-29,138,1056,-4,7,-712
1027,-75,-83,597,-2,-8,-684
1028,59,-30,1114,8,1,-985
1029,55,251,820,-18,21,-866
1030,-76,-62,991,31,-16,-907
1031,44,-13,622,29,-24,-1231
1032,-37,112,1008,-19,-8,-1169
1033,-77,11,1184,6,-18,-885
1034,-52,-156,658,-2,-5,-840
1035,-70,-90,959,-4,-8,-801
1036,31,-64,1031,10,5,-782
1037,-114,-134,1046,-2,-3,-620
1038,22,109,615,-2,-10,-792
1039,-354,106,1490,-27,-1,-618
1040,17,-117,858,-21,-14,-776
1041,20,218,926,-12,-3,-860
1042,-52,-29,410,-2,-18,-809
1043,70,18,1171,0,-10,-624
1044,-184,129,1484,10,-8,-553
1045,-231,165,750,-8,9,-680
1046,-113,353,815,6,1,-799
1047,279,-52,604,-2,-1,-811
1048,-32,-337,1080,-2,1,-854
1049,12,-155,707,27,5,-995
1050,-181,242,762,27,-12,-920
1051,161,-122,624,37,-22,-842
1052,-217,23,778,14,1,-852
1053,-80,-199,1294,22,9,-858
1054,89,28,801,8,9,-942
1055,-37,50,1049,-10,19,-772
1056,-72,15,929,-8,25,-936
1057,87,86,1363,2,1,-1092
1058,41,-49,1189,-10,9,-758
1059,-54,-26,833,-4,29,-737
1060,-45,-129,903,-25,9,-1180
1061,1,-31,995,-35,7,-1036
1062,-69,-204,933,-37,7,-790
1063,133,-224,949,-84,-3,-837
1064,104,-433,1603,-49,-14,-958
1065,-58,-285,549,-2,-10,-762
1066,21,-102,1035,-2,5,-585
1067,13,-238,1041,2,5,-710
1068,85,-189,979,-4,-1,-907
1069,-41,-315,800,-2,-1,-778
1070,120,-374,1016,-12,-3,-489
1071,68,-339,1080,8,-7,-575
1072,-75,-200,1036,-8,-5,-676
1073,-41,-351,634,-4,-7,-657
1074,2,-404,1012,-12,-5,-483
1075,-39,-337,940,0,-3,-473
1076,31,-148,977,-8,-1,-169
1077,19,-303,995,-2,1,-69
1078,21,-14,1013,-2,-1,-38
1079,-9,-13,1009,6,1,-3
1080,-11,-22,998,4,-3,-4
1081,-30,-285,1002,0,1,-71
1082,21,-168,995,-2,-3,-114
1083,101,-411,995,-4,-3,-75
1084,64,-284,978,-12,-1,-253
1085,-98,-351,1058,-12,1,-169
1086,9,-401,879,-4,3,-3
1087,-26,-168,871,0,-3,214
1088,-20,-433,732,-10,3,146
1089,-95,-275,839,0,5,333
1090,-96,-42,1262,4,7,490
1091,-130,-35,1109,12,9,669
1092,186,-67,988,8,-1,605
1093,133,-227,291,-2,1,601
1094,101,-225,1098,-10,9,605
1095,-15,109,1234,-6,7,617
1096,-77,-75,1389,0,9,437
1097,116,-248,1047,18,3,531
1098,62,-175,1007,12,11,470
1099,8,-100,925,51,-3,453
1100,79,-243,810,25,3,523
1101,193,-167,377,31,-24,513
1102,125,-130,917,22,-32,628
1103,-18,109,1095,29,-36,726
1104,140,-94,1211,-8,-12,818
1105,433,-24,340,-2,-20,839
1106,-7,41,707,-8,-10,681
1107,99,-17,724,-2,-34,794
1108,-94,231,1164,-2,-24,574
1109,-17,-147,490,16,-34,640
1110,4,-473,1332,-10,-12,433
1111,77,16,1030,-39,13,363
1112,58,-231,762,-23,-3,671
1113,-305,-168,1919,-31,-12,656
1114,102,-307,1117,-16,-5,761
1115,-200,77,1704,4,-8,746
1116,16,-79,487,6,7,697
1117,-164,209,1314,-10,5,677
1118,-71,66,901,-12,9,683
1119,60,-73,1119,-12,1,1031
1120,78,-133,751,10,3,798
1121,-103,-137,988,-10,3,599
1122,-109,56,848,-6,21,509
1123,-59,-81,799,-6,13,583
1124,-24,-108,908,4,9,697
1125,88,42,1232,-16,3,763
1126,-20,104,980,2,-7,849
1127,4,-118,1009,12,1,804
1128,-244,211,1382,-4,11,523
1129,45,7,454,-2,5,622
1130,40,13,1115,4,21,662
1131,64,-58,450,4,-7,867
1132,21,-27,886,-10,1,1285
1133,60,4,982,-10,-5,1412
1134,124,26,1083,10,-9,1648
1135,42,77,793,-4,7,1556
1136,-122,167,917,0,5,1398
1137,28,171,1039,4,-1,1191
1138,40,55,1085,-20,17,1269
1139,-53,98,1012,2,-1,1330
1140,-11,148,1083,8,5,1697
1141,84,228,1071,19,-1,1626
1142,41,83,984,6,7,1503
1143,5,139,1033,0,9,1630
1144,-58,50,984,-2,17,1617
1145,26,118,1082,2,9,1562
1146,35,325,945,17,9,1671
1147,52,264,753,43,-9,1433
1148,99,391,1211,23,1,1265
1149,-110,398,1234,-8,7,874
1150,144,295,1126,-16,11,560
1151,117,266,1314,-2,-1,587
1152,56,189,971,8,1,527
1153,70,218,925,-10,11,523
1154,62,399,895,0,3,353
1155,110,420,1028,2,3,265
1156,145,467,1016,0,3,80
1157,-8,-2,1002,0,1,64
1158,-5,-2,1004,-2,3,1
1159,-13,-4,1015,-12,3,-1
1160,5,6,1006,-12,5,-3
1161,85,154,1005,-14,-3,-227
1162,47,82,993,-8,1,-313
1163,32,25,988,-6,-1,-331
1164,133,176,972,-2,-7,-325
1165,98,137,1021,-2,-5,-151
1166,49,112,1001,-2,-9,-378
1167,117,224,1006,-2,-9,-305
1168,1,124,1008,-6,-7,-493
1169,-4,222,1071,-2,-7,-461
1170,40,213,956,-4,-9,-618
1171,33,163,1119,-2,-7,-641
1172,-9,-76,1201,-10,-5,-878
1173,116,129,999,-16,-3,-936
1174,58,20,1059,-16,-7,-805
1175,142,2,1030,-2,-10,-565
1176,125,47,971,-6,-9,-567
1177,5,88,963,-2,-16,-809
1178,75,167,1112,0,-22,-965
1179,-8,42,922,-8,-3,-960
1180,178,2,996,-6,-14,-1024
1181,113,113,1181,-10,-1,-969
1182,101,89,870,-8,-16,-952
1183,190,115,1048,-10,1,-629
1184,-91,159,784,-2,-12,-836
1185,-54,-127,1207,-2,-16,-815
1186,248,251,1055,12,25,-544
1187,234,137,969,-2,1,-868
1188,67,126,1017,0,27,-991
1189,-91,-37,1073,-10,-1,-1204
1190,-35,4,1130,-2,-44,-1432
1191,79,66,832,29,23,-1299
1192,-1,-142,1038,12,-18,-1323
1193,64,38,1086,29,66,-1249
1194,68,174,975,19,97,-1106
1195,-120,-84,1114,14,38,-1143
1196,100,-14,1047,-4,-3,-1120
1197,-30,-105,1051,-6,9,-1032
1198,17,-133,985,2,11,-946
1199,47,-83,957,6,-7,-1081
1200,-26,-127,950,23,-10,-938
1201,45,-32,1100,23,9,-710
1202,-77,2,1097,8,32,-764
1203,-13,-177,1023,-14,29,-735
1204,-392,177,493,-37,-1,-1102
1205,64,146,899,10,9,-1204
1206,-45,-100,1056,14,-40,-1061
1207,40,62,803,-22,1,-774
1208,-38,-331,1128,-37,38,-653
1209,36,138,747,-39,40,-704
1210,102,22,1134,-4,-3,-799
1211,-105,-24,975,25,-69,-1020
1212,-101,-258,1144,0,-7,-411
1213,-87,-181,1077,0,-26,-301
1214,-301,-138,944,-6,-24,-389
1215,-92,102,1087,-31,-67,-438
1216,-53,135,597,-6,-46,-469
1217,-7,34,1005,-43,-65,-542
1218,-217,17,779,8,-48,-995
1219,0,-109,947,-51,-94,-745
1220,119,197,895,14,-69,-1004
1221,-40,65,848,-65,-59,-637
1222,235,252,841,-4,-69,-680
1223,-491,170,1575,-8,-63,-770
1224,-77,65,1089,-2,-50,-585
1225,0,-51,485,39,-57,-622
1226,-14,127,987,39,-65,-856
1227,-35,-81,1116,-22,-18,-979
1228,-12,-8,951,-39,-30,-1202
1229,60,12,1209,-22,-91,-1063
1230,103,13,1024,-8,-59,-942
1231,50,-5,932,-18,-32,-928
1232,15,104,854,-16,-24,-963
1233,-72,2,552,-10,-28,-581
1234,-174,-174,1012,-16,-67,-985
1235,68,-93,1218,4,-67,-758
1236,-54,-109,1046,15,-30,-778
1237,-76,-37,1042,-4,-53,-1194
1238,-4,-36,936,-8,-93,-1225
1239,-2,-45,1023,8,-3,-1006
1240,-101,-70,981,8,-38,-1256
1241,-52,-136,1044,-4,93,-961
1242,-120,-240,1037,4,40,-1079
1243,-37,-283,836,-10,115,-915
1244,-111,-233,963,0,109,-809
1245,-198,-177,994,0,79,-797
1246,-157,-212,1129,12,74,-739
1247,-151,-319,964,0,128,-639
1248,-187,-330,929,-2,91,-700
1249,-205,-352,983,-6,95,-620
1250,-114,-83,983,-8,83,-338
1251,0,-9,1007,2,-9,-10
1252,-7,-6,1014,14,-50,-4
1253,-8,-5,1015,15,-114,-1
1254,-96,-191,1000,-4,-34,-387
1255,-172,-238,1006,0,9,-657
1256,-210,-184,992,10,-200,-16
1257,-70,-125,986,-2,-22,-227
1258,-87,-102,1047,-6,-40,-202
1259,-197,-227,971,-8,-75,66
1260,-169,-97,930,-2,-51,230
1261,-111,-151,1080,-2,-57,19
1262,-84,-246,1035,4,-126,220
1263,-59,-99,1023,12,-110,540
1264,-38,-99,1019,4,-12,464
1265,33,-281,1370,-12,-20,576
1266,-233,-272,807,6,54,566
1267,-32,-190,1236,-10,64,505
1268,-132,-109,1133,-24,56,499
1269,280,-13,1393,-20,75,359
1270,-55,94,811,-8,75,738
1271,-19,-128,1083,-18,56,1031
1272,-66,-70,1175,10,81,1318
1273,-87,-299,936,43,62,997
1274,-220,-144,899,14,54,1179
1275,-83,-136,944,10,103,1205
1276,-8,-63,1108,55,40,271
1277,52,-12,1009,19,54,775
1278,-88,-19,1061,10,68,785
1279,107,33,926,-6,54,435
1280,248,166,1314,-18,103,453
1281,126,-115,1816,-39,74,351
1282,-20,-143,451,-29,142,726
1283,92,-21,899,-14,77,929
1284,58,37,1147,-16,91,740
1285,107,-47,1242,12,81,923
1286,110,41,794,0,79,1095
1287,-83,34,-322,-8,68,900
1288,-262,124,1592,2,11,986
1289,174,200,1145,21,-7,1292
1290,-21,-8,1278,-10,-3,878
1291,-133,81,1428,8,-26,1333
1292,-26,-183,971,-10,5,874
1293,55,270,579,8,-1,117
1294,101,51,1422,4,-32,747
1295,-168,-274,1332,-10,-28,617
1296,-40,-228,1203,10,-26,351
1297,119,-223,819,-12,-5,455
1298,71,-90,974,-6,3,935
1299,101,256,1058,2,9,1117
1300,-61,141,994,-12,-61,1292
1301,19,128,1134,-10,-192,1490
1302,-166,-67,1068,-6,-75,695
1303,16,24,921,-6,-91,501
1304,7,62,889,-24,-3,831
1305,-233,-328,850,-2,17,978
1306,123,-148,995,-12,27,1156
1307,74,-192,923,-14,17,1146
1308,-62,222,871,-2,-5,1697
1309,-186,257,1347,12,-9,1486
1310,49,195,832,23,21,1122
1311,72,0,1124,-16,21,915
1312,-114,13,999,0,19,888
1313,79,-21,1033,-14,44,611
1314,55,29,1050,-18,29,330
1315,159,125,1065,-4,38,718
1316,132,-124,768,-16,34,613
1317,86,435,1474,8,23,945
1318,-16,-6,782,2,19,1023
1319,-134,197,805,4,9,802
1320,-140,27,1051,8,9,595
1321,-50,35,854,8,27,33
1322,26,53,1613,0,19,-69
1323,57,130,1114,-2,31,89
1324,-27,104,871,-6,25,480
1325,-101,-57,964,-6,-1,816
1326,-35,36,911,-8,15,789
1327,-222,66,780,-2,1,787
1328,187,139,1090,2,7,490
1329,178,152,910,0,3,253
1330,-352,505,923,-12,-16,68
1331,-5,136,1017,-10,1,-319
1332,56,-109,981,11,-3,-329
1333,203,-47,975,4,1,326
1334,78,-272,876,9,-11,1017
1335,-106,15,1041,19,11,1412
1336,-280,-173,1235,4,11,935
1337,188,273,1075,9,11,1562
1338,266,361,1013,6,9,884
1339,272,479,1109,-6,7,607
1340,194,213,1017,-8,5,335
1341,176,138,984,-2,-1,-71
1342,260,62,982,0,-5,-237
1343,211,-34,1022,4,-3,-213
1344,187,-40,992,-2,-1,-2
1345,-4,-2,1010,0,3,7
1346,-1,-2,1006,-2,-1,1
1347,4,4,1000,-8,7,-4
1348,216,166,978,-16,11,-133
1349,463,237,1033,-24,5,-862
1350,144,177,1007,-20,-7,-573
1351,201,174,1123,-12,-14,-268
1352,94,202,822,9,3,-200
1353,306,20,1030,11,-9,123
1354,20,202,910,8,-7,316
1355,193,203,880,-2,-5,470
1356,115,453,790,-22,-14,244
1357,-88,193,601,-12,19,232
1358,94,292,839,-12,13,-319
1359,213,283,1119,-22,-3,-930
1360,234,58,1085,-2,-18,-1186
1361,-35,127,768,-6,-5,-1583
1362,253,-290,1379,-2,-3,-1645
1363,16,17,607,-2,-9,-1596
1364,56,-12,1000,15,3,-1153
1365,181,60,924,21,3,-1057
1366,129,-112,908,2,-22,-866
1367,72,226,864,-2,-48,-993
1368,-92,130,790,-2,-38,-1122
1369,411,-32,2048,-6,-30,-1553
1370,77,-109,1391,-6,-28,-1516
1371,-57,27,911,-16,-22,-1717
1372,-108,-2,1200,-10,-44,-1585
1373,153,-110,1005,-41,-30,-1547
1374,-179,-427,1170,15,-53,-1381
1375,14,-87,1078,-20,-28,-1290
1376,-175,114,993,37,-55,-907
1377,-32,131,808,-4,-22,-850
1378,-108,40,1288,6,-18,-821
1379,-8,-244,932,-6,-3,-676
1380,366,-917,2048,21,-12,-758
1381,32,-102,867,-2,-34,-749
1382,-166,-111,851,31,23,-430
1383,24,-16,982,6,54,-473
1384,-173,-72,1008,2,64,-653
1385,62,14,949,17,116,-710
1386,-34,130,976,2,113,-710
1387,-85,37,928,0,60,-706
1388,-163,-302,958,17,7,-745
1389,239,149,941,4,-3,-604
1390,-97,-13,1138,0,1,-577
1391,-163,-165,1070,-20,23,-680
1392,76,-124,942,4,1,-649
1393,-19,95,479,0,32,-545
1394,-133,75,925,-35,3,-782
1395,1,-140,630,17,-16,-743
1396,-1,-281,1358,-4,31,-454
1397,24,-50,930,-24,23,-622
1398,-163,-81,1035,-12,-22,-686
1399,-115,50,886,-26,44,-331
1400,-23,-27,979,-14,3,-649
1401,56,-153,972,-2,-28,-540
1402,173,-34,1393,8,-77,-526
1403,379,-277,761,9,-48,-370
1404,156,-334,1200,-12,-69,-393
1405,-107,27,1468,13,-63,-329
1406,112,-25,1047,2,-96,-629
1407,-141,270,678,8,-75,-590
1408,-12,-107,1181,23,-112,-463
1409,232,93,555,21,-38,-575
1410,90,-41,1083,11,-89,-645
1411,-34,183,636,-32,-50,-741
1412,-67,10,882,-12,-71,-665
1413,73,281,873,-37,-38,-721
1414,-38,54,1183,-45,-34,-903
1415,-43,-75,954,-28,-38,-874
1416,-149,-9,820,-26,-81,-1163
1417,-180,-84,1187,15,-65,-932
1418,-61,-317,1245,2,-57,-633
1419,-166,-256,1074,-69,-55,-866
1420,-51,-50,924,2,-34,-643
1421,-257,-226,1114,6,-26,-489
1422,-10,-167,790,-2,-40,-594
1423,-32,-114,889,6,-40,-616
1424,100,-199,1081,9,-65,-549
1425,-122,-302,862,0,-22,-499
1426,-204,-294,863,-2,-48,-600
1427,-199,-297,956,-4,-36,-581
1428,-72,-297,1072,-2,-7,-565
1429,-134,-324,1028,-4,-12,-342
1430,-119,-191,1011,-2,13,78
1431,0,3,1005,0,-1,-14
1432,-8,-12,999,4,-5,1
1433,-14,-22,1008,8,-14,-2
1434,-76,-183,1030,-2,-3,-77
1435,-242,-329,959,0,5,185
1436,-106,-219,951,-2,21,-1
1437,67,-200,1152,-2,3,130
1438,-165,-106,839,-6,23,64
1439,-110,-305,1092,0,34,167
1440,19,-104,831,-4,17,273
1441,-63,-78,975,-8,31,765
1442,-64,-195,1109,-10,64,568
1443,-2,-96,1126,0,38,857
1444,177,113,1065,-2,17,910
1445,94,-52,1175,2,29,966
1446,-183,-224,1071,80,48,728
1447,-99,-354,486,15,48,394
1448,1,-166,1120,-35,66,742
1449,-244,15,853,39,77,640
1450,-236,-195,864,11,48,314
1451,-225,-191,475,39,25,572
1452,-4,-246,840,13,50,951
1453,-213,-270,1599,0,70,1058
1454,4,25,1011,19,58,1013
1455,62,-134,1872,-16,93,808
1456,159,-174,1570,-37,42,820
1457,-111,-150,2048,-32,132,748
1458,121,-160,1166,17,70,767
1459,-115,7,768,-39,111,644
1460,-380,-119,1076,-6,81,896
1461,159,158,921,-4,64,1171
1462,-104,219,610,-30,103,1234
1463,8,-208,-98,0,29,1265
1464,-121,257,970,25,-28,1415
1465,164,-17,848,2,11,1142
1466,-105,-6,720,23,-44,1070
1467,-29,-62,846,-4,-16,822
1468,-125,250,1087,31,11,78
1469,-162,-119,1107,4,-24,708
1470,-60,-346,1086,-10,-5,550
1471,-59,-66,1039,9,-9,326
1472,-37,-108,1003,2,-9,378
1473,-106,-92,1255,-24,-7,294
1474,-11,95,1092,-4,25,337
1475,66,254,1136,-12,-12,415
1476,5,72,1165,-2,-132,1097
1477,-55,-63,1095,-4,-98,1019
1478,240,55,956,2,-137,970
1479,69,-34,1063,-10,-61,1376
1480,194,-47,1110,-10,-12,1597
1481,7,99,1027,2,15,1191
1482,304,95,957,-8,13,1189
1483,100,110,1284,-12,9,1283
1484,23,-2,995,2,-5,1499
1485,-26,-84,1090,11,-3,1103
1486,132,59,955,6,21,1242
1487,107,-19,992,-6,23,1394
1488,-174,146,1063,-4,9,1312
1489,-63,-112,1049,-16,38,1165
1490,36,222,1045,-6,38,558
1491,23,157,932,-18,29,888
1492,15,-82,984,6,19,410
1493,202,-151,1113,0,25,371
1494,-6,-79,1644,2,23,1005
1495,627,-292,1453,13,15,933
1496,223,-92,909,2,13,955
1497,162,155,883,2,7,771
1498,25,85,1072,11,17,691
1499,-85,168,832,-4,23,492
1500,102,155,441,0,21,509
1501,77,-16,1471,-8,15,203
1502,-122,33,901,-8,34,218
1503,3,-229,828,-6,9,624
1504,-13,-75,1055,2,3,915
1505,73,-37,1002,-4,-7,845
1506,43,-64,1046,0,-1,1037
1507,-95,128,981,2,13,773
1508,285,-83,1224,-8,-5,660
1509,120,49,1272,-4,1,716
1510,21,99,1340,-6,5,613
1511,197,35,1187,6,-12,531
1512,73,-142,1287,8,9,478
1513,211,-13,916,2,-3,396
1514,256,24,983,13,3,410
1515,348,111,1055,9,-1,621
1516,302,158,1231,11,5,630
1517,161,100,936,9,7,556
1518,150,32,1089,-4,-1,421
1519,218,86,1018,5,1,476
1520,175,138,1008,1,5,386
1521,166,146,964,1,3,406
1522,263,128,1007,-6,1,257
1523,-9,-3,1006,-10,-1,25
1524,-3,-3,998,-8,3,1
1525,4,-4,1003,-4,1,3
1526,6,-9,1006,-10,1,5
1527,64,72,1009,-2,1,-18
1528,136,37,1011,1,-3,-272
1529,280,72,995,1,-3,-577
1530,258,-66,1054,0,-5,-442
1531,159,21,1037,-2,1,-102
1532,232,68,947,1,-3,167
1533,160,102,1040,-4,3,187
1534,170,153,1006,0,-9,44
1535,160,128,1073,-14,3,-182
1536,77,322,898,-12,5,-288
1537,93,-85,1198,-4,7,-622
1538,125,-180,1221,-10,-16,-795
1539,516,-52,1175,-4,-9,-508
1540,210,30,1088,0,17,-260
1541,-143,-79,1112,-6,-7,-454
1542,152,253,1009,1,1,-370
1543,-3,64,1048,0,-9,-434
1544,184,99,1047,-2,-3,-688
1545,-9,179,740,3,7,-688
1546,-1,213,1389,-2,-11,-1055
1547,-11,71,1023,11,-20,-799
1548,-109,232,353,-2,-22,-963
1549,-20,-139,811,-2,-24,-811
1550,-49,172,1029,3,-30,-461
1551,82,102,1032,-24,-16,-739
1552,91,381,608,-6,-14,-432
1553,44,85,884,-6,3,-454
1554,-15,512,887,-6,-20,-784
1555,-72,-10,1030,-10,-24,-764
1556,33,-9,999,-22,-26,-825
1557,42,170,870,-6,-22,-850
1558,-126,89,1035,1,-38,-670
1559,41,148,755,-4,-32,-928
1560,161,117,997,25,-28,-772
1561,38,77,1003,7,-16,-379
1562,163,59,1627,1,-18,-544
1563,126,250,1108,7,-7,-456
1564,-62,-11,703,-2,3,-463
1565,48,13,821,-2,-5,-579
1566,-37,234,805,-6,1,-876
1567,134,64,909,13,32,-989
1568,14,64,1063,15,52,-1083
1569,252,-4,872,7,62,-1114
1570,-208,-22,949,-12,99,-1405
1571,65,71,997,7,105,-1563
1572,-216,-110,1016,25,54,-1044
1573,-155,-134,1219,3,5,-1106
1574,-122,-176,860,-8,17,-950
1575,-164,-96,958,7,40,-442
1576,-26,-106,1038,-2,-5,-372
1577,-60,0,1128,-30,-14,-372
1578,-210,-84,1060,-4,-11,-333
1579,9,-62,1263,11,-5,-340
1580,-218,243,1016,23,-14,-376
1581,-87,229,838,-6,7,-508
1582,102,-267,1106,-14,17,-692
1583,-198,-13,299,0,38,-502
1584,229,29,1225,-14,17,-657
1585,-259,15,702,-12,-7,-475
1586,-224,-235,1005,-20,17,-342
1587,-253,91,294,-4,-18,-122
1588,-32,-59,908,15,-71,-159
1589,-137,-583,1262,-2,-63,-163
1590,-121,-72,824,-20,-57,-204
1591,-1,211,377,-14,-30,-96
1592,85,153,895,-49,-95,117
1593,132,100,946,23,-83,-98
1594,-70,-295,853,0,-57,361
1595,154,95,780,3,-83,431
1596,-210,402,687,0,-36,181
1597,-2,130,1287,-65,-48,138
1598,-69,157,754,-22,-34,-303
1599,-29,-62,1106,48,-73,-411
1600,-39,-12,1215,-6,-53,-565
1601,7,-157,1243,15,-57,-399
1602,136,-135,961,-8,-40,-491
1603,-104,-99,849,-24,-26,-557
1604,-2,-53,1036,-18,-30,-657
1605,-140,-61,884,3,-46,-762
1606,52,-92,1106,11,-42,-651
1607,-53,-87,931,-10,-50,-715
1608,-92,-131,919,-26,-18,-868
1609,-32,-19,1005,5,-59,-792
1610,-97,-125,912,3,-26,-721
1611,-135,-17,1019,-10,-38,-659
1612,-66,-84,990,-12,-5,-567
1613,-68,-101,1126,-16,-36,-752
1614,-161,-276,1136,-4,-11,-608
1615,-178,-313,992,-18,7,-641
1616,-219,-326,1011,-14,-5,-446
1617,-23,-14,1008,-4,-11,-251
1618,0,-9,1010,1,-9,-6
1619,-288,-260,1022,11,-14,-102
1620,-180,-233,955,1,1,-456
1621,-28,-166,966,17,-11,152
1622,-126,-207,1046,1,5,-20
1623,-224,-150,1050,-7,15,-325
1624,-36,-100,954,-5,34,-127
1625,-188,-160,1040,1,-1,83
1626,-70,-13,1175,-5,25,492
1627,-234,-264,1025,11,17,281
1628,-122,-185,1030,9,30,195
1629,-47,-112,967,11,34,148
1630,18,-114,1014,-18,58,517
1631,-108,-106,1217,-61,85,429
1632,-123,-86,1029,-32,54,244
1633,-114,-90,908,5,34,224
1634,-80,-101,688,-1,48,322
1635,10,-109,935,-16,58,326
1636,-56,1,885,-12,62,492
1637,-84,48,636,-57,79,365
1638,77,-7,720,50,54,572
1639,-229,-36,873,1,48,675
1640,-218,-204,1031,91,32,798
1641,-16,39,906,-53,70,689
1642,-172,-14,1133,40,73,1167
1643,-216,135,1072,-26,91,634
1644,-89,146,689,17,68,763
1645,-33,-141,1250,-1,64,757
1646,-57,-265,1055,-22,87,845
1647,-21,106,976,-8,17,597
1648,-208,8,703,11,-24,1117
1649,-51,194,732,-7,34,851
1650,48,21,869,7,-20,1115
1651,-71,359,963,-3,-30,986
1652,57,268,1040,11,5,597
1653,61,185,1220,-1,-9,808
1654,-128,3,927,-12,-3,748
1655,-7,-34,1002,1,3,576
1656,-111,-266,1019,19,3,478
1657,-9,-2,1091,-8,-5,781
1658,22,82,1032,-7,-28,1111
1659,-129,-27,1007,-5,-18,957
1660,-113,-80,937,-10,-77,1216
1661,51,-57,1101,-30,-118,1474
1662,47,60,1051,-12,-139,1537
1663,28,-161,1201,-3,-93,1384
1664,-58,27,889,-18,29,1392
1665,154,62,1355,17,-36,1484
1666,-203,116,847,15,11,886
1667,52,35,1276,1,3,990
1668,283,208,1271,5,3,1205
1669,-197,13,1034,-8,7,941
1670,245,130,1061,-1,15,972
1671,-114,-67,907,-1,9,1343
1672,112,30,1045,-38,40,1238
1673,-98,-101,848,-1,50,601
1674,251,60,590,-42,46,589
1675,177,26,1275,23,29,1091
1676,260,-164,1164,3,9,507
1677,-42,165,1322,3,25,767
1678,-136,146,1188,3,-7,941
1679,378,-218,1027,-1,32,501
1680,69,64,1224,17,25,408
1681,124,14,1256,-5,23,322
1682,26,71,726,-8,23,402
1683,140,30,1006,-5,11,820
1684,-181,69,876,-14,13,867
1685,89,22,1030,-3,-7,857
1686,-52,64,919,-5,-5,804
1687,166,212,1062,-5,27,658
1688,-41,19,1020,-1,13,443
1689,-756,237,246,1,-9,294
1690,-5,-131,761,3,15,441
1691,-9,-248,1027,1,5,777
1692,106,-57,957,9,3,945
1693,-62,-62,1078,-16,3,876
1694,64,168,919,15,3,734
1695,167,270,827,27,13,832
1696,64,68,990,7,15,582
1697,-251,-87,782,-7,7,306
1698,269,174,1073,-18,23,171
1699,33,115,825,-5,17,-1
1700,429,-130,994,9,9,-63
1701,240,117,982,29,11,205
1702,294,114,1236,15,25,617
1703,230,231,996,23,11,460
1704,86,110,956,-1,13,361
1705,292,157,1023,29,-14,390
1706,211,85,987,9,-5,371
1707,24,1,1012,-10,-1,158
1708,-9,6,1002,-7,7,3
1709,26,30,999,-12,7,-1
1710,136,97,1020,-44,27,-436
1711,287,127,1023,-28,11,-897
1712,355,166,1070,-16,-3,-829
1713,218,77,1243,7,-20,-518
1714,198,242,927,5,-40,-440
1715,237,142,952,-1,-34,-356
1716,179,68,1071,-61,-7,-217
1717,17,68,952,-16,-11,-409
1718,145,205,1045,-8,-14,-663
1719,-13,53,1020,-3,-18,-586
1720,150,174,1041,11,-11,-588
1721,113,161,790,5,-26,-876
1722,429,31,801,-5,-13,-635
1723,-87,-21,951,-3,-9,-784
1724,389,44,1043,-12,-14,-901
1725,158,36,1125,-16,-5,-817
1726,235,103,756,-8,1,-813
1727,14,103,1006,-5,7,-881
1728,-101,-8,905,-3,3,-981
1729,-115,-14,999,3,-36,-983
1730,271,206,1074,11,9,-1088
1731,19,-92,1103,1,3,-850
1732,50,56,837,13,-5,-692
1733,-5,44,948,1,-38,-688
1734,-156,223,863,-8,-48,-866
1735,-71,83,851,-3,-42,-1008
1736,65,61,833,-12,-11,-1073
1737,-223,21,278,-28,1,-948
1738,-67,-223,587,-32,1,-833
1739,-70,79,637,7,-55,-1028
1740,90,10,976,-1,-48,-838
1741,60,91,689,25,-52,-858
1742,-21,82,983,33,-32,-551
1743,-105,32,1267,5,-50,-413
1744,-28,188,680,-30,23,-1227
1745,-83,89,720,-3,17,-729
1746,103,-70,1000,-32,11,-983
1747,-28,-284,920,-7,50,-1073
1748,44,-72,1056,31,193,-708
1749,11,-12,959,1,97,-868
1750,-203,-233,764,40,70,-571
1751,39,-71,875,-1,11,-622
1752,-23,-6,717,-3,19,-708
1753,7,-33,867,5,23,-497
1754,-46,11,980,1,-28,-561
1755,-46,-59,966,-30,-5,-659
1756,64,3,907,31,-9,-292
1757,25,-265,1269,3,-38,-612
1758,-1,-300,1535,-30,25,-448
1759,169,134,950,-20,52,-391
1760,-10,-198,957,-12,-16,-407
1761,11,58,1169,-22,-7,-327
1762,79,-102,737,15,-95,-40
1763,-165,13,989,-28,-73,-463
1764,-169,-246,347,7,-69,-147
1765,224,-119,1100,-22,-124,-323
1766,-267,-89,1247,-18,-81,-463
1767,-64,25,500,11,-112,-489
1768,-129,-274,683,1,-106,-176
1769,-159,-36,947,7,-65,-227
1770,286,-270,1021,-1,-65,-159
1771,-186,-258,953,-14,-52,-151
1772,-215,-82,1099,-57,-40,-211
1773,-72,-37,1072,-83,-7,-155
1774,-18,43,944,-5,-50,-362
1775,28,2,1086,-7,-89,-237
1776,60,-5,844,9,-55,-313
1777,101,13,897,23,-28,113
1778,-51,-286,1217,-18,-30,121
1779,-104,-64,883,-34,-24,115
1780,-103,-136,1060,-18,-57,195
1781,163,-127,1190,-22,-24,156
1782,-76,-94,1069,-7,-20,136
1783,15,-79,1027,-1,-61,156
1784,-86,-28,885,11,118,249
1785,-86,-6,1061,25,93,314
1786,-129,-112,1022,17,202,177
1787,-188,-106,1030,33,234,318
1788,-183,-99,994,33,175,363
1789,-226,-176,913,11,64,238
1790,-199,-161,920,-3,11,220
1791,-166,-122,984,-1,1,185
1792,-282,-61,1083,-1,-7,193
1793,-292,-23,1024,-1,3,187
1794,-193,73,1002,-1,-1,191
1795,-1,-8,1002,-1,-9,11
1796,-5,3,1004,-3,-14,1
1797,-484,-436,997,-3,-13,27
1798,-125,-81,983,1,-5,1455
1799,-98,47,997,3,-9,1337
1800,-288,-191,996,-1,-14,1388
1801,-239,-89,1009,-26,-151,1443
1802,-461,-123,977,-51,-335,1406
1803,-140,-104,1019,-20,-69,511
1804,-156,-94,1066,-24,-138,142
1805,-51,-4,1103,-24,-157,349
1806,-252,-84,986,-24,-69,492
1807,20,86,919,-1,-32,33
1808,68,182,1064,-8,1,164
1809,7,26,1087,1,58,417
1810,-63,-133,1129,23,71,431
1811,-93,-127,1136,34,93,-43
1812,-16,66,1213,54,21,199
1813,-117,91,961,44,46,-2
1814,-128,97,883,13,40,406
1815,-222,30,1059,38,75,582
1816,203,-195,1303,-1,68,-282
1817,-340,-72,730,23,34,-12
1818,116,-9,1198,36,52,-829
1819,-7,77,560,-9,73,-879
1820,32,40,1333,-11,79,-458
1821,141,-293,857,-11,107,-174
1822,-307,-77,1090,15,97,128
1823,-7,230,1047,46,93,-53
1824,294,-202,1491,60,118,173
1825,-267,-46,1139,11,175,273
1826,115,202,1044,-9,56,87
1827,191,178,861,5,25,169
1828,-128,154,1129,3,15,-772
1829,-147,225,1040,-7,-34,-340
1830,-30,66,1185,46,-11,-354
1831,-10,10,977,-5,-40,-178
1832,-74,-96,983,-30,11,-18
1833,73,-142,959,19,15,-245
1834,-177,-139,982,-12,-30,-139
1835,-31,-68,990,-30,-20,117
1836,128,51,964,-16,-112,60
1837,-87,50,1105,-50,-206,384
1838,77,-15,874,-9,-147,62
1839,179,10,1090,-22,-61,179
1840,-92,88,1006,-1,5,-71
1841,203,48,999,5,15,-284
1842,275,-33,1321,-7,-18,54
1843,140,16,1437,27,-9,3
1844,-56,30,900,-32,27,181
1845,-293,-218,899,11,11,218
1846,-28,77,989,-9,30,-377
1847,50,-72,1263,-22,56,-336
1848,-329,-22,1128,-14,50,-182
1849,259,94,560,17,7,-342
1850,213,90,939,3,34,-16
1851,-54,36,965,-16,17,126
1852,-19,23,898,-9,15,46
1853,329,80,921,-20,-36,-2
1854,-241,-124,1030,3,-20,162
1855,272,62,998,-9,11,-102
1856,252,-181,1361,9,30,-43
1857,-173,9,1214,19,42,179
1858,-152,66,1095,21,60,89
1859,168,93,1174,-9,28,15
1860,102,-192,1638,-28,52,-211
1861,0,-172,819,-16,32,-499
1862,-27,6,958,29,32,-366
1863,-54,-51,706,-46,54,-40
1864,204,-177,985,9,30,62
1865,236,-267,752,-22,34,-75
1866,204,235,1606,34,42,154
1867,-347,105,-750,-38,56,-67
1868,432,332,1060,21,-9,-163
1869,66,-205,1463,5,19,-249
1870,299,-118,1326,7,25,-323
1871,2,-90,664,7,32,-284
1872,164,50,574,3,23,107
1873,27,92,627,7,32,457
1874,197,112,904,-5,21,226
1875,259,62,989,3,-3,185
1876,206,7,1146,-1,-5,451
1877,248,15,1031,-1,7,332
1878,221,-9,987,-1,-7,335
1879,127,0,1015,3,3,361
1880,110,22,1006,-1,1,269
1881,-12,0,1003,-3,-1,11
1882,1,-1,1001,-3,-3,-1
1883,82,-22,1012,-5,9,-20
1884,234,20,1024,-9,7,-627
1885,213,-28,1031,-7,-3,-1049
1886,344,-54,985,1,3,-881
1887,240,-100,1001,-7,1,-579
1888,272,52,1143,-3,-18,-124
1889,178,-7,897,-3,-16,-2
1890,157,-43,1174,-14,-32,-118
1891,302,-81,1153,-12,-52,-43
1892,62,-11,790,3,-38,-161
1893,231,-39,857,-20,-20,-237
1894,8,81,783,-28,-14,-430
1895,6,-227,816,-44,28,-485
1896,-75,277,739,-16,-1,-346
1897,238,-237,812,23,-46,-297
1898,-297,46,1228,-3,-77,-336
1899,280,5,873,7,-48,-360
1900,171,63,1012,-14,-34,-418
1901,162,-137,1231,-11,-46,-233
1902,204,-186,977,-9,-14,37
1903,-84,262,719,23,-40,-112
1904,194,335,1169,17,-50,-85
1905,-96,5,1275,-44,-30,-274
1906,-29,19,1096,-32,-57,-206
1907,244,-31,1245,19,-20,-383
1908,-301,-28,949,13,19,-192
1909,406,-58,579,23,38,17
1910,-42,-105,867,11,1,-151
1911,265,-114,1225,9,-32,64
1912,-272,112,1342,-11,-32,-155
1913,731,109,661,15,-16,21
1914,-385,0,998,-38,-55,-229
1915,233,154,428,3,-46,-71
1916,-138,101,1037,17,-44,-85
1917,-123,-56,858,7,-54,-49
1918,152,-77,939,5,-16,109
1919,-122,52,826,-3,-9,101
1920,97,32,1175,1,32,298
1921,-233,76,1158,-16,30,1
1922,125,29,1085,32,163,-194
1923,-78,29,1032,-12,140,-122
1924,60,-108,939,19,144,-251
1925,-33,-94,1338,-1,68,74
1926,88,-179,1003,-16,3,-36
1927,-54,69,985,-5,9,62
1928,-11,115,1051,-7,-16,119
1929,64,43,1071,17,-16,-18
1930,-255,24,993,1,-5,142
1931,-64,130,988,-26,11,-88
1932,30,178,829,-24,48,-59
1933,-214,4,1272,-38,7,-108
1934,-52,-128,717,5,-30,91
1935,-197,-125,1371,-12,-71,181
1936,-241,14,587,-30,-128,283
1937,-106,-265,1151,-34,-138,326
1938,-277,78,1097,-18,-114,275
1939,75,-7,1145,60,-114,501
1940,-68,134,1267,15,-102,357
1941,-54,81,956,-22,-71,322
1942,-316,114,1016,-7,-73,218
1943,-161,62,1123,-14,-54,152
1944,136,59,1042,3,-61,130
1945,-88,-120,1118,-18,-54,113
1946,-13,-91,1239,-7,-112,259
1947,243,-122,832,23,-52,396
1948,88,58,883,-18,-55,630
1949,-153,125,946,-30,-13,427
1950,-103,88,934,-44,3,261
1951,-60,14,1218,-11,-7,244
1952,-150,113,960,-11,-18,54
1953,-116,-4,1012,29,120,-81
1954,-126,-3,1012,29,355,-85
1955,-54,-9,983,23,152,99
1956,-116,-50,994,38,175,224
1957,-195,-8,965,25,89,240
1958,-153,18,810,-3,25,220
1959,-215,34,1254,-3,-1,199
1960,-198,-2,978,-9,-1,89
1961,-227,48,1120,-11,7,-77
1962,-221,2,1019,-5,5,-120
1963,-2,0,1006,-1,1,-22
1964,-4,-3,1006,-3,-11,3
1965,0,-5,1002,1,-20,-1
1966,-193,69,1017,-3,-20,7
1967,-161,-48,995,7,-11,1160
1968,-54,3,1012,3,3,1087
1969,-237,13,989,-3,-14,970
1970,-225,74,956,-12,-95,683
1971,-208,10,977,-46,-304,410
1972,-121,-48,1036,-40,-235,234
1973,-157,-119,974,-24,-83,316
1974,-283,-29,875,-22,-149,267
1975,-36,21,1031,-12,-118,91
1976,25,-109,1460,-14,-22,19
1977,-254,97,634,-9,60,119
1978,-156,-50,901,13,66,-75
1979,-483,-24,416,-1,15,-45
1980,-247,-16,854,19,46,-120
1981,-129,79,781,42,28,-67
1982,-127,-49,1061,36,17,33
1983,194,-33,959,-1,64,44
1984,-104,20,1020,34,-5,287
1985,-172,30,932,50,42,158
1986,-229,21,1080,-61,97,-28
1987,-16,-15,967,-40,68,-153
1988,-120,73,797,-1,42,-174
1989,-23,66,1408,-16,58,-182
1990,-97,34,875,-7,64,-174
1991,-41,25,1054,13,64,-110
1992,91,-160,1355,25,73,-172
1993,-165,98,1158,-12,75,-67
1994,181,196,781,42,111,-243
1995,-499,101,754,25,62,-282
1996,-29,-25,1402,7,83,-167
1997,125,239,998,9,70,-198
1998,-82,-9,680,3,58,-106
1999,8,-13,620,11,34,181
2000,-187,-114,606,3,9,39
2001,196,52,948,32,-44,115
2002,-268,173,1093,7,-11,21
2003,-112,38,842,-3,17,-10
2004,115,-19,1048,-26,-18,113
2005,-102,52,956,-3,-1,-204
2006,43,54,956,-11,7,-143
2007,108,-29,1075,-14,-9,-124
2008,117,-17,1085,-7,-26,-251
2009,305,-102,1131,-24,-120,-110
2010,45,-128,1096,-18,-151,29
2011,-123,55,1021,5,-130,-77
2012,-66,48,1160,-20,-48,-59
2013,-210,62,571,-7,3,-83
2014,8,121,815,-7,-1,-235
2015,-130,-66,925,3,-9,-223
2016,-61,18,754,-9,-13,275
2017,52,81,792,-1,5,-65
2018,-174,-7,1081,-24,3,85
2019,-451,162,829,5,19,-145
2020,-16,29,1023,3,23,-268
2021,76,2,1761,-20,40,-206
2022,-367,-50,986,21,28,-438
2023,19,12,1519,3,28,-393
2024,-224,-98,1172,1,-5,-186
2025,-97,-88,1530,11,23,54
2026,-160,98,978,-20,15,-51
2027,-35,-8,252,-15,23,1
2028,-152,111,1138,-30,-38,-59
2029,103,79,1118,-5,15,5
2030,88,-36,1147,-20,-13,-174
2031,9,-13,1166,1,23,-206
2032,30,-150,1092,38,50,-81
2033,-215,13,952,19,38,-124
2034,87,-66,1077,-1,34,-18
2035,255,-86,1225,-48,54,-38
2036,168,-94,938,-5,15,-190
2037,205,-85,1085,44,30,-40
2038,-256,111,632,7,36,-43
2039,-135,56,946,9,38,-16
2040,280,88,1404,42,44,-2
2041,-273,-6,337,-85,91,95
2042,216,-102,1083,46,-9,-36
2043,157,-16,382,21,-5,228
2044,634,-19,788,-20,54,261
2045,-15,17,781,7,50,42
2046,165,11,1013,30,50,402
2047,90,62,846,5,25,72
2048,95,-73,1061,-1,-20,115
2049,283,2,1161,-5,-13,-36
2050,286,33,1077,-15,-14,-104
2051,-1,38,917,13,-1,-252
2052,340,-139,935,-1,17,-141
2053,221,-229,983,-11,-3,-38
2054,189,-21,950,-9,9,115
2055,278,-13,972,15,3,244
2056,206,24,977,17,-3,308
2057,166,-8,1027,15,3,345
2058,190,75,1008,1,-1,291
2059,2,-2,1008,-3,3,15
2060,13,1,987,-1,1,-4
2061,357,-10,1001,-1,1,-225
2062,231,-8,1003,-24,-1,-764
2063,406,-108,1081,-24,-1,-489
2064,-36,49,866,-28,1,-114
2065,191,-58,1040,-9,-11,25
2066,74,109,1043,-1,7,-65
2067,105,-11,935,-3,-13,-135
2068,266,-73,1130,-5,-1,-18
2069,86,75,1024,9,21,-223
2070,126,-32,1134,3,19,-106
2071,146,-22,1076,-9,-9,109
2072,157,-73,691,-11,-36,154
2073,100,95,741,-11,-63,107
2074,14,126,966,1,-56,-126
2075,-242,170,705,-22,-38,-329
2076,275,-129,1222,-61,36,-323
2077,107,217,2048,-26,-3,-333
2078,267,52,1057,97,-134,-149
2079,202,13,1011,-26,-22,-168
2080,53,267,889,-28,-18,-350
2081,53,-43,1270,26,-61,-198
2082,82,94,1057,-18,-13,-88
2083,-95,195,618,30,-59,-206
2084,258,23,1160,3,-46,-139
2085,-128,-287,1147,-46,-32,-155
2086,6,13,1366,-18,-34,31
2087,-192,-29,1267,23,-5,-36
2088,105,-103,806,5,17,-190
2089,172,-71,970,13,28,52
2090,-74,102,474,34,-38,66
2091,108,-16,720,-7,-38,11
2092,395,-46,1004,7,-48,177
2093,164,-134,695,-11,-38,-16
2094,152,-185,850,-9,-50,-92
2095,-105,-171,1349,7,-44,-10
2096,-69,-37,561,11,-48,-122
2097,-191,-76,1158,-28,-20,-28
2098,172,-370,1339,25,15,244
2099,-420,30,1096,17,54,339
2100,-51,-35,989,1,146,11
2101,-37,-62,1004,19,157,337
2102,-260,80,1045,13,126,7
2103,-83,12,1191,11,40,216
2104,-140,-3,586,1,9,255
2105,31,102,356,1,9,503
2106,3,70,1059,5,-13,421
2107,-140,126,1098,-15,-20,341
2108,-153,-5,927,32,17,470
2109,195,12,376,-3,-34,228
2110,45,-112,1099,-50,56,-202
2111,-283,297,239,-3,25,80
2112,228,-56,1162,-20,-26,175
2113,-90,109,1279,-16,-42,425
2114,-79,15,1296,-13,-44,449
2115,254,-147,1575,-24,-91,441
2116,117,6,895,-40,-147,332
2117,-262,70,1174,-50,-81,249
2118,199,-87,1074,-1,-75,316
2119,-52,-58,1127,-46,-85,271
2120,9,-8,818,-20,-83,259
2121,153,231,574,-3,-73,267
2122,-2,4,1008,25,-75,230
2123,-54,-93,954,-3,-55,173
2124,-74,40,1066,-7,-75,56
2125,-397,9,919,40,-83,169
2126,102,-354,1182,-24,-52,417
2127,-178,-34,1132,-46,-20,244
2128,-265,-31,1120,-44,-36,191
2129,-82,140,773,-16,-46,162
2130,-147,15,935,13,54,216
2131,-176,66,960,44,206,11
2132,-144,45,1022,52,310,-110
2133,-216,66,1017,40,218,-55
2134,-297,148,1155,11,40,-225
2135,-163,82,1011,13,15,-284
2136,-224,49,1059,-5,-11,-266
2137,-240,11,999,-7,7,-206
2138,-261,4,964,-7,5,-180
2139,-11,-6,1013,-3,1,-53
2140,-16,1,1005,-3,-20,-2
2141,0,-10,1001,-5,-16,-4
2142,-2,-4,998,-3,-22,-2
2143,-53,4,1006,-3,-30,5
2144,-109,49,1003,3,23,242
2145,-121,42,1018,1,-34,222
2146,-160,57,993,-22,-114,-20
2147,-326,110,1004,-46,-239,-18
2148,-96,12,1052,-32,-163,-112
2149,-36,-18,1045,-22,-44,107
2150,-52,-41,1077,-16,-145,380
2151,-155,35,992,-18,-118,281
2152,-43,-85,1117,-30,-95,218
2153,-91,-56,984,-1,7,226
2154,-319,-71,893,1,58,218
2155,-205,164,1045,11,38,195
2156,70,-23,1068,15,27,-333
2157,140,-184,1467,34,32,-303
2158,-92,-42,782,15,23,-85
2159,27,-92,1045,21,48,199
2160,39,-43,1016,-12,42,234
2161,-269,59,1025,-38,101,404
2162,-76,10,1119,-12,66,-118
2163,-181,111,891,-14,62,-190
2164,-131,-46,945,-18,83,-178
2165,-149,-221,796,21,52,-57
2166,-40,61,1324,-22,79,-14
2167,102,97,993,50,107,-254
2168,-239,61,847,29,81,-241
2169,-500,171,348,21,58,-198
2170,33,-17,1409,17,126,31
2171,-45,132,746,9,107,-174
2172,-207,-141,974,5,42,-227
2173,-212,40,162,-14,52,48
2174,-113,-7,1099,13,-26,-28
2175,42,-222,840,38,-50,-45
2176,120,15,925,-14,19,-88
2177,41,-134,1127,9,-22,298
2178,6,95,893,-3,-7,165
2179,-153,57,1137,-11,-24,226
2180,35,55,876,-5,-13,103
2181,-45,-17,999,-20,-108,162
2182,141,-13,917,-36,-132,-22
2183,-188,26,1041,-16,-169,70
2184,66,50,753,-24,64,62
2185,-480,100,726,-3,-20,185
2186,143,-5,1386,3,-1,-139
2187,-321,81,749,32,-18,490
2188,146,-20,901,19,11,-6
2189,31,135,1177,32,9,275
2190,-90,-55,1068,-30,42,115
2191,169,33,883,-9,48,-208
2192,274,85,981,-26,52,60
2193,203,-96,539,-7,38,-129
2194,272,-83,664,15,17,52
2195,-119,-86,681,-9,27,449
2196,5,124,1233,5,40,119
2197,-164,36,1108,7,5,205
2198,-105,29,851,-16,11,117
2199,195,1,974,-16,-28,113
2200,-111,-79,441,-14,-9,197
2201,41,-16,965,1,44,132
2202,89,-159,1196,40,25,-6
2203,-120,-28,1304,23,15,244
2204,-3,177,778,40,3,76
2205,299,-50,1253,7,17,29
2206,38,49,942,-9,11,-104
2207,232,-111,1276,48,-11,-96
2208,-301,-64,1024,-48,17,-110
2209,161,-27,1101,15,34,50
2210,79,-165,1206,44,50,-14
2211,355,710,18,-52,87,-284
2212,368,-4,972,-57,32,-268
2213,162,81,1511,54,-18,-137
2214,-157,87,407,-5,27,-178
2215,-107,142,868,5,32,-190
2216,184,-5,1246,34,27,146
2217,151,-20,1072,5,36,121
2218,51,35,1225,-1,17,226
2219,230,19,982,1,38,207
2220,241,8,1140,-1,11,230
2221,108,-15,1016,-5,-3,195
2222,252,32,1091,-13,-13,152
2223,168,0,862,1,7,7
2224,104,-63,1076,-7,19,58
2225,280,-40,1009,-1,3,91
2226,229,8,1013,-1,1,171
2227,110,6,995,-1,1,191
2228,1,7,1008,-7,-1,17
2229,-4,-3,1010,1,3,-2
2230,22,0,1003,-1,1,-1
2231,297,-1,986,-3,-3,-88
2232,230,-44,1062,-9,-3,-333
2233,190,-96,951,-3,-5,-348
2234,158,42,836,-7,-15,-352
2235,90,-48,1000,-9,-5,-282
2236,236,-11,1040,-1,9,-313
2237,194,-42,898,-3,7,-133
2238,46,22,447,-5,-18,-135
2239,6,141,1276,-5,-24,-157
2240,188,-62,311,-5,-30,-200
2241,265,-55,1136,-9,-50,-264
2242,-80,2,907,-42,-36,-432
2243,5,39,1339,-3,-30,-219
2244,53,-128,651,-13,-13,-655
2245,360,-237,1165,-48,23,-391
2246,281,-258,1305,42,-42,-57
2247,226,192,751,-13,-67,-161
2248,475,56,983,13,-50,-59
2249,97,23,1066,21,-34,-215
2250,165,2,914,-22,-22,-315
2251,-202,-19,1405,-24,-7,-225
2252,294,-3,812,-7,-24,-200
2253,27,-346,933,-24,-22,-202
2254,130,-196,1167,-32,-16,-215
2255,118,-159,1115,-13,-30,-202
2256,307,-42,952,9,-1,-204
2257,86,-104,1096,7,-5,-32
2258,102,-48,1210,-1,-5,56
2259,-70,-18,1034,-9,-38,-118
2260,-51,148,998,-13,-34,-122
2261,17,-11,745,-3,-36,-168
2262,-394,86,973,-15,-42,1
2263,10,-10,1146,-13,-28,-338
2264,205,-70,1245,19,-30,-463
2265,-200,-45,670,-1,-46,-317
2266,45,-94,837,-3,-15,-153
2267,-266,-173,1252,11,-26,166
2268,-104,117,1172,-1,19,103
2269,-46,147,1130,-1,32,294
2270,-103,72,1046,1,77,-208
2271,52,3,966,32,185,-167
2272,-137,-16,928,21,140,17
2273,-54,162,780,5,17,-88
2274,-67,35,665,5,3,195
2275,-20,-33,904,-5,15,-73
2276,-96,-63,917,-1,-11,-26
2277,-121,-46,1184,15,-7,128
2278,64,-131,793,5,1,-2
2279,-250,-25,918,-19,13,62
2280,153,-150,1331,3,-11,23
2281,-164,42,1136,-15,7,-55
2282,121,-43,1072,-34,36,101
2283,-96,141,612,-15,-5,87
2284,-65,-334,716,-17,-81,152
2285,48,128,892,3,-50,353
2286,212,-119,908,-20,-81,185
2287,-213,223,908,-34,-102,365
2288,84,-153,1235,-7,-73,195
2289,-159,-36,984,-34,-97,201
2290,-46,-125,978,-28,-67,154
2291,113,-121,1112,11,-87,109
2292,-5,-110,1099,-19,-69,83
2293,-139,8,971,21,-73,177
2294,-18,-28,1008,-1,-54,203
2295,-131,63,970,-48,-20,117
2296,-157,-2,1209,21,-67,240
2297,-22,99,1190,-3,-65,41
2298,-214,95,1234,5,-87,33
2299,65,-28,1217,9,-15,310
2300,-24,-149,1156,-3,-50,232
2301,-134,16,657,-11,-28,257
2302,-147,39,1145,-36,-7,-2
2303,-301,-5,944,-50,-34,-30
2304,47,-74,1355,-19,-11,7
2305,-295,112,775,-11,-46,3
2306,-14,-7,1182,-7,-28,93
2307,-206,84,988,-3,-3,-20
2308,-227,37,991,5,46,-116
2309,-230,6,1013,5,42,-295
2310,-177,-66,1009,5,54,-428
2311,-10,-4,1005,1,13,-36
2312,-3,-3,1005,-11,-65,-1
2313,-4,-6,998,-13,-71,-2
2314,-12,-1,1001,-13,-75,-4
2315,0,-16,1010,-7,-32,-1
2316,-493,-38,1010,-3,-11,31
2317,60,63,1002,-7,5,1
2318,-220,44,947,-1,3,39
2319,-139,-12,999,-1,28,-6
2320,-272,6,959,-1,15,117
2321,1,-4,949,-1,25,91
2322,-18,-69,1155,1,19,267
2323,-315,30,818,11,34,244
2324,-256,81,877,13,5,44
2325,11,-12,995,34,23,33
2326,44,-71,1121,26,9,31
2327,-115,39,1150,9,23,-36
2328,-156,-43,840,9,32,169
2329,-21,-73,1006,-1,21,306
2330,-68,208,1229,-19,7,324
2331,-70,-110,992,-11,71,341
2332,-152,12,1020,-7,64,-219
2333,40,-31,1004,-19,58,-311
2334,-249,-6,793,24,30,-317
2335,-146,-16,877,-29,62,-495
2336,-20,-114,1048,1,60,-307
2337,220,-65,1432,-15,66,-258
2338,-79,-159,1384,-19,52,-28
2339,296,8,1172,11,97,-43
2340,-24,116,1061,-3,66,-43
2341,299,-253,998,30,62,-102
2342,-125,271,1121,11,79,-229
2343,34,51,615,-1,75,60
2344,-419,-720,-413,1,73,-118
2345,-186,237,1406,1,34,-184
2346,231,46,1068,7,66,-125
2347,-55,-179,1035,-1,7,54
2348,168,149,977,-3,-3,158
2349,440,-279,637,11,-16,322
2350,-266,-83,560,7,-16,304
2351,152,-195,1035,-7,11,365
2352,-180,43,827,-13,17,300
2353,-43,-46,938,16,-11,150
2354,-71,-25,991,-3,-16,134
2355,-88,-63,862,-5,-11,294
2356,35,-106,920,-9,-11,314
2357,89,-124,1068,7,1,492
2358,129,-47,1006,1,13,367
2359,-44,-171,1092,-7,-28,535
2360,-2,-205,970,-3,-18,732
2361,53,-118,903,-17,-61,685
2362,-21,-202,1029,-15,-118,699
2363,33,-79,992,-13,-106,695
2364,-96,-197,910,-19,-22,783
2365,88,-18,1033,-13,-32,718
2366,-358,-83,797,-7,-48,976
2367,73,24,1094,-15,26,1136
2368,-200,38,645,-1,-3,1017
2369,-226,-62,618,-7,-5,757
2370,-124,-24,802,5,15,328
2371,-139,97,914,5,-3,351
2372,-46,-134,727,-1,3,250
2373,232,87,1127,7,-1,277
2374,-5,-114,898,-5,19,375
2375,102,13,1010,9,7,142
2376,-29,-5,1096,-1,3,546
2377,62,-36,1089,-29,21,599
2378,-6,32,1007,-13,17,404
2379,89,-33,1083,5,21,144
2380,135,80,992,13,11,-170
2381,-202,-129,1093,-27,15,-360
2382,84,328,1151,1,26,-817
2383,-85,298,1010,-3,7,-905
2384,73,-91,818,-3,17,-375
2385,128,-60,1136,3,11,-63
2386,359,-325,1223,-1,11,203
2387,0,-5,1016,-1,11,76
2388,48,64,1020,5,-13,175
2389,23,12,896,1,9,46
2390,81,133,1005,3,9,9
2391,52,199,1033,-7,13,-38
2392,34,153,985,-1,9,-237
2393,101,7,1025,-5,3,-20
2394,106,129,1050,-1,13,-262
2395,211,130,956,-1,9,-151
2396,129,103,1064,-5,7,-79
2397,143,43,972,1,7,56
2398,126,90,1045,-1,1,224
2399,127,59,999,1,5,316
2400,111,63,1014,-3,1,279
2401,9,5,1015,-3,-3,66
2402,9,5,999,-5,5,1
2403,1,-7,1006,-7,5,1
2404,17,27,1005,-3,7,7
2405,101,123,1004,-3,7,216
2406,28,-10,1004,-1,1,160
2407,17,70,1056,-1,3,150
2408,189,146,963,-3,-7,250
2409,23,127,981,-1,-7,250
2410,161,100,1073,-3,-5,250
2411,109,244,1043,3,-9,146
2412,268,234,906,-3,-1,-32
2413,93,149,1194,3,-5,-69
2414,2,150,1031,-1,-9,-180
2415,200,121,944,-3,-9,-231
2416,341,386,1041,-3,-13,-354
2417,121,251,1011,-3,-11,-551
2418,163,257,1049,-11,-15,-756
2419,155,68,1050,-13,-15,-772
2420,-7,242,1033,-3,-26,-649
2421,292,75,1229,-7,-13,-653
2422,29,87,937,5,-22,-709
2423,-17,-83,1487,-11,-7,-735
2424,129,27,993,-9,-15,-686
2425,241,-65,1164,-7,-11,-688
2426,-54,117,926,-50,32,-387
2427,98,56,989,1,-22,-543
2428,150,98,553,-9,-11,-772
2429,135,287,904,16,-32,-815
2430,-92,124,846,1,-46,-1350
2431,196,-11,1046,5,-36,-1112
2432,-13,-195,936,-9,-38,-1217
2433,76,261,875,36,-24,-891
2434,75,-223,974,7,-30,-893
2435,-4,50,894,-21,21,-1004
2436,-61,-166,908,-11,7,-877
2437,55,63,1643,-1,13,-723
2438,-100,16,1067,7,5,-672
2439,-79,48,1230,5,42,-764
2440,-93,54,880,7,87,-1036
2441,-44,-78,867,9,56,-846
2442,19,35,1014,-7,105,-917
2443,-98,-46,932,9,116,-1075
2444,80,-42,895,1,40,-944
2445,-98,13,828,-1,19,-852
2446,-30,37,1112,15,-11,-930
2447,57,15,683,-5,36,-897
2448,48,-131,738,9,7,-868
2449,-50,-2,1261,-25,-3,-1192
2450,-75,-81,980,3,11,-852
2451,104,423,809,-3,1,-1088
2452,-346,-130,874,-28,-30,-1510
2453,137,36,957,-23,9,-1270
2454,230,119,658,-48,38,-1672
2455,31,-179,982,-36,7,-1618
2456,6,-334,1410,1,26,-1469
2457,5,-275,1175,-15,-9,-1571
2458,62,11,1370,-5,-16,-1276
2459,4,-200,1060,3,-5,-1243
2460,-215,-292,1049,-7,9,-1325
2461,-76,-397,926,-19,-3,-1264
2462,-33,-154,1068,3,-13,-1102
2463,-223,-210,1058,1,-28,-1137
2464,-149,-228,1275,1,-22,-836
2465,-160,-293,1274,-11,-5,-821
2466,-167,-389,1057,-9,-32,-647
2467,-107,-501,995,-7,-38,-444
2468,-215,-382,1076,-5,-15,-333
2469,-70,-180,1006,-3,-1,-170
2470,-120,-80,1013,-1,-1,-139
2471,-193,-22,1017,-1,3,-190
2472,-10,-27,1004,5,-5,-168
2473,-26,-26,1009,1,-9,-215
2474,-17,-57,996,1,-3,-233
2475,-35,-131,983,1,1,-165
2476,-11,-34,1044,-3,-3,-45
2477,-27,-130,960,1,-1,-22
2478,-50,-235,1012,-1,1,-170
2479,-93,-208,1008,3,-3,-163
2480,-70,-52,1047,1,-7,-196
2481,-74,-245,979,1,-1,-116
2482,-31,-210,977,-5,5,-159
2483,9,-301,1203,3,3,72
2484,152,-72,1006,-3,1,193
2485,59,-17,1023,-3,9,210
2486,-111,-189,1143,13,19,412
2487,45,-181,1010,11,25,384
2488,13,55,1037,18,7,455
2489,223,-353,625,-1,17,414
2490,-12,26,970,1,9,472
2491,42,-140,1010,-11,15,521
2492,50,-193,971,-1,7,554
2493,-95,-93,449,-5,-9,685
2494,50,-32,970,-1,-5,714
2495,63,-149,848,-1,1,830
2496,-1,-65,1317,-3,-13,623
2497,87,60,818,-7,-7,638
2498,270,-55,1492,7,3,501
2499,-37,170,1637,1,-7,533
2500,194,68,1151,1,-5,455
2501,24,-109,1509,3,-5,486
2502,180,-171,1239,-17,-7,488
2503,146,220,1160,-5,-26,474
2504,38,-144,977,-15,-28,332
2505,278,-55,1078,-11,-38,525
2506,197,-237,1222,1,-24,509
2507,-45,-36,1176,-3,-28,437
2508,225,-3,1126,-3,-32,492
2509,131,-35,1079,15,-54,480
2510,123,8,941,-3,-44,382
2511,-158,-135,192,-9,-32,406
2512,77,46,1149,-7,-28,644
2513,-82,39,1212,-17,-63,566
2514,79,-9,1071,-3,-34,585
2515,-113,160,1280,13,-26,521
2516,-29,85,844,-30,-59,523
2517,94,60,1107,20,-50,458
2518,-49,-70,1282,3,-32,458
2519,187,84,1261,-5,-46,617
2520,11,64,936,-46,-22,601
2521,1,-187,1120,14,-26,740
2522,24,-35,1370,8,-34,767
2523,79,-32,1070,20,-46,921
2524,-8,-43,1135,-29,-11,558
2525,8,-66,1355,7,-28,623
2526,39,89,735,28,-58,617
2527,-79,42,1010,3,-32,709
2528,4,124,868,-13,-26,671
2529,-53,-71,891,-17,-40,744
2530,-18,-16,1031,-9,-48,943
2531,93,138,1062,-70,1,765
2532,-2,84,1006,-5,-22,892
2533,0,162,898,5,-13,792
2534,-1,44,913,16,-28,845
2535,31,92,1022,32,-24,753
2536,-84,-62,1107,-7,-5,560
2537,-159,165,713,-29,-15,466
2538,-28,158,873,-1,-15,515
2539,-98,286,1098,1,-26,673
2540,0,225,1127,-1,-15,707
2541,-92,251,962,-15,-7,558
2542,-23,238,1034,-3,-11,402
2543,-91,165,1095,-13,-9,378
2544,-42,241,1013,-9,-5,386
2545,-54,321,1016,-3,-7,292
2546,-18,265,996,-3,-1,70
2547,5,-3,1011,-5,-7,17
2548,7,-6,989,-5,-3,3
2549,0,-5,1004,-9,-3,3
2550,-330,115,1016,-7,3,-14
2551,-84,131,1009,1,9,-14
2552,-187,211,1011,3,19,29
2553,-181,206,955,-5,11,-116
2554,-131,142,1005,5,9,-73
2555,-54,133,986,-1,26,39
2556,16,3,894,-3,26,132
2557,38,106,1007,-7,19,185
2558,40,44,1019,-5,30,177
2559,5,223,1230,-31,40,84
2560,-103,136,1065,-19,13,85
2561,-118,143,982,26,19,-79
2562,-103,384,926,55,5,-262
2563,-23,190,1102,-46,95,-209
2564,-32,183,1141,12,40,-127
2565,-23,155,993,-13,52,-151
2566,143,70,1167,-48,73,-165
2567,-105,102,752,12,34,-231
2568,-51,-60,1099,-15,71,-122
2569,-174,111,879,-23,36,-213
2570,-180,247,1001,-5,83,-356
2571,-91,88,974,32,28,-350
2572,91,37,1309,22,60,-516
2573,-43,-110,887,7,19,-368
2574,67,45,1306,5,48,-487
2575,-32,103,310,3,42,-500
2576,-50,87,1201,5,97,-385
2577,-112,-52,696,-15,28,-217
2578,62,-181,958,1,23,-331
2579,-143,-101,894,7,30,-317
2580,28,-61,1073,-21,11,-375
2581,-25,14,921,-25,-7,-368
2582,-103,20,1092,10,-1,-590
2583,-35,50,840,20,-20,-313
2584,70,-33,991,-7,21,-381
2585,-82,-81,1094,-11,-1,-286
2586,-193,-25,723,34,-28,-411
2587,-198,69,976,5,-15,-350
2588,-80,14,1035,1,-13,-34
2589,-222,316,802,-13,-20,-135
2590,82,130,932,-13,7,-420
2591,204,-111,970,1,-24,-204
2592,-141,44,850,-36,-106,-610
2593,117,42,1171,-36,-208,-270
2594,-38,92,921,3,-81,-252
2595,-60,78,1065,-25,-40,-598
2596,-182,126,917,1,77,-352
2597,-65,72,825,-9,28,-278
2598,-350,307,285,14,-20,-579
2599,-121,-30,726,-19,19,-401
2600,-46,37,986,-3,-32,-666
2601,32,-66,877,-33,9,-350
2602,43,-89,1258,5,-15,-247
2603,-100,72,1056,-5,17,-543
2604,-9,157,1359,-13,30,-166
2605,113,-70,1065,-1,15,-243
2606,50,-171,1205,-3,-5,-325
2607,9,30,1094,-1,26,-243
2608,140,181,1135,-21,11,-165
2609,117,36,738,-9,28,-100
2610,276,59,-520,7,5,-98
2611,57,-53,986,-9,-7,-456
2612,-113,153,913,12,34,-327
2613,30,-166,695,12,9,-139
2614,184,-159,1092,7,-1,-270
2615,103,-71,1052,-5,-20,-436
2616,10,-87,1182,14,-13,-268
2617,80,49,1025,5,-28,-415
2618,-40,18,861,-3,-122,-495
2619,82,362,1489,696,382,337
2620,121,-31,1164,118,-153,-305
2621,-146,-393,676,28,75,-553
2622,270,-100,1263,44,-13,-321
2623,11,-110,857,24,32,-653
2624,50,-180,962,8,24,-354
2625,193,-60,1085,3,11,-266
2626,135,71,668,3,15,-250
2627,212,-163,1354,12,19,-348
2628,154,-117,1200,12,-5,-385
2629,101,-264,913,-3,-5,-315
2630,65,-91,1064,-3,17,-401
2631,96,-120,1043,-9,1,-397
2632,135,-150,1076,-13,-5,-346
2633,119,-219,970,-11,9,-231
2634,153,-204,1005,-11,-3,-192
2635,4,-13,1019,-1,-3,-170
2636,-13,4,991,-1,-1,-51
2637,38,-89,1010,3,-5,-153
2638,98,-74,1008,-3,-3,-456
2639,93,-66,1013,-9,-3,-793
2640,134,-154,1011,-3,-5,-791
2641,168,-222,1076,-3,-15,-891
2642,56,-217,946,4,-15,-719
2643,86,-159,1021,-1,-15,-350
2644,95,-87,965,-1,1,-221
2645,59,55,1083,-13,-18,-190
2646,96,-135,884,-13,-40,-286
2647,103,-196,1009,-27,1,-106
2648,2,-45,1293,4,-24,62
2649,40,-73,956,-15,-18,-4
2650,89,13,944,-33,13,35
2651,25,36,924,-35,40,117
2652,88,93,1023,-132,97,158
2653,-19,151,597,-74,7,209
2654,37,-350,1469,-595,-343,197
2655,22,99,1042,-11,175,455
2656,135,-137,1000,6,42,259
2657,-36,-115,1054,-9,40,238
2658,108,-46,1206,-21,9,367
2659,176,30,1334,-21,7,505
2660,-51,184,1604,-3,-1,476
2661,76,157,1063,-5,-22,285
2662,-138,123,929,1,-20,78
2663,-72,-108,721,-3,-1,136
2664,-172,146,1177,-7,-22,251
2665,309,-311,593,1,-9,595
2666,17,-97,398,-3,-17,408
2667,-20,-74,1159,-3,-13,685
2668,-50,48,1082,30,-15,699
2669,201,-58,937,8,-22,595
2670,67,-180,1032,3,-15,517
2671,-17,-210,1112,6,-38,597
2672,-25,113,1501,-33,-26,521
2673,-36,-18,989,-25,15,484
2674,62,147,1261,-1,-7,656
2675,-121,334,502,-21,-3,794
2676,-24,-30,1005,6,32,615
2677,-10,67,1197,-3,-13,849
2678,-68,179,884,-5,26,685
2679,-15,-14,1000,22,-1,734
2680,13,-44,932,1,44,599
2681,155,84,979,-5,136,519
2682,-58,48,967,1,95,556
2683,102,18,1081,8,54,630
2684,-5,145,1223,-3,42,632
2685,4,77,1091,-3,1,478
2686,24,23,951,3,-3,531
2687,47,-46,906,10,11,572
2688,35,-112,778,3,-3,541
2689,-6,-98,813,10,19,544
2690,-329,61,1177,-9,24,675
2691,-221,159,1064,-25,-18,734
2692,-132,162,1062,-13,-5,654
2693,-120,66,1093,4,17,660
2694,-197,142,1264,-13,13,515
2695,-55,-89,984,-13,9,503
2696,-183,148,1152,-13,9,394
2697,-25,58,936,-1,1,496
2698,45,54,1265,-3,-9,343
2699,35,-152,1022,-3,-11,523
2700,213,-344,1115,-9,-30,669
2701,50,-80,716,-13,-5,779
2702,90,-124,1006,-13,1,699
2703,105,-99,855,-9,-24,623
2704,-85,170,520,-1,-24,669
2705,-95,160,1032,-3,-40,722
2706,3,48,841,-5,-54,615
2707,-95,16,946,-13,-17,535
2708,-54,243,1007,4,-20,652
2709,-34,153,869,-17,-56,699
2710,-106,270,981,-17,-22,746
2711,-78,16,1230,-7,-20,740
2712,-15,-13,1002,-5,1,632
2713,24,113,1121,-31,-5,539
2714,-8,151,1001,-17,-17,542
2715,2,222,1141,-25,-13,625
2716,-42,168,965,-15,-13,531
2717,-148,287,1016,-13,-5,373
2718,-96,415,1218,-15,1,265
2719,-76,391,987,12,-18,183
2720,-67,291,984,3,-17,121
2721,-22,131,1004,-11,3,87
2722,-5,0,1012,-9,5,5
2723,-6,4,991,-19,9,1
2724,14,62,1002,-13,5,123
2725,-116,95,1003,-3,-1,490
2726,-49,84,1013,1,1,521
2727,-43,217,974,1,3,609
2728,-72,127,1068,6,7,789
2729,-85,234,961,10,3,861
2730,38,140,1274,6,5,826
2731,-54,306,967,6,15,564
2732,-244,303,892,18,5,212
2733,-18,350,854,22,15,-71
2734,-180,283,874,4,24,-178
2735,-307,387,1105,3,19,-284
2736,-251,362,735,20,83,-295
2737,-74,-41,1167,6,26,-344
2738,-35,172,1071,-1,42,-659
2739,23,-81,958,14,58,-520
2740,8,169,1599,-27,21,-407
2741,-7,21,1043,12,23,-641
2742,-41,339,1080,8,28,-684
2743,-222,319,365,4,15,-875
2744,-66,47,986,1,5,-717
2745,173,-426,1067,6,-7,-688
2746,-151,135,724,-17,-1,-329
2747,-94,123,1071,-3,-17,-438
2748,-16,-203,986,-3,-3,-295
2749,-53,-56,1061,14,9,-420
2750,50,-30,1226,3,-5,-567
2751,-12,-8,973,-21,-52,-493
2752,127,67,1041,1,-5,-532
2753,25,-33,929,-21,-24,-567
2754,-80,40,857,4,-15,-694
2755,24,-95,1011,-15,-69,-407
2756,-72,-146,989,-19,-142,-446
2757,5,-2,769,-27,-108,-676
2758,-2,18,1296,-31,-73,-635
2759,143,-190,1045,-9,-1,-491
2760,88,-126,891,-3,-30,-350
2761,77,-37,1531,3,58,-293
2762,-135,15,797,1,-1,-489
2763,126,-274,1096,6,-36,-704
2764,32,-144,737,4,-26,-518
2765,-83,-121,1064,-9,-3,-596
2766,-227,129,716,-25,11,-295
2767,-178,324,981,20,28,-344
2768,-87,42,1247,-9,28,-249
2769,-187,146,879,-7,32,-143
2770,34,328,971,3,34,-45
2771,-108,198,646,-21,28,-79
2772,40,21,890,8,1,-344
2773,136,-115,1134,-1,3,-407
2774,55,52,1327,-3,24,-403
2775,55,-53,956,-13,21,-241
2776,40,37,1800,-1,9,-543
2777,133,-254,954,-1,-5,-477
2778,49,-106,1032,-29,-54,-504
2779,-69,129,892,-13,-24,-428
2780,-31,10,958,-23,-48,-221
2781,103,-123,930,-13,-34,-375
2782,191,-103,998,-1,26,-627
2783,155,-150,867,4,23,-788
2784,118,52,1359,10,26,-1069
2785,271,-45,976,18,9,-702
2786,-14,94,851,-3,15,-889
2787,-11,101,765,-13,36,-811
2788,9,-148,1031,-1,26,-901
2789,155,-93,900,-15,32,-637
2790,62,-252,1171,-7,24,-499
2791,36,-172,936,26,15,-278
2792,82,-200,941,14,28,-305
2793,-153,85,907,-11,32,-157
2794,39,234,919,28,24,-313
2795,-790,586,845,157,-108,-407
2796,294,49,1116,161,-15,-309
2797,28,53,875,53,48,-493
2798,147,-159,1122,-72,-106,-684
2799,115,-199,1054,-23,-17,-528
2800,179,-182,1013,-21,-48,-684
2801,-71,-75,893,-31,-3,-625
2802,93,-132,989,1,-9,56
2803,160,-275,1023,-19,-32,-385
2804,269,-351,1041,-50,-54,-397
2805,31,-206,907,3,5,-463
2806,218,-145,1104,6,15,-81
2807,129,-83,1005,3,11,-100
2808,96,-32,1006,8,11,-20
2809,53,29,1001,1,-1,-8
2810,-8,7,1020,4,5,-12
2811,10,-2,1000,6,5,-10
2812,106,-62,1013,1,3,-286
2813,62,-28,988,-5,-11,-516
2814,139,-146,1025,-19,-26,-333
2815,78,-161,923,-7,-15,-502
2816,204,-245,1066,26,26,-528
2817,-35,-162,971,69,60,-633
2818,30,-104,1052,26,40,-311
2819,-32,-121,991,-23,-52,-176
2820,94,-150,860,34,17,408
2821,-18,-266,998,-35,-13,-161
2822,142,-262,1098,-21,-13,-10
2823,53,-95,1025,44,62,314
2824,75,-7,1142,-5,7,142
2825,-23,-856,402,-142,-15,144
2826,56,-212,790,-265,194,-245
2827,274,-181,1064,6,-30,195
2828,59,-137,1305,-21,-26,123
2829,48,-46,1031,-40,-9,201
2830,61,-15,994,-11,-28,347
2831,55,-217,1184,1,-20,361
2832,57,-54,855,-9,-24,322
2833,-79,-42,733,12,-17,529
2834,46,-40,1233,42,-38,427
2835,-89,-122,893,-33,-24,365
2836,13,-2,947,-3,-17,617
2837,169,-52,866,-17,-24,593
2838,135,-118,1148,-3,-22,523
2839,-96,31,1159,-40,-20,365
2840,163,-104,1077,1,3,369
2841,16,-25,1281,8,24,453
2842,193,-343,964,26,38,587
2843,76,61,1005,28,28,474
2844,25,92,878,20,28,503
2845,2,111,1245,1,-3,476
2846,98,-49,1045,8,-9,490
2847,-44,85,1304,12,-26,347
2848,191,-69,1054,6,-18,257
2849,-101,-134,743,-11,-17,166
2850,-135,-142,1017,-7,3,363
2851,-360,148,1804,-13,-15,789
2852,1,-36,1737,8,-15,689
2853,-94,18,433,-7,-32,912
2854,125,31,645,-33,-34,882
2855,19,150,582,4,-46,808
2856,18,49,1009,-25,-18,869
2857,136,127,942,24,-24,794
2858,82,-221,636,8,-9,736
2859,39,133,724,-33,11,853
2860,-121,88,1153,-31,30,771
2861,-85,43,1152,-15,17,765
2862,-34,-121,886,-11,3,923
2863,-26,-20,959,16,21,779
2864,-25,-102,1202,12,23,943
2865,-34,116,1093,24,118,835
2866,75,-28,858,30,79,878
2867,-119,280,985,3,21,990
2868,-6,147,1130,10,13,871
2869,142,156,1159,-1,15,709
2870,-22,-114,975,-13,7,607
2871,-133,88,920,3,28,638
2872,-60,-143,1025,20,42,742
2873,-118,253,1063,-5,3,455
2874,-112,120,880,-15,-15,544
2875,99,-179,1050,22,30,429
2876,-79,-142,818,-1,-1,271
2877,-80,27,931,-11,-9,412
2878,109,20,714,-48,26,332
2879,-85,387,630,-23,3,484
2880,-156,168,1323,4,-24,480
2881,-221,-121,688,-25,-26,72
2882,-79,203,1222,-25,-42,44
2883,116,380,524,-11,-44,25
2884,-8,79,1026,-1,-54,-28
2885,-27,27,1163,-13,-67,-235
2886,-28,144,1003,-9,-102,-110
2887,189,-359,1310,-27,-32,-8
2888,-179,10,987,-25,1,142
2889,-109,8,1326,-44,-30,423
2890,-63,99,1089,-33,-17,433
2891,-206,46,942,-38,-9,277
2892,-59,165,985,26,-54,349
2893,-30,232,978,-93,-22,205
2894,-98,324,983,-9,-40,218
2895,-196,344,1064,49,-63,388
2896,-125,344,1094,-60,-5,289
2897,-120,289,977,-15,-15,427
2898,-198,389,1064,26,-38,425
2899,-183,260,977,8,-18,468
2900,-130,122,1025,18,-20,455
2901,-30,56,1010,-1,-3,445
2902,24,48,1018,3,-3,537
2903,-27,43,1039,-7,1,785
2904,2,128,1019,-1,1,818
2905,-79,120,1005,-9,7,810
2906,-96,267,1006,-15,11,783
2907,-158,186,1012,-15,15,408
2908,-248,237,1031,-23,34,269
2909,-57,148,936,-1,7,158
2910,-109,-17,1099,-1,23,82
2911,-178,49,878,-9,28,175
2912,82,77,1016,32,13,265
2913,39,156,1094,-44,58,-51
2914,-146,201,900,-25,36,-430
2915,-67,132,960,12,34,-333
2916,-102,-42,1244,14,26,-338
2917,-143,-21,919,-23,40,-442
2918,-70,21,690,24,24,-149
2919,123,-178,1050,22,-11,-223
2920,-115,176,1087,18,15,-250
2921,-219,101,624,24,34,-207
2922,-66,218,1430,20,28,-391
2923,-80,16,1032,26,106,-415
2924,-154,275,1166,-5,69,-678
2925,-132,90,840,-5,40,-788
2926,-204,31,-199,-5,23,-590
2927,-44,164,617,30,54,-618
2928,-220,127,878,8,23,-567
2929,-34,25,1057,-13,21,-602
2930,-1,-73,1006,6,11,-495
2931,133,-193,1320,16,-15,-448
2932,-34,-33,416,4,-32,-465
2933,-12,-32,1022,-7,-9,-528
2934,-332,280,760,-5,3,-463
2935,-189,142,661,14,17,-446
2936,-168,-47,958,-7,-26,-690
2937,-43,-25,877,-19,-42,-540
2938,-34,30,1310,16,-28,-329
2939,51,172,1001,-3,-11,-346
2940,-17,35,1122,-15,-26,-524
2941,-43,-85,1043,-27,-30,-487
2942,-44,35,950,-19,-71,-624
2943,53,3,917,-27,-108,-674
2944,-79,-66,964,-13,-122,-547
2945,140,-53,1377,2,34,-762
2946,101,-80,1047,-9,-9,-651
2947,-2,-150,939,0,-36,-661
2948,-129,39,541,-5,-26,-655
2949,65,-115,824,14,-3,-799
2950,162,-43,1173,-3,-5,-805
2951,143,-64,1766,0,-17,-739
2952,-229,71,1071,2,9,-829
2953,13,-23,995,-15,5,-598
2954,-84,29,1265,10,9,-934
2955,187,-82,932,10,38,-752
2956,-122,-41,1423,2,32,-633
2957,4,-40,1001,-13,32,-680
2958,-10,-6,991,-15,24,-592
2959,36,7,1475,2,26,-620
2960,-38,-161,982,8,-19,-584
2961,-131,177,756,-2,17,-469
2962,-134,-46,1076,-5,11,-540
2963,107,-162,1073,-2,19,-352
2964,4,17,1066,0,-3,-524
2965,-152,137,905,-17,-9,-495
2966,-91,85,1077,-25,-9,-557
2967,120,-6,1220,-39,-36,-274
2968,79,-70,937,-3,-19,-364
2969,440,-193,1239,-13,-13,-389
2970,47,-188,967,30,21,-721
2971,78,29,1121,24,13,-737
2972,141,-120,1190,-2,23,-610
2973,-106,-56,1105,-2,30,-590
2974,-161,120,821,26,17,-678
2975,72,-205,803,-29,30,-655
2976,-172,43,1112,-9,30,-790
2977,54,-81,896,8,28,-838
2978,108,-81,1133,-21,32,-782
2979,124,222,801,18,24,-635
2980,-119,-15,1034,30,21,-362
2981,-117,-93,95,-39,42,-215
2982,19,-771,2048,77,77,-124
2983,128,-7,1287,166,-149,173
2984,190,-10,1083,16,3,-270
2985,-42,74,801,-60,-110,-500
2986,340,-301,1407,-11,-15,-584
2987,24,-206,618,-35,34,-500
2988,141,-42,1078,-43,-52,-1163
2989,52,-194,436,-46,1,35
2990,313,81,824,-54,-11,-206
2991,252,-193,1173,-41,-13,-448
2992,104,-230,1029,24,38,-407
2993,199,-225,1181,-5,9,-397
2994,193,-250,1015,0,-1,-348
2995,210,-189,1002,-3,9,-336
2996,134,-83,1001,-2,9,-288
2997,-1,-1,1019,10,3,-28
2998,-2,10,1008,12,5,-12
2999,157,-96,998,6,3,-24
3000,51,-11,994,-3,-17,-776
3001,144,-85,996,2,-9,-887
3002,73,-210,1036,-3,-7,-1079
3003,135,-268,1160,-15,-19,-825
3004,158,-295,931,-15,-40,-702
3005,146,-185,956,-19,-34,-581
3006,-107,-16,1211,10,30,-336
3007,139,-120,912,32,17,-336
3008,-49,-85,767,20,3,-196
3009,33,-48,1036,30,-5,89
3010,98,-241,978,4,26,-391
3011,71,-135,920,22,5,-561
3012,208,-244,1118,28,50,-247
3013,72,-169,979,18,36,-366
3014,-13,-22,1020,12,36,-233
3015,257,-303,1562,-250,134,-372
3016,-171,-148,1088,-52,28,-381
3017,188,-35,480,-11,-58,-73
3018,94,97,1106,-17,-24,-239
3019,0,-25,1003,-37,-28,-399
3020,-50,-200,650,-37,-30,-297
3021,151,-121,892,-3,-38,-196
3022,36,3,824,4,-36,-141
3023,-15,-109,1023,14,-22,54
3024,28,-43,955,28,-38,140
3025,111,-102,1354,-3,-32,115
3026,26,-18,1139,-3,-24,87
3027,-151,-25,1059,-27,-20,29
3028,219,13,1298,-11,-30,5
3029,-152,229,1176,-13,-28,-98
3030,74,40,972,2,-1,-385
3031,47,-41,1093,12,15,-387
3032,-38,15,987,8,30,-145
3033,315,-111,1069,22,24,-75
3034,70,-41,966,14,1,-18
3035,48,-80,1016,0,28,46
3036,93,-41,1003,6,-9,101
3037,272,-317,1153,-19,-11,115
3038,-61,-60,878,10,-7,253
3039,213,-224,867,2,-26,242
3040,-124,28,820,-7,-11,175
3041,8,-41,945,-15,-15,291
3042,16,-20,1120,-31,-5,125
3043,-139,110,1019,12,-30,275
3044,-127,-89,1207,-3,-30,298
3045,-90,122,1035,-17,-34,44
3046,-64,-274,1526,-9,-13,259
3047,-68,-100,1170,-9,-50,330
3048,213,-310,922,-19,-9,468
3049,-82,-172,881,-15,17,365
3050,-279,-70,829,0,-24,755
3051,-365,329,952,0,-13,839
3052,-55,-94,926,-3,24,679
3053,-32,-79,965,4,5,550
3054,-35,-136,863,8,1,658
3055,40,-55,1087,4,-17,767
3056,1,45,1023,28,71,1005
3057,-106,56,955,8,91,818
3058,-177,122,1035,14,60,871
3059,-152,217,1086,12,67,775
3060,-54,3,944,-15,36,595
3061,-163,189,918,-25,11,658
3062,19,16,903,4,-7,853
3063,-22,-31,870,14,24,541
3064,48,-158,1099,-15,34,654
3065,-55,162,1595,0,13,888
3066,42,22,964,14,21,953
3067,-3,-118,464,4,-3,886
3068,64,-281,1043,-9,17,933
3069,-172,142,908,-37,3,869
3070,-108,94,1097,-7,17,908
3071,-169,94,1543,-5,-5,888
3072,-10,76,1393,8,-26,912
3073,95,130,874,-3,-36,1044
3074,-31,197,1259,-9,-13,949
3075,-171,254,894,-17,-5,900
3076,-27,200,984,-11,-15,1166
3077,-79,212,811,12,-32,1056
3078,-170,300,1019,-3,-20,896
3079,-24,97,818,-3,-38,787
3080,-130,189,1017,2,-58,380
3081,-108,190,1004,-5,-24,648
3082,-100,298,1114,-15,-44,576
3083,-78,325,983,-5,-24,558
3084,-73,175,993,-3,-17,451
3085,-102,304,974,-15,-3,462
3086,-124,186,1003,-7,-1,564
3087,-128,378,955,-9,1,455
3088,-74,296,984,-9,-1,347
3089,-6,-2,993,-3,1,19
3090,44,143,1005,-7,3,19
3091,-13,8,999,-2,-5,529
3092,-51,108,991,-2,5,738
3093,-117,178,1001,4,3,1109
3094,-48,212,1037,0,1,1234
3095,-151,254,1085,12,3,1169
3096,39,225,1180,4,5,974
3097,119,61,913,6,1,834
3098,-83,318,1088,-5,5,537
3099,-13,-89,844,-2,11,201
3100,132,61,1259,-3,13,173
3101,51,-35,969,0,15,173
3102,-111,380,697,6,32,232
3103,-100,175,699,0,62,185
3104,11,150,1098,2,21,-43
3105,-128,138,997,6,13,-288
3106,2,96,849,6,13,-161
3107,7,-72,1038,-5,34,-51
3108,-70,302,891,-3,9,-16
3109,50,105,1010,6,30,-61
3110,-73,365,991,4,9,-434
3111,113,93,1459,0,26,-413
3112,134,153,1760,14,21,-555
3113,106,-179,1078,2,17,-639
3114,129,351,1204,6,-9,-729
3115,1,83,1009,-5,9,-747
3116,96,253,1141,-11,9,-780
3117,-35,66,1070,-13,-1,-772
3118,-53,-196,1253,-9,7,-567
3119,250,-273,1213,24,-11,-155
3120,61,-93,989,10,5,11
3121,244,46,1157,2,-7,191
3122,-97,150,937,-4,-19,-98
3123,69,45,966,-11,-7,-385
3124,-5,-61,1196,0,-11,-500
3125,-72,45,1000,24,9,-413
3126,48,90,969,14,-11,-385
3127,15,91,561,14,13,-323
3128,171,20,271,-4,-7,-184
3129,-14,94,950,-4,-1,-252
3130,-57,-22,1021,-19,-28,-346
3131,-37,-69,963,-21,-9,-256
3132,-10,-64,1018,-4,-19,-186
3133,-37,43,1007,4,-3,-186
3134,-17,8,697,0,5,-321
3135,10,-35,881,2,7,-317
3136,72,-39,1193,-13,11,-319
3137,9,149,915,-15,-15,-350
3138,20,-47,1313,-13,-15,-520
3139,-15,184,642,0,9,-407
3140,-1,-16,916,0,-9,-272
3141,17,-203,919,0,15,-288
3142,50,-57,1044,6,15,-184
3143,-42,-83,1163,-8,15,-106
3144,1,-58,927,2,13,-172
3145,-34,145,950,0,5,-168
3146,-59,34,1087,6,3,-157
3147,-104,-2,840,-8,-32,-245
3148,103,91,957,16,-30,-319
3149,-7,-172,1209,-4,-61,-502
3150,-57,11,1155,-9,-28,-534
3151,-33,-130,882,-21,-50,-616
3152,-60,-98,885,-13,-48,-586
3153,-51,-167,1099,-27,-20,-604
3154,-4,-54,1087,-8,21,-682
3155,-32,-185,1019,-2,48,-610
3156,10,-189,1147,0,28,-625
3157,21,-146,974,12,22,-600
3158,-9,19,936,10,-26,-567
3159,-4,-64,985,16,-52,-520
3160,16,-55,1068,-4,-26,-526
3161,31,-81,1048,2,-81,-594
3162,16,15,1130,18,-122,-508
3163,21,89,967,4,-60,-471
3164,105,-39,982,-2,-42,-643
3165,21,51,1012,-4,-36,-690
3166,-27,-96,1054,-8,-15,-663
3167,-4,-4,1017,-19,36,-563
3168,2,-162,969,10,71,-739
3169,37,-195,1019,0,65,-768
3170,22,-309,1026,10,26,-823
3171,9,-287,899,-4,-3,-750
3172,-13,-305,1057,-15,-17,-631
3173,18,-365,1050,-19,-3,-551
3174,1,-326,1015,-15,-9,-440
3175,2,-243,1024,-9,-24,-336
3176,-7,-272,973,-8,-50,-309
3177,-15,-218,1025,-6,-104,-284
3178,34,-208,1007,-6,-110,-241
3179,53,-53,1010,-4,-42,-178
3180,-7,-14,988,2,-7,-12
3181,-8,-12,1001,0,3,-186
3182,10,-24,1017,-2,-11,-383
3183,-6,-66,1009,-2,5,-344
3184,19,-75,991,-4,-11,-522
3185,9,-120,990,-9,-7,-516
3186,5,-323,996,-2,17,-457
3187,36,-182,1004,-4,144,-657
3188,-27,-303,1000,-9,142,-516
3189,30,-248,982,8,15,-774
3190,27,-211,1000,2,3,-506
3191,49,-217,1058,10,1,-307
3192,-21,-219,953,-4,-3,-161
3193,18,-164,1025,-11,-28,-180
3194,-17,-143,1167,-6,-38,-104
3195,-42,20,935,-13,-40,105
3196,-18,-84,949,-6,-7,214
3197,85,-142,1182,-11,-36,285
3198,-8,-112,983,16,-93,230
3199,-20,-166,1036,10,9,201
3200,29,-108,1057,-8,26,203
3201,-46,17,908,-11,40,277
3202,-27,-139,1024,0,11,318
3203,-3,-131,975,-9,22,209
3204,-5,-235,1026,-15,-5,228
3205,1,29,1023,8,7,291
3206,-41,-28,968,-9,-11,435
3207,-35,-237,902,-8,-15,392
3208,-32,-34,1004,-27,-1,289
3209,29,-66,966,-9,3,414
3210,28,-111,1043,-4,17,546
3211,-24,69,855,-13,30,621
3212,-7,5,1067,-11,-22,687
3213,-15,42,1041,-2,-38,652
3214,-13,-29,971,-4,-30,556
3215,-24,-108,1031,-8,-42,482
3216,2,-157,1028,-19,-30,293
3217,10,-52,1007,6,1,418
3218,84,120,1117,-4,24,427
3219,11,-142,805,4,17,474
3220,-27,61,1042,2,15,591
3221,201,-201,1498,0,9,634
3222,110,-35,1304,-4,-3,777
3223,-142,-252,671,-2,17,664
3224,40,44,1214,-6,-17,656
3225,-20,83,1071,-19,21,914
3226,90,-85,1256,-2,5,853
3227,-70,-122,772,2,3,888
3228,-32,-11,1269,8,-26,541
3229,94,-252,1145,-4,-5,595
3230,178,-15,1169,-4,-32,619
3231,-71,-19,985,-8,21,748
3232,-27,-158,879,-23,22,1044
3233,-53,-103,807,-10,21,1078
3234,-3,35,1005,-10,24,1431
3235,-88,17,920,18,3,1771
3236,60,-116,919,-4,-11,1865
3237,14,-20,920,0,34,1488
3238,-76,-109,1026,-8,-3,1476
3239,76,19,902,-4,13,1283
3240,-6,-70,1140,-6,21,1255
3241,64,136,1088,14,36,861
3242,32,-170,918,14,9,886
3243,-111,-6,1000,-4,5,925
3244,133,-114,891,-2,13,1078
3245,51,170,917,-2,11,1156
3246,16,152,1023,-6,15,1281
3247,-19,129,897,2,22,1185
3248,-45,133,892,2,17,1197
3249,31,-25,1072,6,3,1160
3250,31,18,1164,6,7,1152
3251,62,12,869,-6,15,1285
3252,17,-27,1010,-2,28,1234
3253,129,283,1082,-2,21,1351
3254,53,190,1141,-2,9,1197
3255,-49,235,739,16,17,1080
3256,-58,2,926,0,3,888
3257,-51,283,1006,-21,1,658
3258,-16,348,1063,-10,-1,265
3259,-121,312,1116,-10,-9,-6
3260,43,167,1009,10,3,-10
3261,127,214,956,-4,1,148
3262,129,87,877,-8,-20,548
3263,120,230,1064,-2,5,767
3264,149,334,973,6,7,742
3265,-108,290,743,10,1,648
3266,-27,276,1017,4,-3,535
3267,150,440,1005,-2,-1,320
3268,8,335,1035,-4,-5,152
3269,100,309,982,-4,-7,21
3270,65,58,1000,-8,-7,-118
3271,-3,2,998,-6,-7,-20
3272,-2,5,1001,-2,1,-4
3273,-4,-4,1008,-8,-1,-2
3274,-10,8,1000,-2,5,5
3275,24,72,1001,0,3,328
3276,44,45,1008,4,7,630
3277,83,195,1024,4,9,849
3278,32,80,1027,0,7,1052
3279,30,226,986,2,3,857
3280,44,145,978,4,3,593
3281,-38,197,980,2,11,453
3282,24,15,1062,0,-1,343
3283,64,78,1091,-4,5,341
3284,-38,1,916,-6,-1,250
3285,93,111,1063,-4,-5,146
3286,6,116,1000,-6,-11,-141
3287,-83,17,958,-4,-9,-332
3288,61,244,956,0,13,-479
3289,23,151,1042,-2,1,-456
3290,84,83,972,-11,-1,-495
3291,62,212,1036,-6,-3,-524
3292,-21,21,1066,-2,-7,-581
3293,30,49,1147,-4,-5,-590
3294,30,127,975,-4,-26,-563
3295,-21,47,1012,8,17,-422
3296,75,152,1054,2,17,-418
3297,-27,62,1430,-10,-22,-653
3298,-1,257,891,-4,-9,-629
3299,-5,42,849,-10,-19,-731
3300,-1,83,995,-17,-20,-694
3301,192,140,989,-4,-19,-682
3302,42,104,814,-2,7,-635
3303,-100,69,1059,2,-5,-817
3304,-227,167,827,-10,-19,-768
3305,65,-130,1472,-10,-1,-727
3306,-49,-24,1044,-4,-11,-596
3307,-250,82,978,-10,-19,-672
3308,-144,91,1036,4,-11,-541
3309,-139,235,574,-4,-24,-651
3310,11,109,1147,0,-13,-674
3311,46,-108,1414,-15,-11,-670
3312,-189,187,672,0,-19,-645
3313,99,-103,1523,-2,-5,-596
3314,-102,69,1035,8,-9,-584
3315,37,8,1222,2,-3,-723
3316,53,56,1179,8,-13,-778
3317,-69,-130,1089,10,-22,-901
3318,85,18,951,-10,5,-836
3319,112,-53,1311,-6,11,-924
3320,-21,23,1075,-12,-7,-1024
3321,96,-119,1189,10,-26,-1082
3322,-127,24,1246,16,-17,-985
3323,95,60,1262,4,-11,-924
3324,-15,-295,1380,0,-15,-817
3325,36,83,572,4,-7,-526
3326,49,340,1351,-12,-13,-719
3327,62,-114,761,-8,-1,-858
3328,-104,-146,980,-2,9,-750
3329,-87,179,1484,12,1,-674
3330,78,46,890,-2,-15,-860
3331,-136,-34,874,-17,-11,-965
3332,13,94,863,-17,7,-889
3333,-23,-13,1151,-4,-11,-948
3334,94,89,1135,-10,-24,-1049
3335,-9,-33,971,4,-20,-957
3336,-90,43,990,-17,-5,-1012
3337,35,-74,874,2,-11,-965
3338,-7,-15,746,-10,5,-961
3339,137,132,1160,-19,-5,-776
3340,-28,-79,1149,-23,-13,-870
3341,33,-58,1289,0,1,-1059
3342,47,-65,1165,-12,-20,-1049
3343,24,-243,926,16,-17,-1053
3344,123,51,1209,-8,-9,-1243
3345,23,-100,1004,6,1,-973
3346,7,-92,1046,16,-17,-1141
3347,68,-82,1112,-4,-3,-1420
3348,138,-166,1199,-2,7,-1297
3349,-32,-85,1117,-12,5,-1372
3350,-59,-284,1227,-4,21,-1207
3351,72,-280,471,12,19,-985
3352,-121,-244,767,10,-5,-832
3353,47,-258,1146,-4,-11,-973
3354,-25,-257,924,-25,-15,-930
3355,47,-371,1047,-27,-11,-956
3356,28,-306,1019,-21,-11,-989
3357,50,-259,927,-10,-15,-840
3358,4,-310,992,-12,-13,-678
3359,15,-263,1070,-10,-5,-418
3360,-16,-219,1017,-8,-5,-291
3361,-28,-316,1030,-19,-15,-155
3362,-7,-313,1012,-6,-5,-71
3363,-17,-361,1017,-8,-3,-77
3364,17,6,991,0,3,-114
3365,-6,-7,1007,-2,-1,-4
3366,0,-6,1006,4,-5,-2
3367,3,-28,1000,2,-5,-10
3368,86,-248,1002,-6,1,-495
3369,57,-216,994,-10,3,-795
3370,-13,-273,1011,-6,-5,-493
3371,33,-369,921,-10,3,-651
3372,45,-228,1062,-6,-7,-373
3373,20,-272,1048,4,7,-139
3374,56,-321,1022,-8,7,-86
3375,33,-237,1023,4,7,128
3376,-12,-220,921,0,9,277
3377,-46,-206,1039,4,1,377
3378,-40,-95,1245,18,-11,441
3379,45,-183,1169,8,7,357
3380,-27,-90,1218,-2,-9,410
3381,-9,-65,960,2,-9,558
3382,-34,-72,920,-8,-9,472
3383,18,-211,783,-19,-7,595
3384,43,-132,1108,-12,-20,435
3385,-152,-52,965,-10,-9,396
3386,5,-170,892,-8,-5,427
3387,-10,-176,1138,-27,-5,437
3388,-52,-198,752,-8,-11,490
3389,116,-54,1063,-15,-9,617
3390,86,-71,1242,-33,21,537
3391,17,56,939,4,-7,570
3392,-11,-125,1058,-14,11,650
3393,68,-73,1066,-23,24,693
3394,-125,-82,973,-8,13,658
3395,-52,126,947,-6,3,541
3396,165,-156,1061,-2,7,703
3397,-17,-72,978,-2,9,562
3398,19,136,920,6,-1,668
3399,-91,63,747,8,-1,587
3400,14,40,1018,-10,9,259
3401,28,-76,1033,-2,1,314
3402,-103,-62,971,4,1,425
3403,33,-18,1049,-12,5,410
3404,-87,-83,855,-8,13,521
3405,-50,-32,830,-2,17,482
3406,-164,54,937,10,3,478
3407,-38,-99,751,8,3,611
3408,7,84,980,-2,11,591
3409,-12,55,802,-8,7,783
3410,35,0,1091,-12,1,630
3411,145,-18,1158,0,-3,980
3412,-2,-52,1164,-12,11,636
3413,21,-157,1000,0,3,871
3414,-57,-146,1013,-2,5,761
3415,-59,-176,1269,-10,5,541
3416,19,159,1192,-12,13,621
3417,-45,40,1072,-8,-3,580
3418,112,-46,927,-17,7,439
3419,-100,-55,1024,-8,-1,322
3420,59,82,845,-9,13,593
3421,18,-91,842,-4,9,681
3422,23,-78,1131,-4,3,787
3423,14,54,1035,-2,11,1078
3424,-54,10,1370,-6,15,1027
3425,-67,69,1093,-8,9,902
3426,-52,188,1058,-2,15,718
3427,22,105,1157,10,3,476
3428,-134,-42,904,12,5,21
3429,-112,-118,1059,14,7,-182
3430,103,-95,1023,-17,13,152
3431,99,57,1211,-9,3,652
3432,238,-52,1017,-17,13,1097
3433,108,99,855,2,7,1392
3434,209,111,1134,8,7,1406
3435,26,152,1077,2,13,1421
3436,53,161,1195,14,5,1189
3437,56,99,896,28,1,1156
3438,86,121,1014,16,5,931
3439,35,80,977,-15,9,703
3440,-71,-45,1001,-19,17,703
3441,-120,38,836,-23,17,668
3442,-128,89,878,-6,1,984
3443,42,59,1204,8,-3,1007
3444,-44,90,790,-2,1,769
3445,121,184,996,-4,9,787
3446,69,83,1197,-11,17,816
3447,84,142,863,14,1,1003
3448,-10,-89,643,4,1,716
3449,81,154,1030,-21,13,648
3450,108,97,934,-2,7,1064
3451,72,-47,1059,-15,5,703
3452,105,106,933,-2,7,933
3453,90,195,1017,-9,5,753
3454,-9,177,928,4,-1,761
3455,-15,281,946,16,-5,769
3456,23,354,975,10,-7,605
3457,52,362,1015,2,-1,484
3458,79,210,1004,-2,3,351
3459,-1,4,1005,-15,-3,17
3460,1,2,997,-15,1,5
3461,2,-4,1012,-15,3,5
3462,-7,-11,1001,-21,9,9
3463,-6,0,1013,-21,11,13
3464,323,290,987,-6,1,113
3465,61,84,999,0,-3,482
3466,11,67,1020,-4,-1,281
3467,99,194,991,-6,-5,310
3468,-44,61,1014,-4,-3,220
3469,0,123,1045,0,5,335
3470,122,254,1106,0,-3,232
3471,87,248,1023,6,-7,121
3472,-28,161,1068,-2,-3,-198
3473,23,194,992,-21,-3,-360
3474,-43,159,885,-2,-11,-354
3475,120,73,1130,-4,-7,-473
3476,-119,160,853,-4,-3,-680
3477,6,-162,950,0,-15,-690
3478,-36,6,890,2,-11,-725
3479,48,144,977,6,-9,-469
3480,101,67,1321,-13,-5,-559
3481,-37,119,965,-19,-3,-610
3482,-79,172,679,10,-5,-395
3483,83,128,1011,4,-13,-594
3484,-24,152,956,-4,-11,-774
3485,-122,157,891,0,-9,-569
3486,49,180,892,-6,-9,-756
3487,-18,176,1044,-8,-19,-997
3488,109,-30,1002,-13,-3,-983
3489,-132,-9,937,-25,-17,-1243
3490,23,-194,1221,-19,-7,-1000
3491,138,21,1185,-4,-3,-967
3492,-101,132,1001,6,-20,-895
3493,-28,-7,987,-4,-9,-786
3494,-33,201,1093,-8,-19,-926
3495,25,45,1074,-8,-13,-819
3496,6,-79,1039,-8,-13,-784
3497,43,185,1071,-6,-17,-819
3498,-49,-47,1190,4,-9,-614
3499,-58,201,1020,8,-7,-524
3500,60,-12,1271,8,-22,-506
3501,-133,369,387,-6,-13,-668
3502,64,87,1019,-11,-20,-991
3503,-129,63,832,-19,-7,-1075
3504,30,79,788,-4,-3,-1163
3505,-144,-381,969,-6,-7,-858
3506,-38,22,1042,8,-11,-875
3507,12,6,1354,4,-17,-956
3508,-54,29,604,-6,-11,-1053
3509,-32,-198,1185,0,-11,-1104
3510,44,39,1108,-11,1,-934
3511,-27,-15,1065,-8,1,-961
3512,9,142,805,-13,3,-825
3513,125,-14,1166,6,-1,-756
3514,-4,32,582,-17,-13,-985
3515,22,-21,1085,-15,-7,-684
3516,25,138,1064,-6,-19,-813
3517,56,-64,1138,-8,-26,-920
3518,-131,-117,567,2,-15,-1036
3519,-27,-64,1087,8,-3,-916
3520,25,-203,642,2,1,-627
3521,128,-180,870,4,-15,-788
3522,90,114,656,-2,-7,-1012
3523,-12,-168,874,-25,-5,-1088
3524,74,-147,1238,-4,-17,-868
3525,-75,14,1097,-4,-7,-1049
3526,125,-101,1418,2,-13,-1043
3527,19,71,509,2,-17,-1014
3528,205,-271,1098,-17,-13,-854
3529,-65,129,1175,14,-28,-911
3530,1,-86,684,4,-13,-1069
3531,51,-65,718,10,-20,-1030
3532,99,87,977,-6,-5,-1036
3533,42,-139,1184,-8,-7,-1116
3534,-36,102,674,-4,-5,-1139
3535,35,-246,752,-11,13,-924
3536,117,-308,1370,-10,22,-860
3537,-43,-173,969,0,-28,-930
3538,61,-162,1272,-4,-9,-868
3539,31,-281,1025,-8,-30,-909
3540,118,-215,1179,-15,-9,-932
3541,-112,-210,800,-27,-13,-918
3542,22,-286,1083,-13,-15,-700
3543,21,-401,974,-6,1,-524
3544,-17,-380,1039,-11,-7,-534
3545,-19,-383,1029,-4,-5,-534
3546,-4,-271,970,-6,-9,-493
3547,-55,-370,1035,-4,-9,-434
3548,-10,-323,995,-4,-7,-248
3549,-15,3,1005,0,1,-22
3550,-6,-7,1006,8,-1,-4
3551,-5,-8,992,6,-5,-2
3552,32,-286,1000,6,-7,-30
3553,-27,-40,996,-15,-9,-965
3554,24,-49,1012,-4,-7,-666
3555,49,-270,1001,0,9,-575
3556,33,-256,1050,-8,-5,-788
3557,-21,-350,977,-13,1,-885
3558,-21,-274,917,-8,3,-625
3559,17,-101,978,-2,11,-422
3560,-43,-289,974,-4,3,-317
3561,-11,-140,1039,-2,7,-327
3562,6,-143,1047,12,7,-90
3563,56,-360,982,12,9,105
3564,112,-272,931,6,-3,367
3565,28,-250,996,2,1,511
3566,0,-89,1066,-8,5,619
3567,2,-105,1182,-23,9,646
3568,57,-326,806,-8,-3,511
3569,-26,24,1236,-2,-9,464
3570,-30,-170,875,0,-3,482
3571,-19,-4,680,-15,-7,324
3572,-15,-28,1074,-6,7,486
3573,-188,-25,746,-2,5,447
3574,143,-50,1404,-6,9,425
3575,-129,-293,725,-23,3,363
3576,-68,51,891,-11,19,388
3577,-51,-110,987,-13,19,533
3578,-97,68,1114,-21,38,697
3579,144,-87,1156,-2,5,705
3580,24,21,728,-8,5,693
3581,84,-298,868,2,9,646
3582,-63,29,858,-2,19,539
3583,6,-84,1180,6,-3,304
3584,65,73,1320,2,3,535
3585,-47,-229,1175,-2,7,654
3586,13,-108,563,-17,24,777
3587,-102,151,1716,-2,19,996
3588,47,192,1151,-8,15,1076
3589,56,-188,1034,8,13,785
3590,218,-366,377,0,11,750
3591,86,-50,1139,-2,11,845
3592,-140,88,1363,0,7,974
3593,230,-407,1159,0,3,966
3594,-68,-26,981,-15,13,951
3595,95,-82,959,-6,15,1140
3596,-37,13,942,4,-5,1214
3597,-27,62,1103,-2,3,1156
3598,-180,-32,715,4,-5,1064
3599,-82,-86,966,-8,7,902
3600,71,-233,1293,-6,3,802
3601,-79,-14,975,-17,7,1021
3602,49,53,1086,-10,19,1320
3603,-141,77,1364,-13,-7,1097
3604,-98,-93,1120,-2,-1,1164
3605,42,-77,1076,2,-1,1162
3606,-28,151,1494,2,5,931
3607,-15,-145,851,0,11,1119
3608,10,129,1008,-2,13,1306
3609,-84,79,705,-8,13,1263
3610,110,141,1139,-4,-3,1218
3611,4,168,1080,20,1,1431
3612,60,56,1380,6,19,1072
3613,68,82,887,14,3,1099
3614,-13,60,1144,-10,7,1125
3615,-59,56,602,-8,17,1169
3616,32,117,967,-11,7,1019
3617,86,88,1191,-4,13,1240
3618,-102,197,848,4,7,1240
3619,14,205,1028,4,11,1152
3620,-7,92,961,6,9,1000
3621,26,52,1111,4,7,1048
3622,-61,45,1000,0,7,882
3623,87,101,1060,8,3,824
3624,153,137,1031,-4,9,910
3625,109,65,1109,-12,9,613
3626,56,67,1144,-2,9,900
3627,43,325,1072,-6,-1,912
3628,-40,218,806,-8,5,837
3629,-125,303,849,-4,7,810
3630,-13,333,1053,0,3,576
3631,98,464,887,0,-1,345
3632,5,408,931,2,-7,291
3633,-19,265,922,0,-5,113
3634,123,218,1019,2,3,-20
3635,135,175,1018,-4,-1,-40
3636,83,151,989,-4,-1,-120
3637,144,162,1001,-2,-5,-20
3638,-3,-7,1011,-2,3,-2
3639,-2,3,997,-6,-1,0
3640,-2,0,1006,-8,-3,2
3641,-2,-2,1005,-2,5,0
3642,-7,-3,1008,-4,-1,0
3643,-3,5,996,-2,3,-2
3644,2,-6,1004,-2,1,9
3645,-6,-12,1005,-4,1,9
3646,132,230,999,-2,-1,152
3647,41,95,1016,-4,-3,429
3648,21,93,1011,-2,1,275
3649,24,109,1037,-6,-1,212
3650,68,155,1036,-8,-1,197
3651,49,213,976,-2,5,95
3652,51,38,1047,-2,1,39
3653,19,74,1056,-10,-1,-14
3654,-12,213,994,-2,3,-53
3655,51,309,915,-4,-3,-268
3656,-82,261,985,-4,-5,-375
3657,24,68,1182,2,-9,-250
3658,134,39,1020,0,1,-196
3659,27,156,983,6,-13,-354
3660,160,217,1140,2,1,-280
3661,-6,258,955,-2,-5,-440
3662,55,198,1147,-8,-11,-563
3663,85,78,938,-8,-1,-584
3664,-26,52,1142,-6,-13,-649
3665,-52,164,868,-17,-17,-694
3666,64,-81,1062,-12,-9,-674
3667,-227,264,986,-10,-13,-829
3668,-94,6,1150,-12,-13,-799
3669,77,-152,1042,0,-9,-903
3670,-29,202,804,2,-7,-854
3671,0,-148,1064,-4,-7,-858
3672,22,27,1100,-19,-5,-872
3673,43,-65,1195,-10,-15,-831
3674,-70,137,827,-8,-5,-709
3675,38,25,759,2,-15,-721
3676,163,65,1339,6,-13,-549
3677,-50,-125,1130,8,-9,-729
3678,105,54,989,2,-5,-524
3679,-39,63,957,-8,-9,-485
3680,-131,157,853,-8,-3,-348
3681,-23,83,961,-8,-9,-497
3682,-129,135,983,-4,-5,-666
3683,-100,36,866,12,-20,-791
3684,60,-123,905,8,-15,-995
3685,-20,-333,868,4,-11,-957
3686,-46,131,886,-6,-5,-889
3687,118,-100,1165,-8,-5,-678
3688,43,64,978,-12,-5,-719
3689,55,51,1085,12,-3,-493
3690,67,11,978,-4,-5,-571
3691,-4,110,663,-8,-15,-739
3692,5,-174,895,-23,-9,-793
3693,-70,-6,1058,-19,-5,-571
3694,174,3,1299,-2,-15,-536
3695,115,-165,1207,-15,-15,-620
3696,67,-14,1157,-4,-1,-891
3697,74,253,958,-4,-7,-659
3698,16,62,1046,-4,-11,-735
3699,24,-154,884,4,-13,-946
3700,74,273,1195,-4,-13,-834
3701,51,-190,1235,-17,1,-973
3702,119,-18,942,-15,-3,-750
3703,70,166,1080,-8,-11,-590
3704,85,-57,895,-10,-15,-579
3705,-15,-408,713,14,-36,-668
3706,-123,-319,830,14,-32,-528
3707,-63,40,846,-19,-7,-510
3708,453,-485,1227,16,-34,-1028
3709,85,135,617,4,-7,-930
3710,8,103,995,8,-1,-836
3711,-23,-203,1090,4,3,-903
3712,-11,-81,659,4,21,-696
3713,-105,-69,832,24,-5,-815
3714,-256,107,790,18,-7,-706
3715,-133,-390,863,-2,-13,-623
3716,-62,-361,929,-2,15,-440
3717,-73,-475,1042,-23,7,-108
3718,-77,-424,916,-25,3,244
3719,-6,-373,950,-6,5,322
3720,-21,-358,968,-4,7,218
3721,-15,-244,1115,-23,5,64
3722,-19,-139,984,-6,-1,-182
3723,31,-192,987,-2,1,-225
3724,81,-239,986,-2,19,-135
3725,15,-140,905,-2,52,9
3726,-3,-47,1039,-6,-11,-514
3727,41,-63,1020,-2,73,-373
3728,14,5,999,-14,-132,56
3729,28,6,991,-8,200,128
3730,-3,-2,1003,-4,-188,-2
3731,-4,-10,1008,-6,-15,-4
3732,-7,-3,1006,-4,-3,-4
3733,7,14,997,2,1,-4
3734,6,-1,1005,-2,1,0
3735,-8,-6,1003,0,1,2
3736,-12,-14,996,-2,1,2
3737,-12,2,1005,-4,-3,-2
3738,9,42,1002,0,1,-2
3739,-3,-3,1013,-2,1,-4
3740,-1,-4,1000,-4,-1,-2
3741,4,-7,1009,-2,3,0
3742,-3,-3,1005,-2,1,-2
3743,-3,-2,998,0,1,-2
3744,2,-7,1009,-4,-1,-2
3745,0,2,1016,-2,3,-2
3746,-3,-1,1013,-4,-1,-2
3747,-5,1,1012,-4,-3,-2
3748,-2,3,991,-2,1,-2
3749,-1,-5,1011,-2,1,-6
3750,-6,0,1003,-2,1,-4
3751,-9,-3,1008,-6,-3,-2
3752,4,-6,1009,-6,-3,2
3753,4,1,1015,-4,-1,0
3754,-4,-3,1003,-2,3,0
3755,0,-3,1013,-2,3,0
3756,-2,1,1007,-4,-3,-2
3757,-4,-2,1009,-4,-1,-2
3758,-12,0,1006,-4,-1,0
3759,-1,-8,1005,-2,-1,0
3760,1,-5,989,-2,-1,2
3761,-4,-2,1001,-4,-1,2
3762,0,6,1003,-4,-5,0
3763,-3,0,1007,-4,-1,0
3764,-1,3,1014,-2,1,0
3765,-1,-4,1000,-2,1,0
3766,2,-1,1002,-2,1,-4
3767,0,2,996,-2,1,0
3768,-6,-9,998,0,1,-2
3769,-2,0,1011,-2,3,-2
3770,0,-2,1011,-4,-3,0
3771,-1,-9,1002,0,1,-3
3772,2,3,996,-4,-5,1
3773,-9,-5,993,-2,-3,1
3774,-8,-6,999,0,1,-3
3775,-8,-5,999,0,1,1
3776,-6,0,1007,4,1,-1
3777,-4,2,1013,-2,-1,3
3778,-1,-3,999,0,1,1
3779,-3,-8,1002,-2,-3,-1
3780,3,-9,1009,0,1,-5
3781,-4,-4,1002,-2,-1,-3
3782,-7,3,1003,0,-1,-5
3783,-2,-2,1003,2,-1,-1
3784,0,-5,1006,0,1,1
3785,-7,-6,1009,0,1,-1
3786,-2,2,1003,-2,-3,-3
3787,-8,-6,1001,-2,-5,-3
3788,2,1,993,-2,-1,-3
3789,-6,0,1010,-2,-1,-1
3790,1,-4,1019,0,1,-3
3791,-1,1,1000,-2,-1,1
3792,3,-3,1010,-2,-3,-3
3793,2,1,1013,-4,-1,-3
3794,0,-7,999,-2,-1,-3
3795,3,-7,993,0,1,-1
3796,-2,3,1001,0,-3,-1
3797,-3,-3,999,0,3,1
3798,2,0,994,0,1,-5
3799,5,3,1012,-2,-3,1
3800,4,-9,991,-4,-5,-1
3801,-6,-4,993,2,1,-1
3802,0,-4,992,-4,-1,-1
3803,-11,-3,999,-2,-1,-1
3804,2,-4,1011,-2,-1,-1
3805,0,-5,1001,-2,-3,1
3806,2,2,992,-2,-3,-5
3807,-10,-5,996,0,-1,1
3808,-9,-3,998,2,1,-3
3809,-3,-8,1000,0,1,-3
3810,3,-8,1001,0,-1,-3
3811,-2,-10,986,0,1,1
3812,0,4,990,0,3,1
3813,2,-9,991,2,1,-1
3814,-5,4,1009,4,1,-3
3815,-11,-4,1000,-2,-3,1
3816,-3,1,1007,-4,-3,-1
3817,-1,1,1001,2,1,1
3818,4,-4,998,-2,-3,-3
3819,-2,-11,1004,0,3,-1
3820,-4,-7,1005,-2,-3,1
3821,-4,-8,1007,2,1,3
3822,-4,10,1001,-2,-1,-1
3823,-14,-1,1012,-2,1,-3
3824,-3,-4,998,-2,-3,-1
3825,0,-4,995,-2,-1,-1
3826,1,-5,1001,-2,-1,-3
3827,-7,4,980,-2,-3,3
3828,-6,7,1009,-2,-3,-1
