sequence,AccelerometerX,AccelerometerY,AccelerometerZ,GyroscopeX,GyroscopeY,GyroscopeZ
0,-9,-4,1008,-3,-1,3
1,2,-3,1000,-1,-1,-3
2,-10,10,1008,-1,-1,-1
3,-10,-4,995,-1,-3,3
4,-13,-3,1018,1,1,-1
5,1,-9,1002,-1,-1,-3
6,-8,-3,985,-5,-1,-1
7,-5,-9,990,-1,-1,-5
8,-3,-1,993,-1,-5,1
9,-3,-5,1005,-3,-3,3
10,-4,0,1006,-1,-1,1
11,-11,-2,1012,1,3,-1
12,-10,2,1011,-1,-1,1
13,1,-3,995,-1,-1,1
14,-6,-6,1012,1,-1,-3
15,-1,-13,1011,-1,-3,-1
16,3,3,1016,-1,-3,-1
17,-10,-8,988,-1,-3,-3
18,-10,0,1002,-1,-3,-1
19,-10,1,1007,-1,-5,1
20,0,3,1007,-1,-1,3
21,-7,-6,997,-1,-5,-1
22,-6,-2,1001,-1,-3,3
23,-4,-13,1010,-3,-1,1
24,2,-7,1001,-1,-1,3
25,1,-4,1008,-1,-1,1
26,-3,2,995,-1,-3,1
27,-3,2,1016,-1,-1,1
28,-1,6,993,-3,-1,-1
29,-8,-1,1007,-1,-3,3
30,-14,6,1008,1,1,1
31,-6,-7,988,-3,-1,1
32,-4,-1,995,-1,-1,7
33,-8,-2,998,-3,-1,-3
34,-12,10,1000,-1,-3,-1
35,-9,-3,1001,-1,-5,1
36,-6,8,1005,-1,-3,3
37,171,-27,1194,1,7,-1
38,66,-37,1003,1,9,-5
39,32,-41,895,-1,-3,-3
40,-37,6,957,-3,-3,1
41,-10,8,979,-1,-3,1
42,-13,10,994,1,-1,1
43,-6,2,1028,-1,-3,-5
44,-6,-4,1004,-1,-5,-3
45,-1,-3,1002,-3,-1,-3
46,-15,-13,984,-5,-1,1
47,0,0,988,1,1,1
48,0,-2,1016,1,1,1
49,-9,-4,1000,1,1,-3
50,1,-5,1000,1,3,1
51,-8,-3,982,-1,1,1
52,-4,-4,1001,-1,-1,1
53,-5,1,1016,1,1,-3
54,-6,-1,992,1,1,-1
55,1,-8,1001,-1,-1,3
56,-1,9,989,-1,-3,-1
57,-5,-2,992,-5,-1,3
58,-1,4,995,1,3,3
59,-8,-2,1008,-1,-1,-1
60,-6,-9,1013,1,1,-1
61,-3,-7,985,-5,-1,-1
62,-5,-6,989,-1,-3,-3
63,-1,1,1007,-5,-1,-5
64,-5,-3,1002,-3,-3,-1
65,-8,-5,989,-7,-3,1
66,-13,0,1002,-3,-5,1
67,-16,-6,999,-1,-1,-1
68,0,3,998,1,1,-3
69,-3,-7,1014,-3,3,-3
70,0,-9,1006,-3,-1,-1
71,-7,-8,999,1,3,-3
72,-2,-7,996,-3,-3,-7
73,-8,-1,1009,-3,-3,1
74,-1,-6,1002,-1,-1,-1
75,-12,-9,995,-3,-3,-1
76,1,-10,1006,-1,-1,-1
77,4,3,1000,-1,-1,3
78,-3,5,992,1,1,-1
79,-6,-3,1004,-1,-1,-1
80,-11,7,997,1,3,1
81,-8,-8,1018,-1,-1,-1
82,-8,-6,1009,1,-1,1
83,-4,-7,1021,-1,-1,-1
84,-2,0,996,-3,-3,-1
85,-9,-2,1009,-1,-3,1
86,-5,7,994,-3,-1,1
87,-6,-6,1025,-3,-3,-1
88,-7,-4,1003,-1,-1,1
89,-3,2,1001,-1,-3,-1
90,-8,-8,1006,-3,-5,1
91,-4,3,1004,-3,-1,1
92,-3,0,1007,-1,-1,1
93,-4,1,1011,-1,1,1
94,-8,-8,991,-3,-3,-3
95,-11,-5,1005,-3,-3,-1
96,1,-7,997,1,5,1
97,-5,-6,1012,-1,-1,-1
98,-4,-2,996,-5,-3,-3
99,-5,0,1006,-1,-1,1
100,2,-10,985,-1,1,1
101,-11,-5,995,-1,-1,1
102,-10,-7,1003,-3,-1,-1
103,-17,-3,1006,1,1,3
104,-1,-2,996,-3,-1,-1
105,0,2,1010,1,1,-1
106,-3,-6,1007,-1,-1,-3
107,3,-5,994,-1,-3,-3
108,-13,-5,1009,-1,-3,1
109,-10,3,1015,-1,-1,3
110,-3,-5,1013,-1,-7,1
111,-12,-5,988,1,1,1
112,-18,-10,997,3,-1,1
113,-14,-4,1000,1,1,-1
114,-3,-11,988,-5,-1,3
115,-2,-8,999,1,-1,1
116,-8,-5,1002,1,1,-3
117,-8,-1,1012,1,5,1
118,-7,-9,1009,1,1,1
119,-8,-3,998,-1,-1,-3
120,-2,3,997,1,1,-3
121,2,-4,997,-3,-3,-1
122,-14,-3,993,-1,1,-1
123,-8,0,999,1,1,-3
124,-7,-3,1004,1,1,-1
125,0,-5,1017,1,3,-5
126,-5,-6,1005,-3,-1,-1
127,-9,-4,1004,3,1,1
128,-4,0,999,1,3,3
129,-6,-7,1011,-1,-3,-3
130,-9,2,998,-3,-3,1
131,-10,-11,1012,1,1,-1
132,0,-3,998,-1,-5,1
133,-5,-6,994,-1,-5,1
134,-6,-2,999,1,1,1
135,-7,1,992,-3,-3,-5
136,-8,-3,1008,-1,-1,-3
137,1,2,998,1,-3,-1
138,-2,2,1002,-1,-1,1
139,-7,-5,1003,-1,-5,-3
140,-1,-9,996,-3,-5,1
141,-6,-1,1008,-1,-1,-3
142,-7,-10,1003,-1,-1,-1
143,-6,4,989,-1,-1,-1
144,-11,2,1005,-1,-1,-3
145,-10,-6,1016,-3,-3,1
146,-11,-2,998,-1,-3,1
147,-11,0,1003,1,1,-1
148,-4,3,999,-1,-1,-1
149,-4,4,1005,-1,-3,3
150,-8,2,1005,-1,-1,1
151,-19,0,994,3,1,-3
152,-6,0,1001,-1,-1,-1
153,-6,2,1009,1,1,-3
154,-10,-9,999,-3,-3,-1
155,-19,-3,999,-1,-1,3
156,1,-6,1005,-1,-1,-3
157,6,-5,1005,-3,-7,1
158,-9,-4,1012,1,1,1
159,-7,-5,1008,-3,-1,-3
160,-6,3,1005,-3,-3,-1
161,-13,-4,1015,-1,-1,1
162,-4,-3,1007,-5,-3,-1
163,-8,-5,1002,-1,-3,-1
164,-2,1,1003,1,1,3
165,-10,-2,1006,-1,1,1
166,-19,-6,1012,1,1,-1
167,-1,-6,993,-1,-1,-1
168,-15,-7,997,-1,-1,-3
169,-8,-5,999,-3,-1,-1
170,-6,4,1009,-1,-5,1
171,-9,0,1013,-1,1,-1
172,-12,-7,986,-3,-1,1
173,-2,3,998,3,1,-1
174,-7,-9,1022,1,1,-1
175,-6,-4,1002,-1,-1,1
176,-5,1,995,-1,-1,-1
177,-1,2,1009,-1,-3,-3
178,-5,4,996,-1,-3,-5
179,-5,-4,1002,3,3,-3
180,-3,-5,1004,-1,-3,-5
181,-7,-4,1010,-1,-1,-1
182,-6,-3,988,-3,-3,-1
183,-18,-13,1066,-1,-11,1
184,-5,0,978,1,7,-3
185,11,-3,1006,1,1,-1
186,8,12,1022,3,1,-5
187,-7,11,983,3,3,-3
188,-14,-7,1029,-5,-5,1
189,-20,-5,976,-1,1,1
190,-24,-9,1030,-1,-5,-3
191,-9,-3,969,1,1,-3
192,1,5,1019,-1,-5,-1
193,3,-2,1002,1,3,-1
194,-2,5,1011,1,1,1
195,-7,-6,1002,1,1,-1
196,-23,-7,986,-1,1,-5
197,-7,-10,1002,-1,-3,-3
198,-3,-9,992,-1,-1,1
199,9,3,999,-1,-3,1
200,5,6,1002,-3,-3,-1
201,-3,5,1013,-3,-5,-3
202,-11,-3,994,3,1,-1
203,-19,-9,1008,-1,-1,-1
204,-6,-2,1017,-1,-3,-1
205,-8,-7,998,-1,-1,-1
206,-1,6,1188,1,-5,-3
207,-3,10,1009,-3,-7,-3
208,9,-1,915,-1,13,1
209,24,-24,1065,-1,-18,-1
210,-19,-9,971,1,15,1
211,-21,-8,1074,-3,-12,-1
212,-42,4,966,3,7,-1
213,-6,3,1005,-5,-9,1
214,7,1,1019,1,1,-5
215,13,-4,1001,1,1,-1
216,18,7,1046,-1,-5,-3
217,-2,-10,975,1,3,-1
218,-24,-16,1005,-1,-5,1
219,-23,-9,1002,1,1,-1
220,-10,-3,1006,-3,-5,3
221,2,2,992,5,1,-5
222,7,5,1002,-1,-1,-3
223,9,0,1015,-1,-1,-3
224,-7,-3,1003,-1,-1,-3
225,-27,-12,1010,-3,-3,-3
226,-25,-8,990,3,3,-1
227,-18,6,999,1,-3,-1
228,2,-7,1000,1,1,-3
229,2,8,1009,-3,-3,-3
230,7,-1,988,1,1,-7
231,-6,-12,1014,1,1,1
232,-14,-1,1004,-1,-3,-1
233,-17,1,1002,1,1,3
234,-11,-5,1019,-6,-3,-3
235,-4,12,1001,-1,-1,-1
236,5,5,995,-3,-1,-3
237,14,10,1008,1,1,3
238,-20,-18,1057,-6,-9,-1
239,-17,-18,991,1,5,1
240,-11,9,1016,-3,-7,1
241,9,15,975,-1,1,1
242,9,10,999,-3,-3,-3
243,2,-2,1033,-1,-3,-3
244,-17,-16,993,-1,7,-1
245,-24,-12,1008,-1,-7,3
246,-22,-2,980,1,1,-3
247,-8,4,1018,-1,-3,-1
248,4,13,983,-1,3,1
249,2,1,1016,-1,-3,-1
250,1,-3,993,-1,-5,1
251,-11,-5,975,1,-1,1
252,-17,-16,1013,1,-3,1
253,-21,-8,1003,1,3,-1
254,-4,-7,1009,-3,-5,-1
255,8,12,986,-3,-1,-1
256,1,6,1020,-1,-3,-3
257,2,-4,999,-1,-1,-3
258,-15,-8,1004,-1,-3,1
259,-13,-12,991,-1,-1,-3
260,-20,-12,1002,-1,-3,-1
261,-12,-32,1108,7,-3,1
262,-38,24,870,-1,3,-1
263,10,-4,856,-1,11,-5
264,26,-3,1087,-1,-3,-3
265,-4,-9,993,1,5,1
266,-16,-11,1076,-5,-11,-5
267,-44,-11,952,1,7,-3
268,-20,4,1014,-1,-7,-1
269,-16,-4,980,1,9,-1
270,8,-8,1023,1,-3,-1
271,18,3,1029,-1,-1,-5
272,9,10,982,1,5,-5
273,-11,-1,1005,-1,-3,-1
274,-27,-12,991,1,3,5
275,-23,-12,1024,-1,-3,1
276,-16,6,997,1,9,-1
277,1,5,1002,-3,-1,-3
278,5,-2,997,1,1,-1
279,16,-6,1014,-3,-3,-5
280,-8,-4,994,1,3,-1
281,-23,-8,994,3,1,-1
282,-26,-2,1012,3,0,0
283,-8,-4,999,1,0,2
284,-12,-8,1012,-1,-2,2
285,7,3,1002,-1,-3,-4
286,3,3,1011,3,0,0
287,-1,2,971,1,0,2
288,-26,-16,1023,-3,-9,2
289,-15,-11,977,5,2,-2
290,-2,4,1001,-1,-3,-2
291,17,10,1017,-1,-3,0
292,7,19,991,-1,-2,0
293,-3,-11,1030,1,-2,2
294,-17,-16,994,1,0,-2
295,-29,-21,1018,-1,-3,0
296,-36,-10,989,3,6,0
297,-1,-6,1013,-5,-5,2
298,8,5,1007,1,0,0
299,17,9,1007,-1,-5,2
300,5,-7,1010,1,0,2
301,-9,-3,988,1,0,0
302,-22,-17,1010,-3,-2,2
303,-33,-12,988,1,0,0
304,-8,-5,1021,-3,-5,0
305,1,12,1009,-1,-2,2
306,17,7,1001,-1,-2,0
307,5,1,1008,-1,-3,2
308,-3,-8,1012,-3,0,0
309,-9,-12,990,-3,-3,0
310,-8,1,1063,-1,-2,-2
311,-29,-24,896,-1,-5,0
312,-12,25,935,3,10,-6
313,44,4,1068,-1,-7,2
314,35,1,972,-1,2,4
315,19,-1,1018,-1,-7,4
316,-31,-2,971,-1,4,-2
317,-51,-4,1013,-1,-3,2
318,-44,-8,1003,1,6,0
319,-13,0,995,-1,-2,0
320,23,-5,1014,-3,-5,-2
321,28,-2,977,-3,-2,-4
322,18,-2,1013,-1,-3,2
323,-9,-11,996,3,2,2
324,-29,-19,1025,1,0,4
325,-30,-5,988,1,0,2
326,-19,-1,1003,-3,-5,0
327,5,1,1015,1,0,-6
328,19,-1,985,-5,-2,2
329,9,-14,1012,-1,-2,-2
330,-13,-8,996,-1,-2,-2
331,-28,0,1014,-1,-2,4
332,-26,-6,1001,1,-2,2
333,-16,7,1004,-1,-2,2
334,0,-5,1000,1,2,0
335,15,1,1004,1,-2,0
336,10,8,948,-1,-3,0
337,11,-7,1021,-5,-7,0
338,-13,-2,1036,1,4,2
339,-6,-19,1058,-5,-2,2
340,-8,0,963,1,0,-2
341,13,21,980,1,2,-2
342,4,1,1051,1,-7,0
343,-12,-4,959,1,12,2
344,-25,-15,1024,-1,-7,0
345,-37,-8,985,-3,4,2
346,-7,-6,1023,-3,-9,-2
347,-6,5,979,1,2,0
348,8,1,1005,-1,-5,4
349,23,4,1003,3,2,2
350,-5,-7,988,-1,-2,2
351,-13,-16,1012,-3,-3,-2
352,-23,-9,985,1,4,0
353,-17,-8,1016,-1,-5,0
354,2,-4,984,1,2,0
355,9,2,1005,-1,-7,0
356,6,5,998,-1,-3,2
357,-3,-6,1014,-1,-2,-2
358,-19,-8,1008,1,2,2
359,-28,-14,971,-1,-5,-2
360,6,-74,1061,1,-7,-2
361,-13,27,1021,1,4,-2
362,-6,1,936,-1,2,0
363,48,-12,961,-1,-2,4
364,24,2,1017,1,0,2
365,-30,-3,1075,1,0,0
366,-56,1,995,-1,0,2
367,-55,-4,1005,-5,-5,0
368,-33,-6,973,1,4,4
369,9,-2,1015,-1,-5,2
370,33,3,1013,-1,-2,-6
371,33,10,1021,1,0,2
372,2,-5,992,-3,-3,2
373,-28,-6,989,1,0,2
374,-33,-9,1010,-3,-3,0
375,-27,1,998,-3,-2,-2
376,2,2,1000,-3,-7,-2
377,14,2,995,1,2,2
378,19,-15,1008,1,-3,2
379,16,-7,999,3,0,2
380,-16,-3,1001,-1,-5,2
381,-19,3,1007,-1,-2,4
382,-32,1,1001,0,0,4
383,-4,4,1003,0,0,4
384,17,-4,984,-2,-5,2
385,18,-6,994,0,-4,0
386,-4,21,903,-2,0,-2
387,1,-9,1031,0,-5,2
388,-35,3,1057,0,2,2
389,-17,5,1019,-4,-9,0
390,10,1,983,0,4,-2
391,21,5,1015,-2,-9,0
392,4,-6,991,-4,0,2
393,-8,-13,994,-4,-2,2
394,-23,-5,1035,-2,-5,2
395,-35,-9,985,0,2,0
396,-15,-11,1019,-4,-7,0
397,-3,14,981,0,4,4
398,23,7,1031,-4,-7,-2
399,6,-6,1013,0,0,-4
400,-8,-1,1007,-2,-2,-2
401,-17,-16,1001,-2,-2,-2
402,-27,-11,980,-2,-2,2
403,-21,-5,997,-2,-5,4
404,-1,3,1007,-2,-4,2
405,14,1,1011,-4,-5,0
406,15,1,1002,-2,-2,2
407,-1,-6,1013,0,0,-2
408,-6,-8,1004,-4,-4,0
409,-20,0,998,-4,-5,2
410,-26,-28,1066,0,-7,-2
411,-45,28,1025,0,4,-2
412,33,-18,890,-3,4,-5
413,48,6,1001,-1,-2,1
414,19,-1,1008,1,6,3
415,8,-21,1082,-1,-8,-1
416,-44,0,960,-3,10,-3
417,-54,-6,1018,-3,-8,1
418,-50,5,973,1,6,3
419,-3,-5,1015,1,-4,1
420,33,-6,1013,1,2,-1
421,40,-14,997,-1,-4,-5
422,13,-2,1002,3,2,-1
423,-20,-10,993,-1,2,5
424,-45,-1,1016,1,2,1
425,-35,0,988,1,2,1
426,-2,0,1008,-1,0,-5
427,9,9,1005,-1,0,-1
428,20,-5,1016,-3,-2,-1
429,7,-11,997,-1,-2,1
430,-20,-6,1003,-3,2,-3
431,-25,-5,1007,-3,2,-1
432,-22,5,1009,1,4,-3
433,-3,10,1007,1,-2,-1
434,1,-2,1006,-1,2,1
435,21,-9,1005,1,2,-3
436,2,-2,993,1,6,-1
437,-15,0,1013,-1,-2,-1
438,-2,-34,1194,-10,-2,1
439,-51,-4,890,3,0,-1
440,-11,-9,965,3,8,-1
441,24,8,1104,-1,-4,-3
442,26,14,1001,3,12,1
443,8,-5,1047,-1,-8,1
444,-34,-17,951,3,8,-1
445,-38,-17,995,-1,-6,-1
446,-38,-11,998,-1,0,1
447,-16,-3,999,-3,-6,1
448,14,3,1023,-1,-4,-1
449,26,6,998,-1,0,3
450,9,2,1000,-1,-4,-1
451,-13,1,999,-1,4,-5
452,-34,-2,1012,-1,-4,-1
453,-32,-13,994,1,6,3
454,-7,-17,1009,-1,-2,-1
455,15,-2,995,1,4,-1
456,15,4,1009,1,2,-3
457,13,3,1010,1,2,-1
458,3,-4,1003,1,6,-1
459,-18,-7,1008,-1,0,1
460,-23,-5,997,-3,0,-1
461,-25,25,1350,-3,-4,-1
462,22,-48,903,-1,-14,-3
463,30,4,918,1,14,-7
464,55,7,1118,-3,-17,1
465,10,-11,975,1,16,-1
466,2,-10,991,-1,-12,-3
467,-44,-12,948,5,10,1
468,-46,4,1004,-1,-6,-1
469,-19,-4,1027,-3,2,-3
470,18,-8,1000,-1,0,-3
471,22,3,1014,-1,-2,-5
472,22,3,971,3,10,-3
473,1,-3,1012,-1,-8,-5
474,-30,-14,1011,1,4,-1
475,-30,-12,1014,-1,-6,1
476,-20,-8,989,1,2,1
477,9,14,1011,-1,-2,-5
478,21,-2,1017,-3,-4,-3
479,12,-3,996,-3,0,-1
480,-4,-7,1010,1,2,-1
481,-30,-5,1005,1,2,-3
482,-29,-7,1000,-1,0,-5
483,-19,3,996,1,4,-1
484,-2,0,1002,-1,0,3
485,14,-2,1010,-1,-2,-3
486,-26,61,438,1,2,1
487,-18,-34,1148,1,-8,1
488,-16,-16,963,-1,14,-1
489,-1,2,1057,-1,-15,-3
490,-3,18,951,1,18,-5
491,17,1,1012,-1,-10,-1
492,2,-9,967,3,12,-5
493,-16,-12,1016,-1,-6,-3
494,-18,-9,1005,1,2,-1
495,-22,-3,995,-1,0,-3
496,0,-7,1024,-1,-8,-1
497,-1,10,976,1,6,-1
498,20,1,1028,-1,-6,-3
499,3,4,984,1,4,-3
500,-8,-13,1002,-6,-4,-3
501,-17,-7,1001,3,4,1
502,-14,-4,1016,-1,0,1
503,-23,-4,1010,-3,0,1
504,-7,1,998,1,2,-3
505,8,1,1014,-1,-2,-1
506,1,-2,994,1,2,-5
507,-11,-11,1010,-3,-2,1
508,-19,-7,991,-1,2,1
509,-18,-7,996,-1,0,-1
510,-4,-5,995,-1,0,-3
511,0,5,993,-1,-2,1
512,16,-12,922,-3,-2,1
513,38,-12,1083,-3,-12,-1
514,-21,25,1147,1,10,-5
515,-8,-6,1015,-1,-12,-3
516,20,-14,908,-5,12,-1
517,-2,-17,994,-3,-6,1
518,-12,-5,987,-1,0,5
519,-30,1,1008,-1,0,-3
520,-20,5,1029,1,-2,-1
521,-11,-3,966,-5,2,-1
522,-4,-12,999,-1,-6,1
523,9,0,980,1,6,-5
524,6,-3,1029,-1,-6,-1
525,-9,-4,995,3,8,-5
526,-16,-2,1004,-1,-2,1
527,-18,0,991,-1,-2,3
528,-19,2,999,-1,0,-3
529,5,2,1014,-1,-2,1
530,8,-4,999,-3,-2,-1
531,0,-18,1004,-1,0,1
532,-8,-1,999,1,4,-1
533,-15,0,1024,-1,0,-1
534,-19,6,995,-1,-2,1
535,-8,10,1012,1,2,-1
536,-5,-1,1006,1,2,3
537,7,-5,1011,1,2,-3
538,7,-4,1006,-1,-4,-3
539,-15,-9,1001,1,6,-1
540,-17,-5,1060,-5,-8,-3
541,-23,6,994,3,10,3
542,-3,2,1010,-3,0,1
543,13,5,998,1,0,-5
544,7,6,988,1,4,-1
545,4,-5,1036,-3,-8,-1
546,-14,-6,964,1,7,1
547,-12,-19,1036,-1,-6,3
548,-32,-5,972,1,4,1
549,-13,5,1023,-1,-6,-1
550,6,2,992,-3,4,-3
551,7,-4,1010,-1,0,-1
552,11,1,1008,3,2,-1
553,-2,1,993,-1,0,1
554,-17,-6,1008,1,0,-5
555,-20,-5,997,3,6,-1
556,-7,-3,1009,-1,0,-3
557,8,0,994,1,4,-1
558,9,0,1007,-4,-4,-3
559,6,-4,1008,1,2,-5
560,-10,-5,1010,-1,0,1
561,-11,-2,995,1,0,-3
562,-12,-6,995,-3,-2,-1
563,-10,-3,1011,-1,-2,-3
564,64,-36,949,1,-12,-5
565,33,54,1081,3,7,-3
566,41,-21,1081,-3,-20,-5
567,11,22,866,-1,15,5
568,7,-14,957,-3,-6,3
569,-39,-13,1006,3,6,-1
570,-41,3,1029,1,2,-1
571,-29,14,1027,-1,-2,-3
572,-16,14,967,-1,6,3
573,16,-5,1019,-1,-8,3
574,24,-3,969,1,6,-5
575,6,-8,1051,-1,-6,-7
576,-21,-8,998,1,4,1
577,-33,-6,1004,-3,0,7
578,-27,2,1000,3,2,1
579,-13,5,1003,1,2,-5
580,5,12,1011,-1,-2,-5
581,14,0,991,1,4,-1
582,10,-13,1008,0,0,1
583,-19,-21,1004,0,0,1
584,-23,-8,1001,3,4,-1
585,-21,9,1008,1,2,-3
586,-10,13,1000,0,0,-3
587,6,6,1025,3,4,-3
588,15,-4,992,-2,-2,-1
589,7,-8,1004,1,2,-3
590,-12,10,906,1,2,-5
591,7,-9,1038,0,-4,-3
592,-15,13,1065,1,11,-1
593,8,-8,987,0,-14,1
594,19,16,979,1,9,-3
595,15,11,1003,0,-8,-3
596,-2,-2,971,1,6,-1
597,-24,-25,1009,0,-4,-1
598,-26,-19,1008,0,-4,-1
599,-26,-12,999,1,2,-1
600,-4,4,1021,0,-4,1
601,9,17,985,1,4,1
602,22,1,1023,0,0,3
603,1,-2,1013,-2,6,-3
604,-13,-5,997,-2,-4,-1
605,-29,-18,1015,3,2,-5
606,-23,-8,1001,1,2,-3
607,-6,4,999,0,0,3
608,1,-3,984,1,0,1
609,17,7,1002,0,-2,1
610,0,7,989,0,2,-5
611,-21,-9,1005,-2,-4,1
612,-27,-22,990,1,6,3
613,-9,-8,996,-2,-6,1
614,-18,-2,988,0,0,1
615,-79,82,1230,5,4,-3
616,-33,10,772,-6,-12,-1
617,-15,11,949,1,17,-9
618,62,-13,1239,0,-16,1
619,14,-28,951,1,19,3
620,-2,-22,1022,-2,-12,1
621,-34,1,907,1,17,-3
622,-32,4,1009,0,-10,1
623,-9,4,1029,1,4,-1
624,10,10,1001,0,-2,1
625,21,-5,1004,0,-2,-7
626,6,-7,961,1,6,-1
627,1,-10,1012,0,-4,1
628,-17,-9,995,1,4,3
629,-19,-5,1037,0,-4,-1
630,-18,3,976,0,6,1
631,6,4,998,0,0,-3
632,13,11,1004,5,2,1
633,8,-8,1005,0,0,-1
634,-4,-13,1024,3,2,-3
635,-12,-11,989,-2,2,-3
636,-21,-9,1008,0,-4,-3
637,-19,7,1001,1,2,3
638,2,7,1006,-2,-4,1
639,12,-2,1002,-2,-2,-1
640,13,-4,1008,0,0,-3
641,-4,-3,1006,1,2,1
642,-92,3,1225,-8,-6,-3
643,-6,-9,776,1,-6,1
644,-20,0,933,1,13,-3
645,38,13,1176,0,-18,3
646,7,25,965,1,15,-7
647,12,2,1027,0,-10,-5
648,-30,-9,954,1,11,3
649,-36,-26,991,-2,-6,1
650,-37,-24,998,3,2,-3
651,-14,-3,989,3,2,-3
652,16,12,1020,-2,-6,1
653,19,12,965,1,4,1
654,17,0,1017,0,-6,-1
655,-20,-3,993,1,6,-1
656,-24,-20,1019,-2,-2,-3
657,-40,-8,991,0,0,-1
658,-8,-9,1016,0,0,-1
659,11,6,1001,0,0,1
660,19,8,1000,0,0,-3
661,15,17,1027,0,-2,-3
662,-8,-2,985,1,4,-3
663,-29,-18,1017,1,2,1
664,-37,-17,990,1,0,3
665,-21,-9,1005,-2,-4,-1
666,-44,36,1048,0,-8,-5
667,25,-14,980,1,11,1
668,38,18,988,-6,-8,1
669,20,0,973,1,6,3
670,-2,-14,984,1,2,3
671,-28,-18,1034,0,-2,-3
672,-39,-7,995,1,11,-1
673,-37,4,1025,-2,-8,1
674,-9,11,958,1,8,3
675,26,2,1031,0,-12,1
676,28,-3,979,1,6,-3
677,7,-4,1034,-2,-4,-5
678,-17,-8,1003,1,6,-1
679,-30,-9,985,1,2,5
680,-26,1,1021,0,0,5
681,-5,13,1001,2,4,-5
682,20,18,1024,0,-4,-7
683,10,13,991,2,4,-1
684,13,-14,1013,0,-2,7
685,-11,-21,994,2,4,1
686,-21,-17,1011,-2,-2,-3
687,-28,-8,1002,-2,-2,-3
688,-11,7,998,0,-2,-1
689,6,8,1011,0,-2,1
690,25,-5,1010,0,0,1
691,-69,44,1298,-4,-4,-1
692,10,-18,771,0,-6,-5
693,-43,1,1006,2,21,5
694,14,16,1161,2,-10,-1
695,13,3,943,0,13,1
696,10,1,1024,-2,-16,-3
697,-8,6,941,-4,9,-1
698,-22,-20,1015,-2,-8,-1
699,-24,-12,1015,2,4,1
700,-2,-6,1005,0,-2,-3
701,-2,1,1022,2,0,-1
702,10,15,979,2,6,5
703,2,4,1022,0,-4,3
704,-13,0,985,0,6,1
705,-11,-1,1023,-2,-6,-5
706,-18,-2,979,3,6,-1
707,-21,-11,1018,0,0,1
708,-4,-6,1003,0,-2,-1
709,3,-4,998,-2,-4,1
710,10,7,1007,0,0,-3
711,2,4,990,2,2,1
712,1,2,1009,0,-2,-3
713,-3,-13,995,2,2,1
714,-7,-17,1008,0,-2,1
715,6,-98,1270,3,-4,3
716,27,-8,957,-2,2,-1
717,31,27,949,2,9,-1
718,32,0,1087,0,-14,1
719,5,-6,950,3,13,7
720,-21,-19,1090,-2,-14,-1
721,-58,2,931,2,17,1
722,-41,3,1050,-2,-10,-1
723,-22,0,964,2,11,3
724,26,6,1024,0,-8,5
725,34,-8,1039,0,2,-7
726,11,1,985,-2,0,-3
727,-2,-8,1016,0,0,-1
728,-39,-6,983,2,2,3
729,-38,-8,1033,-4,-10,3
730,-19,-7,990,0,-2,-3
731,11,7,1010,-2,-2,-3
732,25,4,979,2,4,-5
733,11,-8,1011,2,-2,1
734,-1,-10,1003,2,4,3
735,-20,-6,995,0,2,-3
736,-29,-8,1015,2,2,-1
737,-25,4,992,2,2,3
738,2,7,999,0,-4,5
739,11,-6,1012,2,2,-3
740,6,-7,996,0,0,-3
741,-7,3,996,-2,0,-7
742,-2,18,1382,-6,-4,1
743,-40,-3,766,2,2,1
744,-11,3,935,0,13,1
745,26,24,1154,0,-14,3
746,10,15,987,2,8,-7
747,17,3,1054,-4,-10,-3
748,-21,-5,913,3,13,-1
749,-32,-25,992,0,-10,-1
750,-36,-16,993,3,8,-5
751,-17,-2,1009,0,-4,-5
752,13,9,1015,2,4,-3
753,20,18,979,2,2,3
754,19,2,999,0,-6,3
755,-10,-9,1005,2,6,-1
756,-20,-9,1012,0,-4,3
757,-24,-6,996,2,6,3
758,-10,-11,1011,0,-2,1
759,1,4,992,2,2,-1
760,8,3,1014,-2,0,-1
761,15,3,1004,0,-4,-1
762,15,-16,838,-2,-2,-3
763,43,-56,1143,-4,-12,1
764,-47,32,1217,2,17,-3
765,-15,12,999,-4,-22,-7
766,31,-5,890,0,17,-3
767,18,-3,991,0,-8,-1
768,-5,5,992,2,6,1
769,-38,1,1029,2,2,-1
770,-37,-3,1038,0,-4,-1
771,-30,0,963,0,8,-1
772,16,-6,975,0,9,-1
773,3,-16,1026,0,-8,-1
774,27,-1,1037,-4,-8,-3
775,-1,6,992,3,9,1
776,-6,3,991,-6,0,1
777,-30,-1,1001,-2,0,-1
778,-24,-14,990,2,2,-3
779,0,-7,1019,0,-4,-3
780,9,-4,978,0,2,-5
781,20,-4,1007,-4,-6,-3
782,10,5,991,1,2,1
783,-17,10,1018,-1,-2,1
784,-25,12,991,-3,0,1
785,-7,10,999,-1,0,-1
786,-4,-8,1016,-1,-2,-3
787,5,-9,1011,-1,2,3
788,14,-13,1007,1,0,-5
789,87,-30,861,-1,-12,3
790,33,25,1183,1,11,-3
791,-15,16,967,-6,-14,-3
792,5,6,921,-1,13,-1
793,15,6,970,1,0,1
794,1,-7,1017,1,4,1
795,-12,-17,1025,-1,0,-5
796,-20,-14,1045,-1,-2,-5
797,-30,-6,965,1,7,-1
798,1,1,1018,-1,-10,1
799,12,14,987,3,4,1
800,24,4,1033,0,-6,2
801,6,-2,996,1,5,-6
802,-8,-7,991,-4,-1,-2
803,-25,-13,988,0,-1,3
804,-17,-2,997,0,-1,2
805,-10,-2,1023,0,-3,0
806,-8,4,998,-2,-1,-2
807,10,12,1007,0,-4,-4
808,-7,-3,996,1,5,2
809,-5,-7,992,-2,-1,0
810,-17,-8,1013,-2,-1,2
811,-8,-2,1001,1,1,0
812,-47,42,862,0,-14,-4
813,-23,-25,897,0,7,-2
814,23,24,948,-4,-6,0
815,40,-6,1016,3,7,2
816,7,-2,1006,-2,5,0
817,-20,-13,1087,1,-10,-2
818,-62,-3,935,1,13,-2
819,-43,-2,1037,0,-16,2
820,-24,1,930,1,13,0
821,30,-3,1043,0,-10,-4
822,32,-4,1001,3,5,0
823,27,-5,1002,0,-3,-2
824,-20,-12,992,0,-1,3
825,-37,-3,992,1,1,5
826,-28,-4,1026,-2,-6,2
827,-15,7,992,1,3,-4
828,14,2,1018,0,-4,-4
829,19,2,982,1,1,0
830,22,-5,996,-2,-3,0
831,-12,-15,1004,0,1,2
832,-21,3,1000,-2,-3,-4
833,-30,15,1010,0,-4,-2
834,-21,12,1007,0,-1,2
835,5,-8,998,1,-3,0
836,11,-4,986,1,3,-2
837,25,-4,999,0,-4,0
838,-8,-6,1009,0,-1,-2
839,-26,-11,1002,0,1,2
840,-26,-6,995,0,-1,2
841,114,-52,661,3,-14,0
842,31,18,1485,1,7,-2
843,11,15,938,0,-20,-2
844,4,0,932,3,15,-2
845,9,3,959,0,-3,3
846,-23,-9,974,3,5,2
847,-30,-22,1032,1,5,2
848,-33,-9,1031,-2,-10,0
849,-7,4,966,1,7,2
850,14,-3,1025,0,-12,-2
851,19,8,961,1,7,0
852,11,5,1043,-2,-8,0
853,-17,-5,1006,1,3,-4
854,-28,-14,1003,1,1,2
855,-25,-19,1009,-4,-3,0
856,-6,-13,992,0,-1,-2
857,13,6,1039,-2,-6,0
858,14,7,989,1,5,0
859,14,3,1017,0,-1,0
860,-6,-2,992,3,3,3
861,-28,-7,1013,1,-1,-2
862,0,-81,1070,3,-3,-2
863,-34,43,894,-2,7,-2
864,-10,-13,869,-2,5,-4
865,60,-14,1060,1,-6,-2
866,14,2,1043,1,7,3
867,-19,-13,1116,0,-8,0
868,-60,9,924,0,15,-2
869,-44,7,1004,-2,-8,5
870,-31,-5,963,1,3,0
871,10,-15,1034,0,-8,-2
872,44,-3,1012,1,3,-2
873,25,0,988,-2,-1,-6
874,-8,-2,1006,-4,-4,2
875,-34,-9,991,1,3,2
876,-36,-9,1034,0,-6,2
877,-25,-13,996,1,3,-2
878,-2,1,1006,0,-3,-4
879,16,3,990,3,3,0
880,27,2,1020,0,-1,2
881,-2,-11,996,-2,-6,0
882,-16,-4,993,0,-1,0
883,-37,-8,998,0,-1,2
884,-24,-7,988,2,-1,2
885,4,-7,1020,2,-2,2
886,13,-4,1001,2,5,-2
887,9,-1,1004,0,-1,-2
888,-1,-9,1003,0,-4,3
889,0,-4,1011,2,5,-2
890,-16,0,1038,0,-12,5
891,1,-4,974,2,9,2
892,6,4,987,2,1,-4
893,-1,4,1019,-2,-2,-2
894,-5,-12,1001,2,1,0
895,-14,-19,1037,0,-4,3
896,-27,-2,970,2,7,-2
897,-7,2,1021,0,-6,-4
898,-8,12,1002,0,9,0
899,9,2,1024,-2,-2,2
900,-2,-7,1009,2,1,2
901,0,-8,995,0,5,-2
902,-15,-12,1001,0,-2,-2
903,-25,0,988,2,5,2
904,-14,2,1009,-4,-6,0
905,-10,0,992,2,3,0
906,9,4,1015,-2,-1,0
907,0,1,995,2,3,0
908,-7,-8,1004,0,-2,0
909,-12,-11,1011,-2,5,2
910,-18,-7,1001,2,3,5
911,-45,49,837,2,-2,0
912,-9,-5,1040,0,-10,-2
913,13,7,989,2,17,-4
914,56,7,1134,0,-20,2
915,29,-11,966,2,19,3
916,-6,-21,996,-2,-16,3
917,-41,-2,978,4,7,-2
918,-61,-5,983,-2,-6,-2
919,-24,7,1045,0,-2,3
920,-2,3,965,2,5,3
921,44,-4,1031,-2,-10,0
922,26,6,966,2,7,-2
923,2,-5,1025,0,-1,0
924,-28,2,995,2,5,2
925,-39,-13,1002,-4,-4,2
926,-28,1,1001,0,-2,0
927,-7,9,988,0,-6,-4
928,23,12,1016,0,-6,-6
929,25,-6,997,2,3,2
930,8,-20,1019,0,-1,3
931,-33,-17,989,2,3,3
932,-25,-4,1017,0,-1,0
933,-30,6,1000,-2,-2,0
934,-5,12,1017,0,-2,2
935,16,0,1003,0,-1,2
936,22,0,1009,0,-1,2
937,9,-8,1011,0,-2,-2
938,-20,1,997,0,-1,2
939,-93,-52,1194,-12,-12,3
940,-44,-15,1016,5,13,-2
941,19,-5,944,2,9,2
942,19,-1,1054,0,-4,-2
943,5,13,952,2,13,-4
944,16,-12,1110,0,-14,2
945,-30,-7,945,2,17,0
946,-29,-16,1036,-4,-12,0
947,-35,-5,962,2,9,0
948,-7,8,1029,-4,-8,-2
949,6,12,1032,0,5,0
950,16,10,990,0,-1,2
951,19,-9,1003,2,1,3
952,-12,-3,977,2,5,2
953,-27,-11,1035,2,1,0
954,-29,-1,981,4,7,5
955,-22,0,1011,0,-8,0
956,-13,5,989,-2,-1,0
957,14,-1,1008,-2,-1,2
958,9,8,1007,-2,-1,-2
959,3,1,989,-2,-2,2
960,-9,-15,999,0,-2,3
961,-23,-6,986,4,3,3
962,-67,47,1276,5,-6,-4
963,-2,-12,810,-4,-8,-4
964,-23,29,877,4,19,2
965,61,-11,1212,2,-20,2
966,24,-23,939,2,21,5
967,0,-17,1080,-4,-16,0
968,-60,6,898,2,19,-2
969,-45,6,1036,-2,-16,0
970,-32,0,1007,2,11,3
971,15,-2,1036,0,-4,-2
972,36,1,1016,2,1,-4
973,17,-7,959,2,5,-2
974,-2,-5,1029,0,-6,0
975,-35,-11,991,2,11,3
976,-30,-9,1021,-2,-8,2
977,-32,5,984,0,5,-2
978,-2,9,999,0,-1,-4
979,26,8,995,-2,-2,0
980,17,-2,995,-2,-2,3
981,2,-14,1010,-2,-4,2
982,-21,-10,982,6,5,0
983,-32,4,1014,-2,-2,0
984,-24,3,979,0,1,0
985,3,1,1003,0,-6,3
986,22,-14,998,2,1,0
987,17,-4,1010,0,-4,0
988,1,-5,995,2,3,-2
989,-40,48,446,0,-1,-2
990,7,-55,1246,2,-8,0
991,-23,30,1040,2,21,0
992,13,11,1019,0,-18,0
993,40,13,966,2,15,0
994,24,6,967,0,-8,0
995,-13,-22,978,4,11,3
996,-39,-11,1002,0,-1,2
997,-39,-17,1027,0,-4,-2
998,-23,6,980,0,3,2
999,6,12,1032,0,-10,0
1000,24,7,978,2,5,2
1001,27,1,1034,0,-8,2
1002,-3,1,1010,4,7,-2
1003,-26,-11,1009,-2,-2,-2
1004,-37,-15,987,0,-1,3
1005,-20,-15,1001,2,3,2
1006,-2,0,1019,0,-2,2
1007,14,7,1006,2,3,-2
1008,18,8,1016,0,-4,-4
1009,4,12,987,2,1,2
1010,-6,-7,1011,2,-1,2
1011,-16,-10,1006,0,-1,2
1012,-23,10,987,0,-1,0
1013,-15,-9,1033,-2,-18,2
1014,15,5,1040,4,17,-2
1015,49,9,1044,-2,-24,-2
1016,23,-19,886,0,21,3
1017,15,-13,1005,0,-4,-2
1018,-43,-7,1020,2,5,0
1019,-47,-1,1025,0,-1,2
1020,-34,2,1023,0,-2,2
1021,-3,4,966,4,5,-2
1022,28,-10,1038,0,-10,-4
1023,20,-8,978,2,7,-4
1024,7,0,1040,0,-8,0
1025,-17,-6,1002,2,1,3
1026,-34,-8,1013,-2,-4,2
1027,-30,0,992,0,-1,3
1028,-15,1,991,0,-1,-4
1029,15,12,1017,-2,-1,-4
1030,21,1,995,2,1,-2
1031,17,-4,1020,0,-6,0
1032,-16,-11,997,0,1,0
1033,-35,-4,1022,0,-4,0
1034,-30,0,999,0,-1,2
1035,-4,-1,1007,-2,-1,2
1036,13,-8,1010,0,-6,0
1037,14,-8,994,2,1,3
1038,10,-7,1012,0,-1,0
1039,-9,-6,997,4,3,0
1040,-12,-91,886,0,-4,0
1041,-80,-20,977,2,-6,0
1042,1,-12,868,-2,15,0
1043,40,1,1095,0,-14,-4
1044,17,13,959,4,9,-2
1045,15,11,1003,-4,-8,0
1046,-19,-13,959,2,11,5
1047,-46,-19,992,-2,-6,2
1048,-35,-12,1005,-2,-4,0
1049,-16,1,1007,0,3,0
1050,16,9,1005,-2,-6,0
1051,21,9,986,2,5,0
1052,19,-4,1015,-2,-4,-2
1053,-12,-7,991,2,5,-2
1054,-32,-14,1019,0,-4,2
1055,-30,-4,994,0,-2,2
1056,-26,0,991,0,-2,0
1057,2,1,996,2,1,-2
1058,24,2,986,-2,-2,-2
1059,22,4,1013,-2,-4,0
1060,-1,29,1151,7,1,2
1061,-39,-17,839,-8,-6,-2
1062,-28,-6,882,2,13,0
1063,16,-4,1158,2,-14,0
1064,16,-3,992,2,15,3
1065,5,-14,1081,0,-14,0
1066,-27,4,920,4,15,2
1067,-33,3,1023,0,-8,-2
1068,-22,-13,971,2,1,0
1069,-9,-13,1008,0,-2,0
1070,13,-16,1024,-2,-4,2
1071,15,-9,956,-4,-1,0
1072,14,0,1019,0,-4,-2
1073,-4,7,985,0,1,0
1074,-27,2,1016,2,-4,0
1075,-25,1,989,2,1,-4
1076,-5,-5,1015,2,-4,0
1077,1,-4,1011,2,3,-2
1078,6,-3,990,0,-1,0
1079,6,-12,1015,0,-4,2
1080,-15,2,994,-2,1,2
1081,-16,-2,1015,0,-1,0
1082,-25,11,1009,-2,3,0
1083,-13,-4,1010,0,-2,0
1084,6,-5,1011,0,-1,0
1085,15,-1,1012,0,-2,2
1086,7,-1,1011,0,1,-2
1087,-13,7,1000,0,-2,2
1088,-7,8,1018,0,-1,2
1089,-20,18,821,2,3,2
1090,3,-13,1072,0,-8,2
1091,-20,1,1069,5,7,2
1092,23,-7,1037,0,-8,-2
1093,34,-3,1002,2,7,3
1094,2,8,973,0,-1,0
1095,-31,5,998,2,1,-2
1096,-36,-16,975,0,-1,3
1097,-23,-7,1029,0,-4,0
1098,-7,-15,974,2,3,2
1099,14,-7,1006,-2,-8,0
1100,21,12,982,2,5,2
1101,3,10,1012,0,-2,0
1102,-9,-5,993,0,-1,0
1103,-19,-8,1003,4,1,0
1104,-18,-6,1011,2,1,2
1105,-12,5,988,0,3,0
1106,-1,-5,1014,0,-2,2
1107,13,8,1008,0,-1,0
1108,4,0,1006,0,-4,0
1109,-15,2,1001,2,5,2
1110,-20,2,1007,0,-4,-2
1111,-23,-8,1000,2,1,-2
1112,-18,-6,1004,-2,-2,2
1113,-11,-2,1195,0,-14,0
1114,9,30,935,2,11,-2
1115,11,7,954,0,11,0
1116,44,18,949,-4,-20,-4
1117,3,-12,975,0,-2,2
1118,-26,-12,1065,-2,-2,0
1119,-49,-6,1001,2,5,-2
1120,-30,-3,1027,0,-12,3
1121,-4,4,952,2,11,3
1122,24,-5,1039,0,-12,0
1123,23,0,986,2,9,-2
1124,17,-3,1041,-4,-4,-2
1125,-15,-5,990,2,3,0
1126,-36,-5,985,0,-2,0
1127,-33,-13,1006,2,1,0
1128,-16,-8,988,2,1,0
1129,14,5,1023,0,-6,-2
1130,13,4,988,2,3,0
1131,-2,-6,1024,0,-2,3
1132,-16,-12,981,2,3,2
1133,-27,-3,996,-4,-2,3
1134,-25,1,1001,0,-1,-2
1135,-2,0,1012,0,-1,-2
1136,4,3,1017,2,-1,-2
1137,18,3,983,2,1,0
1138,-50,23,1220,-6,-14,0
1139,-10,-1,814,4,5,2
1140,-26,2,900,-2,17,2
1141,12,14,1133,2,-12,0
1142,-1,11,986,4,17,-2
1143,5,-6,1062,-2,-12,0
1144,-12,-7,943,2,15,0
1145,-17,-10,999,0,-8,0
1146,-19,1,999,2,1,2
1147,-21,5,1016,0,-1,0
1148,1,6,1019,2,-2,2
1149,7,12,974,2,1,2
1150,14,6,1012,0,-8,-2
1151,-4,-6,1003,2,1,2
1152,-4,-16,1034,-2,-1,0
1153,-21,-4,993,4,5,-4
1154,-19,-11,1002,-2,-4,-2
1155,-4,11,999,0,-1,-2
1156,1,8,995,0,-1,0
1157,8,-5,1015,0,-2,-2
1158,-2,-8,986,0,1,2
1159,0,-12,1007,0,-2,-2
1160,-14,-10,978,0,1,0
1161,-11,-5,1000,-2,-4,2
1162,-9,1,988,2,3,2
1163,-15,-18,796,-8,-2,-2
1164,8,0,1375,4,-4,0
1165,-10,18,911,2,17,0
1166,26,-7,1211,0,-18,2
1167,1,-10,935,2,13,0
1168,-1,-14,1099,-2,-18,2
1169,-50,3,892,2,15,0
1170,-28,10,1012,0,-14,-2
1171,-17,5,991,4,13,2
1172,14,-13,1040,0,-4,-2
1173,19,-15,1024,2,5,0
1174,0,-7,962,0,5,-6
1175,-1,-16,1009,0,-6,3
1176,-26,-2,998,2,9,3
1177,-25,1,1036,0,-8,2
1178,-29,7,971,0,1,2
1179,1,8,1000,-2,-6,-4
1180,7,8,992,2,5,-2
1181,6,-19,991,0,-1,2
1182,-7,-16,1010,2,3,-2
1183,-19,-12,990,2,1,2
1184,-29,4,1012,-2,-1,-2
1185,-21,2,993,2,3,2
1186,-11,3,1015,0,-2,-2
1187,11,-6,1005,0,-1,0
1188,17,-8,1021,4,1,-4
1189,1,-10,998,0,-1,-2
1190,-64,-31,1133,-4,-2,-2
1191,-18,-18,892,0,-1,-2
1192,-35,5,890,2,13,2
1193,10,20,1135,4,-12,2
1194,23,1,975,2,15,-4
1195,12,-2,1048,0,-14,0
1196,-7,-12,967,2,13,2
1197,-39,-14,985,2,-2,0
1198,-28,-12,1003,2,1,2
1199,-21,7,990,0,-1,2
1200,14,11,1033,0,-2,0
1201,12,11,977,2,5,0
1202,-4,-14,990,2,9,0
1203,14,-6,1020,0,-4,2
1204,-21,-17,1025,0,-4,0
1205,-13,6,1005,-2,-2,2
1206,-24,-9,990,2,5,-2
1207,-6,2,1002,0,-2,2
1208,7,8,1011,0,-1,0
1209,7,4,1014,-2,-2,2
1210,-9,0,981,2,3,-2
1211,-14,-7,1019,0,-2,0
1212,-37,19,613,2,1,2
1213,-62,5,1038,0,-16,-4
1214,-18,-13,979,2,25,-2
1215,70,16,1080,0,-24,-2
1216,11,15,952,4,21,3
1217,10,-22,1025,-2,-14,0
1218,-45,-15,970,2,9,2
1219,-55,-5,1010,0,-6,2
1220,-22,-6,1054,0,-4,5
1221,-11,-3,959,2,5,-4
1222,35,1,1034,0,-8,2
1223,30,3,967,0,5,-2
1224,8,-2,1048,-2,-6,-2
1225,-26,-3,990,2,9,3
1226,-38,-15,1020,2,-2,2
1227,-29,-3,996,0,1,3
1228,2,1,993,2,3,-2
1229,19,-2,1012,-4,-1,0
1230,26,6,983,2,1,-2
1231,0,-8,1004,-2,-2,2
1232,-21,-6,994,2,5,0
1233,-29,0,1017,0,-2,0
1234,-34,1,1001,0,1,0
1235,-6,-7,1009,0,-2,2
1236,14,0,1005,2,3,0
1237,22,-16,986,0,-4,2
1238,16,-3,1011,4,1,2
1239,-53,-9,1130,-6,-14,2
1240,-21,-5,946,2,9,2
1241,9,4,981,-2,-2,2
1242,-16,-3,1016,0,-10,2
1243,7,15,974,6,9,0
1244,9,-12,1081,0,-10,0
1245,-13,-8,970,2,11,-2
1246,-19,-21,1046,0,-10,2
1247,-32,-9,953,0,9,2
1248,-15,-3,1010,0,-6,0
1249,6,8,1012,2,7,0
1250,15,11,1001,2,-2,0
1251,15,-3,1021,0,1,-2
1252,1,-8,973,2,5,0
1253,-26,-14,1011,0,-4,0
1254,-26,-7,991,2,1,2
1255,-18,-12,1015,0,-6,0
1256,-7,5,993,-2,-1,2
1257,11,4,1002,-2,-4,-2
1258,6,4,1000,-2,-2,0
1259,-54,120,1279,2,3,2
1260,-44,-25,901,-4,-18,-4
1261,-6,-53,854,4,21,-4
1262,40,-3,1224,0,-26,0
1263,14,-8,914,2,23,5
1264,28,-8,995,0,-18,0
1265,-19,3,918,2,19,2
1266,-36,3,1024,0,-8,2
1267,-22,-9,1043,2,3,2
1268,-2,-6,972,2,3,2
1269,11,-16,1016,-2,-10,-2
1270,5,-4,937,2,7,-4
1271,10,4,1036,-2,-8,2
1272,-15,9,987,2,7,-2
1273,-18,-5,1032,0,-6,3
1274,-16,-3,989,4,3,-2
1275,-10,-9,999,-4,-4,0
1276,0,-8,1012,0,-2,0
1277,8,-7,987,-4,-1,0
1278,-6,-4,1031,0,-1,-2
1279,-8,-3,992,2,5,0
1280,-18,8,1024,0,-2,0
1281,-13,0,1001,2,3,-4
1282,-12,-6,999,0,-4,0
1283,-2,-5,1003,2,-1,0
1284,2,-16,1000,-2,-4,0
1285,3,-2,1006,0,-2,0
1286,8,8,836,0,1,0
1287,19,18,1176,4,-8,2
1288,-64,36,1200,4,19,2
1289,8,3,994,-2,-22,0
1290,22,-2,950,2,19,2
1291,7,10,973,0,-6,0
1292,-15,-9,964,0,1,2
1293,-30,-12,1024,-2,-2,2
1294,-17,-11,1042,0,-8,0
1295,-14,0,964,2,7,0
1296,5,2,1022,0,-12,3
1297,-2,7,963,2,5,0
1298,18,3,1044,0,-4,0
1299,-9,-12,985,2,7,-2
1300,-12,-10,1001,-2,-2,2
1301,-26,-5,1000,0,-1,2
1302,-25,2,1009,0,1,2
1303,-7,-3,1025,0,-2,-2
1304,-2,4,996,2,3,0
1305,14,6,1007,-2,-2,2
1306,6,-10,991,2,3,-4
1307,-12,-13,1017,0,-1,2
1308,-12,0,993,0,3,3
1309,-85,117,998,2,-2,2
1310,-63,-29,801,-4,-12,0
1311,-3,16,937,2,17,-4
1312,56,15,1205,0,-24,0
1313,16,-8,911,2,21,3
1314,0,-13,1034,0,-22,2
1315,-44,1,940,2,17,0
1316,-46,5,1017,0,-8,-2
1317,-29,-3,1021,2,3,2
1318,-6,-2,1005,0,-4,3
1319,22,1,1034,0,-6,0
1320,19,2,957,0,5,-6
1321,-3,-9,1021,2,-8,-2
1322,-24,0,998,2,7,0
1323,-29,-7,1025,0,-4,3
1324,-27,-7,980,2,3,0
1325,1,1,998,0,-4,-4
1326,17,10,1004,0,-1,0
1327,23,1,993,-2,-1,0
1328,-3,-7,1017,-2,-2,2
1329,-21,-6,975,0,-1,3
1330,-24,-10,1025,2,-1,2
1331,-21,3,996,0,1,3
1332,-8,6,1000,0,-2,0
1333,11,5,1018,2,1,2
1334,19,-8,983,0,1,0
1335,22,-7,939,2,-10,2
1336,10,1,1178,2,15,2
1337,-26,6,1022,0,-22,2
1338,1,7,935,0,15,2
1339,9,-5,947,0,-8,0
1340,-10,0,993,0,-2,-2
1341,-13,-18,1013,2,3,-4
1342,-16,-11,1037,0,-6,2
1343,-12,-8,961,2,5,3
1344,2,-6,1033,0,-6,2
1345,-7,7,955,4,9,0
1346,-4,7,1040,0,-4,-4
1347,-13,4,995,2,3,0
1348,-4,-6,991,0,-2,3
1349,-13,-19,995,4,3,2
1350,-19,-9,981,6,3,0
1351,-3,2,1015,0,-6,-2
1352,1,-1,997,2,5,2
1353,-7,0,1012,0,-1,0
1354,-12,-4,986,7,3,0
1355,1,-15,1011,0,-2,0
1356,-16,-8,1004,2,1,2
1357,-75,68,1669,6,1,0
1358,-69,-4,676,-8,-6,2
1359,-9,2,749,2,19,0
1360,23,13,1251,0,-16,2
1361,-6,0,967,2,17,2
1362,9,-14,1035,-2,-18,2
1363,-38,-4,932,4,17,0
1364,-40,-15,1013,0,-14,0
1365,-26,-7,1007,2,5,2
1366,4,12,1030,-2,-4,2
1367,23,1,1031,0,-1,-4
1368,4,-3,956,2,3,-4
1369,1,-6,1022,-2,-6,0
1370,-27,-6,982,2,7,2
1371,-25,-16,1026,-2,-8,2
1372,-20,-6,984,0,1,0
1373,-5,-7,1014,0,-6,3
1374,3,3,1008,4,1,2
1375,14,4,1005,0,-2,2
1376,8,-4,1019,0,-1,2
1377,-17,-3,980,2,7,0
1378,-17,-3,1024,0,-1,2
1379,-28,-2,998,2,3,-2
1380,-4,1,1021,0,-2,3
1381,3,8,1000,2,3,2
1382,7,-1,1005,2,-1,0
1383,2,1,999,2,-1,0
1384,-21,-4,986,2,5,0
1385,-50,-9,1523,-10,-10,0
1386,-34,-23,818,0,-1,3
1387,-38,8,847,2,23,2
1388,56,14,1154,2,-12,-4
1389,15,12,976,2,17,2
1390,4,-6,1079,0,-8,0
1391,-27,-12,926,2,11,0
1392,-36,-19,972,0,-14,0
1393,-35,-13,995,2,1,2
1394,-10,4,1018,2,-1,-2
1395,18,11,1042,0,-3,0
1396,15,15,981,2,3,-2
1397,5,-3,1007,-2,-4,-2
1398,-16,-7,991,0,7,2
1399,-23,-12,1030,-2,-6,2
1400,-30,-12,987,2,5,0
1401,-12,1,1001,0,-3,0
1402,10,5,1006,0,-3,2
1403,17,6,1006,0,-3,-2
1404,1,0,1024,0,-3,0
1405,-19,-5,998,2,3,-2
1406,-26,-11,1005,0,-3,0
1407,73,-94,1015,-4,-18,2
1408,16,55,1017,2,13,-2
1409,8,-4,1028,0,-22,2
1410,38,-2,854,-2,15,3
1411,19,8,969,0,-8,0
1412,-27,-4,1048,0,5,0
1413,-49,2,1028,2,7,-4
1414,-46,-4,1040,0,-8,0
1415,-23,-1,942,2,7,0
1416,22,-10,1012,-2,-16,0
1417,24,5,969,2,9,2
1418,14,13,1063,-2,-6,-4
1419,-17,-2,995,2,5,0
1420,-28,-14,1001,0,-6,5
1421,-24,-7,995,0,-3,3
1422,-21,-4,993,2,-1,0
1423,17,6,1020,0,-4,0
1424,23,9,986,-2,-1,0
1425,15,8,1021,0,-4,3
1426,-9,-3,993,3,3,3
1427,-22,0,1012,0,-1,-2
1428,-32,-4,1003,0,3,2
1429,-12,-4,1013,0,-3,0
1430,0,2,1011,0,-3,2
1431,12,0,998,0,-1,2
1432,8,-3,1001,0,-4,-2
1433,-4,-2,1004,2,1,-2
1434,-54,8,1179,-10,-20,-2
1435,-30,-14,967,3,15,3
1436,13,-6,1037,-4,-8,0
1437,13,-3,959,0,-1,0
1438,13,15,988,2,5,0
1439,8,-7,1078,2,-10,0
1440,-34,-9,960,2,15,0
1441,-27,-15,1041,-6,-6,0
1442,-35,-1,952,2,9,2
1443,10,7,1024,0,-10,2
1444,22,1,985,0,3,0
1445,27,13,1017,0,-1,2
1446,1,-4,1022,0,-1,-2
1447,-28,-11,971,3,1,0
1448,-26,-8,1030,-2,-12,-2
1449,-20,-6,1007,-2,-1,3
1450,-4,-2,1018,0,-4,3
1451,8,3,991,0,-1,2
1452,24,5,1014,-2,-8,2
1453,5,6,988,2,-1,0
1454,-51,6,1049,2,-8,0
1455,-25,-27,999,2,7,-2
1456,-17,-7,1007,0,-10,2
1457,29,-9,1006,2,5,3
1458,4,1,964,0,-3,5
1459,7,-9,1045,2,-6,0
1460,-30,5,984,0,7,2
1461,-37,3,1030,0,-8,0
1462,-36,-4,952,2,13,2
1463,2,-4,1029,2,-6,-6
1464,19,-4,987,2,1,-2
1465,18,0,1028,0,-8,-2
1466,0,4,1020,0,-3,0
1467,-20,-9,977,2,3,3
1468,-24,-5,1019,0,-4,3
1469,-26,1,985,2,3,2
1470,-9,-7,1011,0,-4,0
1471,2,-5,1000,0,1,-2
1472,14,-5,1012,-2,-4,2
1473,7,-1,1006,2,1,-2
1474,-10,0,1004,0,-3,2
1475,-19,-1,1002,2,1,0
1476,-32,-1,985,-2,-3,0
1477,-11,-3,995,-2,-3,0
1478,-1,-3,1002,2,3,0
1479,9,-4,1004,0,-4,-4
1480,10,2,999,0,-4,2
1481,-20,0,1012,0,-1,0
1482,-24,-5,1006,-2,-2,0
1483,10,-104,1010,-6,-4,-4
1484,-43,-28,985,2,-8,-2
1485,-4,-11,900,2,15,-2
1486,28,10,1119,2,-16,2
1487,26,-4,962,2,17,2
1488,-2,6,1012,0,-12,0
1489,-30,-5,974,2,11,2
1490,-34,-12,999,2,-1,0
1491,-29,-17,1021,0,-1,-2
1492,2,-8,990,2,3,2
1493,21,8,1030,-2,-4,-2
1494,18,14,973,2,7,-2
1495,3,-3,1033,0,-4,2
1496,-20,-8,979,0,7,-2
1497,-33,-16,1031,4,-2,0
1498,-27,-12,985,0,3,2
1499,-5,-5,1001,0,-4,0
1500,5,1,1005,4,-1,2
1501,14,2,993,2,1,3
1502,-2,-8,1008,0,-2,0
1503,-10,8,990,0,3,0
1504,-19,-8,1016,-4,-1,0
1505,-16,1,1002,0,-1,2
1506,-37,-15,992,-3,-10,-1
1507,15,-10,1003,1,13,-3
1508,10,12,1014,-1,-8,-4
1509,41,26,944,1,7,1
1510,9,-5,961,1,3,1
1511,-28,-11,1048,-1,-6,-1
1512,-45,-8,1019,-1,5,-1
1513,-36,4,1025,-5,-6,1
1514,-16,-7,963,-1,7,1
1515,19,1,1025,-1,-10,1
1516,20,6,987,-3,-1,1
1517,12,2,1029,-1,-4,-1
1518,-16,-9,1002,-1,1,-1
1519,-33,-7,986,-1,-3,1
1520,-31,-11,1012,-1,-4,3
1521,-7,-15,1001,1,5,1
1522,5,7,1014,-1,-6,-1
1523,23,5,981,1,3,-3
1524,11,8,996,-1,-3,-1
1525,-2,-3,1003,1,1,1
1526,-27,-12,1013,-3,-1,1
1527,-27,2,1006,-1,-3,-1
1528,-13,-6,990,-1,-1,-3
1529,-6,-5,994,-3,-3,-3
1530,16,5,997,-3,-1,1
1531,5,-2,1007,-1,-4,1
1532,-42,70,442,3,1,-1
1533,-12,-26,1131,-1,-8,-1
1534,-12,3,1013,1,13,1
1535,1,11,1082,-1,-14,1
1536,17,1,939,1,15,1
1537,23,11,950,-1,-4,-3
1538,-1,7,973,3,7,-3
1539,-36,-14,994,-3,-3,3
1540,-33,-22,1026,-1,-1,-1
1541,-32,-13,991,1,3,-1
1542,-6,6,1005,-1,-4,-1
1543,31,5,983,1,5,-1
1544,21,-1,1020,-1,-4,-3
1545,-3,6,1002,-3,3,-3
1546,-13,-16,1019,-3,-3,-3
1547,-27,-16,994,-3,-1,-3
1548,-13,-7,1007,-3,-1,-4
1549,0,-2,1020,-1,-1,-3
1550,11,8,1013,-1,-4,-1
1551,7,5,1014,-1,-3,-1
1552,0,-2,1001,1,1,-1
1553,-9,6,1018,-3,-6,-1
1554,-20,-6,1005,-1,-1,-1
1555,-66,-8,1105,3,-8,1
1556,-33,1,976,1,1,1
1557,34,-13,915,1,1,-3
1558,34,-5,1017,-1,-6,-1
1559,26,4,1008,1,5,1
1560,5,-15,1098,-1,-16,-1
1561,-49,8,932,1,19,-3
1562,-46,-1,1044,-1,-14,-4
1563,-38,-8,950,1,9,-1
1564,17,-5,1031,-1,-8,-3
1565,31,-7,1029,1,5,-3
1566,22,7,987,-1,-1,-1
1567,1,0,1001,-1,-3,-1
1568,-31,-3,973,1,1,3
1569,-39,-11,1032,-1,-4,1
1570,-27,-5,989,1,5,-3
1571,0,-9,1016,1,-4,-4
1572,12,12,998,1,5,-3
1573,30,-4,1019,-1,-3,1
1574,7,0,1009,1,1,3
1575,-24,-1,989,-3,-3,-1
1576,-20,3,997,1,1,-1
1577,-26,-4,995,-3,-1,-1
1578,-4,-3,1017,-1,-4,-3
1579,5,-4,1009,-3,-1,1
1580,25,2,986,3,-3,3
1581,-1,2,990,1,1,-1
1582,-23,-1,1001,-1,-1,-1
1583,-77,27,1447,-5,-12,-3
1584,-34,8,659,-1,-1,1
1585,-25,-1,982,1,13,-3
1586,31,23,1151,1,-14,3
1587,20,19,938,1,15,-1
1588,15,-3,1066,-3,-16,-3
1589,-34,-12,946,1,13,-1
1590,-39,-13,1001,-1,-8,-1
1591,-32,-5,1003,1,3,3
1592,-15,5,1004,-1,-1,-4
1593,21,0,1034,-1,-3,-1
1594,26,14,980,1,3,1
1595,14,3,1004,-1,-4,-3
1596,-16,-2,980,1,7,-4
1597,-35,-7,1018,-1,-6,3
1598,-38,-16,987,1,3,-1
1599,-18,-9,1018,-1,-1,1
1600,16,-4,1008,-1,-3,-1
1601,24,-1,994,-3,-3,-3
1602,14,-1,1009,-5,-3,-3
1603,4,1,993,-1,3,1
1604,-6,-14,1010,-1,-1,1
1605,-26,15,1093,-1,-18,-3
1606,41,-91,1072,7,9,-4
1607,41,18,1087,-9,-28,-3
1608,20,10,893,-3,17,1
1609,28,-2,961,-1,-6,3
1610,-23,-6,1049,1,1,3
1611,-47,-1,1058,-5,-1,-1
1612,-43,-3,1046,-1,-6,-3
1613,-26,-6,934,1,5,-1
1614,25,-18,1011,-3,-10,-1
1615,25,-3,991,1,3,-1
1616,16,8,1049,-1,-6,-3
1617,-9,2,999,3,5,1
1618,-35,-2,984,-1,-1,1
1619,-34,-15,1014,-1,-1,3
1620,-31,-4,1002,1,-3,-4
1621,14,-8,1023,-1,-3,-1
1622,13,-2,1000,-1,1,-3
1623,11,-9,1016,-1,-1,1
1624,-6,-13,994,1,7,3
1625,-12,0,1003,-3,-3,1
1626,-24,-2,998,-3,-3,-4
1627,-25,4,988,-1,1,-3
1628,-2,-6,1012,-1,-3,-1
1629,16,-1,1008,-3,-1,-1
1630,73,-82,961,-11,-12,1
1631,-21,24,966,1,5,1
1632,-20,-4,882,-1,9,-3
1633,5,16,1075,-1,-6,-1
1634,-16,-3,998,3,15,-3
1635,11,-10,1100,-3,-14,-3
1636,-11,-13,933,2,14,-2
1637,-6,-21,1008,-2,-18,0
1638,-19,-12,965,2,10,-2
1639,-9,-1,1042,0,-6,0
1640,-6,6,1039,2,6,2
1641,7,6,982,0,2,2
1642,7,1,1003,0,0,-4
1643,2,-4,990,2,2,2
1644,-6,-18,1022,0,-4,-4
1645,-13,-5,983,2,4,-2
1646,-20,-4,1000,-2,-6,2
1647,-6,4,995,0,2,-2
1648,-13,6,1006,0,-4,5
1649,1,-4,1007,2,8,0
1650,-3,-8,1011,0,0,-2
1651,-12,-12,1016,0,-2,-2
1652,-14,-12,997,2,2,2
1653,-21,0,1007,0,-2,2
1654,-169,103,1645,7,6,0
1655,-29,-34,697,-4,-8,0
1656,-30,5,825,2,19,-4
1657,50,-4,1209,0,-20,0
1658,7,-25,945,2,14,2
1659,8,-31,1040,0,-18,5
1660,-36,7,924,2,15,0
1661,-35,17,1016,2,-8,0
1662,-7,14,1002,2,8,2
1663,14,0,1021,-4,0,0
1664,26,-19,1042,-4,-2,-2
1665,6,-13,949,2,6,-4
1666,-16,-12,1010,0,-10,-2
1667,-30,-3,1004,2,4,3
1668,-36,2,1023,-2,-10,3
1669,-12,6,992,2,2,0
1670,2,5,995,0,-2,-4
1671,17,-1,997,0,-2,0
1672,9,-6,1007,2,0,0
1673,0,-15,1031,-2,-2,5
1674,-21,-8,983,2,6,3
1675,-14,14,1007,-2,-2,-2
1676,-18,12,996,0,2,-2
1677,-3,5,1010,-2,-8,2
1678,4,-13,916,0,-12,-2
1679,37,3,994,2,14,0
1680,6,-6,1030,0,-18,0
1681,-16,6,914,2,14,0
1682,-4,2,1005,0,-2,2
1683,-9,-4,1013,0,0,0
1684,-12,-14,1024,2,4,0
1685,-15,-10,1040,0,-6,-2
1686,-4,-5,972,2,4,-2
1687,13,-6,1017,0,-6,2
1688,7,7,967,2,10,0
1689,-1,12,1033,0,-4,2
1690,-10,3,995,2,2,0
1691,-11,-2,1003,4,2,0
1692,-15,-13,1004,-4,0,2
1693,-9,-12,991,2,2,-4
1694,-18,-4,1013,-2,-6,-2
1695,2,2,994,0,2,0
1696,-6,5,1008,2,-2,2
1697,-7,-2,1010,-4,0,0
1698,-3,3,1000,0,0,0
1699,-16,-48,876,5,2,-2
1700,7,5,984,0,-10,0
1701,-11,-6,1073,2,14,-2
1702,18,-6,1143,-1,-21,1
1703,20,-7,924,1,18,5
1704,9,-3,999,-1,-10,3
1705,-35,-5,965,-3,8,1
1706,-32,0,1003,-1,-2,-3
1707,-20,-3,1042,-1,-2,-1
1708,-7,-14,967,-1,0,-1
1709,23,-13,1016,-1,-8,-1
1710,19,9,964,1,6,-3
1711,11,8,1037,-1,-8,-3
1712,-24,0,1004,1,6,1
1713,-28,-3,1013,-3,-2,1
1714,-25,-9,987,-1,2,-3
1715,-17,-1,1004,1,2,-6
1716,14,-5,1013,-1,-2,-5
1717,7,4,995,-1,-4,-1
1718,4,-1,1030,-3,-4,3
1719,-17,4,995,-1,0,3
1720,-20,2,1011,-5,-2,1
1721,-26,-4,1012,1,2,1
1722,-11,1,1010,-1,-4,5
1723,8,-5,1008,-1,0,-1
1724,-5,26,853,1,2,-3
1725,47,10,996,5,-11,-1
1726,-25,30,1276,3,12,-5
1727,-16,12,983,-1,-19,1
1728,-11,-7,934,1,14,1
1729,-13,1,985,-3,-10,1
1730,-12,-12,968,1,4,-1
1731,2,-15,1034,-1,0,-1
1732,-4,-13,1036,-1,-4,1
1733,-10,1,975,1,2,-1
1734,0,0,1023,-1,-8,1
1735,-9,1,966,3,8,-1
1736,-4,1,1055,-3,-8,-5
1737,-13,-3,994,1,6,-5
1738,-9,-15,1019,-1,-2,-1
1739,-6,-19,991,3,6,-1
1740,-11,-7,995,-1,0,-3
1741,-11,13,1000,-3,0,1
1742,2,-1,1011,-1,-2,-1
1743,-9,5,1011,-1,-4,1
1744,-6,-11,990,-1,2,1
1745,-6,-14,1000,-1,2,-3
1746,-3,-12,987,-3,0,3
1747,-3,-7,1007,-3,-2,1
1748,-8,1,1003,-1,0,3
1749,0,5,1014,-1,-2,-3
1750,-16,-73,1075,11,2,-1
1751,5,32,820,-5,8,-1
1752,-25,0,876,-3,6,-3
1753,23,-17,1079,-1,-10,-1
1754,-3,7,1038,1,8,1
1755,-1,-12,1129,-3,-15,3
1756,-38,7,905,-1,16,-1
1757,-11,12,1030,-1,-11,-1
1758,-12,11,961,3,10,1
1759,13,-7,1050,-1,-10,-1
1760,17,-17,1012,1,2,-5
1761,7,-6,974,-1,0,-3
1762,-10,-2,1002,1,2,-3
1763,-15,3,986,1,8,1
1764,-15,-2,1040,-1,-6,-1
1765,-13,0,979,1,4,-1
1766,8,0,1007,1,0,-3
1767,5,-7,980,1,2,-1
1768,16,-7,1004,-1,-4,-3
1769,-5,-16,1006,-1,0,3
1770,-12,2,1006,1,4,-1
1771,-20,11,1005,1,2,1
1772,23,17,719,1,2,1
1773,67,27,1210,1,-15,1
1774,-67,28,1212,1,14,-3
1775,28,3,1071,-1,-15,3
1776,30,6,938,1,18,-5
1777,-12,9,972,-3,-6,-1
1778,-19,3,962,1,10,-1
1779,-31,2,998,-3,-4,-3
1780,-9,-5,1054,-3,-8,-1
1781,-7,-4,979,1,6,-3
1782,1,-6,1014,-1,-12,-3
1783,10,2,958,-1,8,-1
1784,7,0,1033,-1,-8,-3
1785,-10,-6,984,-1,6,-1
1786,-15,-12,1016,-3,-8,3
1787,-14,-1,992,1,6,-1
1788,-13,-1,989,1,2,-3
1789,-3,-11,1016,-1,-2,-1
1790,2,-4,1001,-3,0,1
1791,2,0,1017,-1,-2,-3
1792,-8,4,989,1,4,-1
1793,-12,-7,1005,-1,-2,-1
1794,-18,-3,1011,1,0,3
1795,-6,-3,994,-5,-2,1
1796,-95,-4,1680,5,6,-3
1797,-26,-28,727,-7,-6,1
1798,-27,2,817,1,20,-1
1799,41,4,1224,-1,-15,-3
1800,9,-12,937,1,14,1
1801,6,-14,1052,-1,-17,-1
1802,-30,-1,926,3,18,-3
1803,-43,-4,1016,-5,-10,-1
1804,-19,-1,1004,1,6,-3
1805,5,1,1010,-1,-2,-1
1806,16,-5,1034,-1,-2,1
1807,14,2,942,3,10,-3
1808,-4,2,1010,-1,-8,1
1809,-26,-3,987,1,8,5
1810,-21,0,1021,-1,-4,3
1811,-14,5,974,-1,4,-1
1812,7,8,999,-5,-2,-3
1813,14,-2,1005,1,2,-3
1814,1,4,1002,-1,0,-1
1815,-8,-11,1017,-1,-2,3
1816,-18,-3,987,1,4,3
1817,-11,-11,1019,-3,-4,-3
1818,-14,5,992,-1,4,-1
1819,-10,-4,1020,1,-2,-3
1820,10,-8,1002,-1,0,-1
1821,7,-6,1007,-3,-2,-1
1822,-2,1,1019,-1,0,-3
1823,7,-23,923,-1,-8,-1
1824,19,5,1011,1,4,1
1825,0,-5,1012,-7,-15,1
1826,-4,1,963,-1,8,-1
1827,12,-4,967,1,2,-1
1828,0,-5,1028,-3,-4,-3
1829,-10,-1,1005,1,6,-3
1830,-9,-14,1035,-1,-8,-1
1831,-20,-7,983,1,8,-3
1832,-2,7,1010,-1,-4,3
1833,-1,5,989,-3,0,1
1834,-4,6,1029,-1,-2,1
1835,8,-14,1002,-1,0,-1
1836,-12,-14,996,1,2,3
1837,-5,-6,1006,-1,-2,-1
1838,-14,-3,989,-1,0,-3
1839,-6,3,1014,-1,0,-1
1840,-4,4,993,-3,0,-1
1841,6,4,1018,-1,-2,3
1842,-4,-3,1001,5,4,-1
1843,-11,-8,1005,1,2,-3
1844,-13,-2,1006,-1,0,1
1845,-11,-7,999,1,2,1
1846,-16,24,1192,7,-2,-1
1847,-42,36,872,1,12,-5
1848,-21,4,888,-1,2,-3
1849,36,2,1056,-1,-2,3
1850,-8,-17,1097,-3,-12,3
1851,9,1,1021,1,2,1
1852,-42,-2,925,1,14,-5
1853,-26,1,1016,-3,-12,1
1854,-24,2,966,3,14,-3
1855,17,-5,1039,-1,-10,-3
1856,27,3,1007,1,8,-5
1857,6,2,992,-1,0,-5
1858,-6,-7,992,-1,0,-1
1859,-26,-3,980,-1,4,-1
1860,-29,-5,1022,-1,0,3
1861,-24,-3,994,1,8,-6
1862,0,3,1017,-1,-6,-3
1863,17,0,985,-3,0,-5
1864,11,-10,993,-1,-5,0
1865,0,-11,1006,-1,-1,-2
1866,-18,-12,990,-3,-1,4
1867,-31,-5,1001,-1,-3,2
1868,-25,6,1000,3,3,-2
1869,6,7,1011,-3,-3,2
1870,-68,-93,1273,-7,1,2
1871,-4,-30,880,1,-13,-2
1872,-7,-6,877,3,16,0
1873,13,4,1139,-1,-7,2
1874,-4,15,979,3,13,4
1875,-2,-2,1011,-1,-9,2
1876,-23,-8,949,1,15,-2
1877,-23,-8,986,-1,-7,-2
1878,-1,-15,1027,-1,-3,-2
1879,1,-3,989,-1,-1,0
1880,2,5,1019,-5,-5,2
1881,-4,7,971,1,1,4
1882,-4,-8,1020,-3,-11,2
1883,-20,-2,991,1,3,-2
1884,-9,-8,1011,-1,-5,4
1885,-6,-13,992,-1,-1,-2
1886,1,2,1010,-3,-5,2
1887,-4,-2,1009,5,1,-2
1888,9,3,992,-1,1,0
1889,-1,-5,1006,-1,-3,2
1890,10,-58,1174,5,-1,-2
1891,-38,5,840,-1,-1,0
1892,-22,1,874,-1,13,-2
1893,48,-4,1097,1,-11,0
1894,9,1,996,1,11,4
1895,7,-2,1140,-5,-15,6
1896,-43,2,920,1,18,2
1897,-34,-9,1011,-1,-9,-2
1898,-27,1,974,3,3,0
1899,4,-12,1027,1,-3,-4
1900,24,-12,1033,-1,-3,0
1901,17,-2,965,1,3,0
1902,2,-6,1005,-3,-5,0
1903,-18,11,990,1,5,2
1904,-25,-2,1036,-1,-1,4
1905,-27,-3,992,1,5,6
1906,-7,-9,1003,-1,-7,-4
1907,13,-3,993,1,3,0
1908,21,-2,1006,1,3,2
1909,6,-2,996,-3,-1,0
1910,-19,1,1013,1,1,0
1911,-29,5,1016,-1,-1,0
1912,-26,-6,1010,-1,-1,0
1913,-8,-4,1013,-3,-3,-2
1914,14,-5,1002,-1,-3,0
1915,17,-10,1001,-1,1,-4
1916,-7,-50,1294,-9,-3,0
1917,-34,-15,825,-1,-7,0
1918,-35,13,889,1,9,0
1919,16,-3,1166,3,-9,2
1920,13,10,956,1,11,-2
1921,14,-3,1028,-5,-7,-4
1922,-6,-8,950,1,11,-4
1923,-22,-15,987,-3,-7,0
1924,-19,-20,1017,1,3,4
1925,-9,2,1010,-1,-3,0
1926,-8,2,1017,-1,-5,-2
1927,-12,15,983,1,3,-2
1928,10,1,1016,-1,-7,-4
1929,-6,-17,1004,-3,-3,-2
1930,-7,-17,1015,-1,-5,-2
1931,-21,-9,1002,3,3,-2
1932,-20,-4,1003,-1,-3,-2
1933,-10,3,985,1,3,2
1934,6,6,997,-1,-3,-4
1935,8,12,1014,-1,-3,-4
1936,2,-4,995,-1,-1,-6
1937,-8,-16,1107,3,-1,-4
1938,-33,21,893,-3,3,2
1939,-33,-8,920,1,11,2
1940,7,3,947,1,15,2
1941,17,-8,1098,-1,-13,4
1942,11,-12,1103,-3,-21,4
1943,-31,5,907,1,16,-4
1944,-18,2,1052,-3,-17,4
1945,-23,4,953,3,13,2
1946,-1,0,1023,-1,-17,2
1947,17,-8,1008,1,7,0
1948,7,-7,984,1,1,-2
1949,2,3,1015,-3,-5,-2
1950,-24,-5,980,3,7,0
1951,-20,0,1048,-1,-11,-4
1952,-19,1,975,1,5,-2
1953,-11,7,1022,-1,-7,-2
1954,-2,-4,999,3,3,-2
1955,10,3,1013,-3,-3,0
1956,5,1,1019,-3,-3,0
1957,-9,-4,998,-1,-3,2
1958,-15,-2,1005,1,3,0
1959,-24,-4,988,1,5,2
1960,-8,-4,1008,-3,-7,0
1961,-5,-15,1002,-3,-1,0
1962,2,-4,1015,-1,-5,-4
1963,54,-24,862,-1,-7,0
1964,12,10,1099,3,9,-2
1965,-25,10,1054,-3,-21,2
1966,-8,-15,933,1,15,0
1967,2,-5,972,-1,-3,2
1968,-19,-14,989,1,1,-2
1969,-18,-8,1036,5,3,-2
1970,-10,-22,1048,-1,-5,0
1971,-8,1,962,1,7,2
1972,3,10,1022,-1,-11,0
1973,-3,16,975,1,7,-2
1974,-1,12,1043,1,-5,4
1975,-14,-3,1005,-1,3,-2
1976,-8,-13,1002,-1,-1,0
1977,-9,-3,1002,-3,-3,0
1978,-11,-4,994,-1,-1,0
1979,-4,1,1013,-1,-1,-2
1980,-1,2,986,1,1,0
1981,-3,6,1011,-1,-3,0
1982,0,-1,993,-3,-3,-2
1983,-7,-12,1003,-1,-1,2
1984,0,-4,1011,-1,3,4
1985,-9,-6,988,1,5,-2
1986,-16,-78,966,-1,-5,0
1987,-19,50,1005,-3,-1,0
1988,5,-9,872,-1,1,0
1989,40,-4,990,-1,-5,2
1990,6,0,1025,-1,5,0
1991,-11,-20,1095,-1,-11,0
1992,-40,10,936,3,15,-2
1993,-22,2,1039,-3,-9,-4
1994,-22,2,966,1,13,0
1995,16,1,1044,-1,-11,2
1996,22,5,1022,-1,1,0
1997,8,1,1000,-1,-1,0
1998,-1,-11,1004,-1,-1,-4
1999,-25,-12,978,1,1,6
2000,-28,-8,1032,-1,-5,7
2001,-16,-3,984,1,3,0
2002,-3,-2,1025,-3,-3,0
2003,4,2,996,1,5,-4
2004,11,-12,1002,-1,-3,2
2005,4,-15,1005,1,3,2
2006,-18,-14,1010,5,-1,2
2007,-21,0,1014,-1,-1,0
2008,-25,3,995,-1,-1,0
2009,-9,2,1016,-3,-3,2
2010,-51,15,1452,-13,-1,0
2011,-3,-7,769,1,-3,-2
2012,-17,-5,896,1,18,-4
2013,1,11,1130,3,-11,0
2014,-16,8,962,5,15,2
2015,-8,-7,1061,-1,-15,-2
2016,-16,1,955,1,9,-2
2017,-15,-3,982,-3,-7,-2
2018,3,-16,1005,1,-3,-2
2019,6,-14,1004,-1,-5,0
2020,7,-5,1022,-1,-9,4
2021,1,13,979,-3,5,4
2022,-11,-5,1006,-1,-5,0
2023,-18,1,988,1,7,0
2024,-17,-4,1009,1,-3,0
2025,-3,-5,1004,3,7,2
2026,6,-15,997,-1,-3,0
2027,-5,-1,1000,-1,-1,-2
2028,-10,0,1006,-3,-1,0
2029,-15,2,1001,1,-1,6
2030,-9,2,1005,-1,-1,2
2031,-9,-25,1197,-1,-3,-4
2032,9,-18,977,-1,5,-4
2033,18,30,971,1,1,-4
2034,13,1,1000,-3,-13,0
2035,19,-7,970,1,9,2
2036,4,-7,1082,-1,-11,4
2037,-33,-6,962,1,11,0
2038,-27,-6,1020,-1,-7,0
2039,-32,1,973,-1,7,0
2040,-7,0,1010,-1,-9,2
2041,5,3,1019,1,1,0
2042,11,6,1011,-1,-1,0
2043,2,7,1021,-3,-1,-2
2044,-12,-5,969,1,5,2
2045,-17,-7,1010,-3,-7,4
2046,-22,-6,996,3,3,2
2047,-9,-1,1007,-1,-1,0
2048,-4,-2,997,-1,-1,-4
2049,16,3,993,-1,-3,-2
2050,4,-1,1003,1,3,2
2051,-10,-12,1010,-3,1,0
2052,-28,-6,1008,-1,-5,-2
2053,-24,2,995,1,1,4
2054,-4,-7,1008,-1,-5,0
2055,6,-3,999,1,1,2
2056,48,5,1399,-11,-3,-2
2057,-30,34,760,-1,5,0
2058,12,16,946,1,11,-4
2059,0,21,1107,-1,-3,2
2060,-11,-8,955,3,9,0
2061,-13,-5,1099,-3,-13,0
2062,-28,-4,967,1,11,-2
2063,-13,-17,1013,-1,-9,-2
2064,-4,-8,976,1,3,4
2065,-4,-5,1010,-1,-3,2
2066,6,4,1032,3,5,2
2067,-6,-1,1001,1,1,-4
2068,-4,-3,995,-3,-3,0
2069,-15,8,990,-1,-1,-4
2070,-13,-10,1027,-3,-5,4
2071,-9,-8,994,1,5,2
2072,-3,2,1014,-1,-3,2
2073,5,-2,1003,1,3,-2
2074,-1,1,996,-1,-3,2
2075,-6,0,1004,1,1,2
2076,2,-11,1005,1,-1,4
2077,-8,-4,1008,-1,-7,-2
2078,-7,-1,980,1,1,0
2079,-7,-12,1006,-1,-1,2
2080,-9,9,1243,3,5,2
2081,-29,-5,880,-3,-5,2
2082,-24,-1,906,1,15,-6
2083,28,0,1128,-1,-17,-4
2084,11,-1,988,5,13,6
2085,2,-17,1068,-1,-13,6
2086,-33,-10,934,1,9,2
2087,-28,11,995,-3,-7,0
2088,-32,4,1003,1,3,0
2089,-6,1,1011,3,-1,0
2090,13,-8,1038,-1,-3,-2
2091,8,0,975,-1,-1,-2
2092,4,0,1001,-1,-7,0
2093,-10,-4,985,-1,3,0
2094,-19,-5,1018,-1,-5,4
2095,-21,-6,998,3,5,2
2096,0,-4,1007,-3,-5,-4
2097,14,0,1008,-1,-1,-4
2098,3,-4,1006,3,1,2
2099,5,-4,1015,-5,-3,-2
2100,-10,-5,991,1,1,2
2101,-13,1,995,-1,-5,0
2102,-21,3,991,-5,-3,2
2103,-9,6,1008,-1,-5,0
2104,5,40,502,-1,-1,4
2105,19,-18,1166,1,-9,-2
2106,8,9,984,1,11,0
2107,24,13,993,-1,-15,2
2108,-9,13,1035,-1,11,2
2109,-18,-5,979,1,-9,6
2110,-5,-10,973,1,5,0
2111,-7,-12,998,-1,-5,2
2112,-10,-11,1018,-3,-3,0
2113,-1,-4,998,-1,1,2
2114,-2,3,1023,-1,-7,4
2115,1,10,988,1,1,2
2116,-14,-2,1002,-1,-5,-2
2117,-20,2,994,1,1,0
2118,-17,-6,1016,-1,-5,0
2119,-2,-9,995,-3,-1,0
2120,-4,-11,994,1,-5,-2
2121,9,-1,1019,-1,-3,0
2122,-13,5,1007,-3,-3,-2
2123,-5,-3,1000,-1,-5,4
2124,-16,-10,992,1,1,0
2125,-6,-13,1006,-3,-1,-2
2126,115,-132,1039,-5,-19,2
2127,-8,64,1132,5,11,-4
2128,10,-18,1036,-1,-21,2
2129,28,-12,875,-1,18,0
2130,11,0,948,-1,-7,-2
2131,-27,7,1016,-3,1,-2
2132,-31,3,1013,-3,-1,2
2133,-20,-5,1024,-3,-7,2
2134,-11,-10,957,-1,5,0
2135,14,-17,1011,-5,-11,0
2136,14,-6,973,1,9,-4
2137,12,0,1055,-1,-5,-4
2138,-19,5,1000,-1,5,-2
2139,-24,-3,984,1,1,2
2140,-23,-9,1002,1,1,4
2141,-15,-8,992,-7,-1,-2
2142,6,0,1016,-1,-7,0
2143,9,0,1004,-3,-1,0
2144,5,1,1008,-1,-3,2
2145,-10,-3,993,3,3,2
2146,-14,0,995,-3,-7,0
2147,-23,2,989,1,1,-2
2148,-11,-4,1010,-1,-3,0
2149,2,-3,1006,-3,-5,2
2150,10,0,994,1,1,2
2151,19,1,823,-3,-1,-4
2152,23,17,1028,5,-7,-2
2153,-4,8,990,-7,-11,2
2154,-29,18,1121,5,7,0
2155,2,3,976,1,7,-2
2156,-6,3,964,-3,-5,-4
2157,0,0,982,1,1,-2
2158,-14,-12,1010,-1,1,2
2159,-16,-6,1025,-1,-1,6
2160,-18,-6,982,1,3,2
2161,-4,0,1015,-5,-5,-2
2162,-1,8,973,1,3,4
2163,14,8,1004,-5,-7,2
2164,-5,-5,993,1,3,4
2165,-10,-8,1005,1,1,2
2166,-16,-8,1007,3,1,0
2167,-18,-6,992,-5,-5,0
2168,-4,-3,1001,-1,-3,0
2169,-2,8,999,-1,1,0
2170,0,3,1013,1,-1,2
2171,2,2,1006,1,3,0
2172,-3,1,1001,-3,-1,0
2173,-12,-10,996,-3,-1,-2
2174,-23,-33,1164,1,-5,4
2175,-9,8,998,1,1,-2
2176,-8,0,1011,1,3,4
2177,5,0,962,-1,-5,0
2178,11,4,962,1,7,4
2179,5,-7,1078,-1,-11,0
2180,-23,-9,978,-1,9,-2
2181,-35,-5,1037,-1,-9,4
2182,-30,-3,980,1,9,2
2183,0,-9,1024,-1,-7,-2
2184,23,0,1016,1,3,2
2185,18,6,1002,-1,-1,4
2186,5,-5,1023,-3,-3,0
2187,-18,-6,989,1,3,2
2188,-27,-5,1014,-1,-3,4
2189,-23,5,998,1,3,-4
2190,-3,5,1015,-1,-1,0
2191,14,7,979,1,3,2
2192,18,1,1003,-1,-3,-2
2193,6,-11,996,-3,-1,0
2194,-16,-13,996,-3,-3,0
2195,-25,-6,1024,1,-3,-4
2196,-21,3,997,1,1,-4
2197,-17,0,1024,-1,-5,0
2198,2,3,998,1,1,0
2199,8,-4,1011,-3,-5,0
2200,13,-9,935,1,1,0
2201,32,1,992,1,-9,0
2202,-17,15,1134,1,9,2
2203,-14,5,1062,-3,-15,2
2204,9,6,963,-1,13,0
2205,7,9,963,-1,-3,-2
2206,4,0,973,-3,-1,2
2207,-8,-12,1002,1,3,2
2208,-14,-18,1044,-1,-9,0
2209,-16,-6,977,1,3,0
2210,3,-1,1019,-1,-7,-2
2211,6,11,979,1,3,2
2212,13,3,1025,-3,-7,2
2213,-1,7,1003,1,5,4
2214,-8,-13,996,-1,-1,0
2215,-13,-13,1000,-1,-3,0
2216,-20,-4,1002,-1,-3,2
2217,-13,-2,1013,1,-1,2
2218,-1,-2,1012,-3,-3,0
2219,12,2,1007,-1,-1,0
2220,-5,1,1002,3,5,-2
2221,21,-36,675,-1,-3,-4
2222,27,-11,1134,-5,-13,0
2223,-12,3,999,1,13,2
2224,-7,0,1066,-5,-25,0
2225,30,0,962,1,18,2
2226,14,7,1008,-1,-9,-2
2227,-2,-5,1005,-1,5,4
2228,-35,-2,986,1,3,0
2229,-32,3,1032,-1,-1,-4
2230,-21,-5,972,1,7,0
2231,13,-8,1038,-1,-7,0
2232,13,-4,969,1,5,0
2233,23,3,1036,-1,-9,-2
2234,-21,4,990,-1,-3,0
2235,-11,-6,987,1,3,-2
2236,-18,-3,1002,1,1,0
2237,-13,-11,1002,-3,-1,0
2238,1,-12,1018,-3,-3,-2
2239,14,0,984,-1,-3,-4
2240,13,5,1012,-3,-3,2
2241,1,-1,994,1,3,0
2242,2,-4,1032,-3,-5,4
2243,-13,8,776,-1,-1,-2
2244,16,-15,1087,3,-13,0
2245,1,13,1082,1,7,-2
2246,30,8,1024,-1,-17,2
2247,26,0,983,1,11,-2
2248,10,1,973,-1,-7,0
2249,-18,3,963,-3,-1,-4
2250,-28,-17,1008,1,1,2
2251,-21,-16,1034,-1,-9,0
2252,-23,-5,985,-5,5,-2
2253,10,-3,1014,-3,-11,-2
2254,18,7,975,1,1,2
2255,16,1,1022,-1,-3,2
2256,-6,1,1001,-3,-1,0
2257,-29,-8,1004,-3,-3,0
2258,-30,-14,1006,-1,-1,0
2259,-12,-11,992,-3,-3,-2
2260,-3,2,1017,-1,-3,-2
2261,3,2,994,1,5,-2
2262,5,2,1018,-1,-5,2
2263,-4,-2,997,-1,-1,0
2264,-18,-8,1001,1,1,4
2265,-15,-120,967,7,-5,-2
2266,1,18,1027,-5,9,2
2267,-17,-12,878,1,7,-2
2268,48,-8,942,1,-3,4
2269,28,5,1040,1,1,2
2270,1,-12,1141,-1,-13,4
2271,-39,5,961,1,13,0
2272,-44,-12,1008,-1,-9,-2
2273,-40,-4,942,1,7,2
2274,-6,-11,1043,-1,-3,-2
2275,27,-4,1029,1,1,-2
2276,38,6,993,-1,-1,-2
2277,8,0,996,-1,-3,0
2278,-18,-4,978,1,3,2
2279,-28,-9,1028,1,-5,4
2280,-25,-3,983,1,7,0
2281,-7,-9,1010,-3,-9,-2
2282,7,11,986,1,3,-2
2283,24,-1,1003,-1,-1,6
2284,14,-5,1011,-1,-1,0
2285,-9,-6,994,1,3,0
2286,-22,-3,1016,1,1,-2
2287,-32,1,985,-3,-1,0
2288,-19,2,995,-3,-5,4
2289,9,-1,999,1,3,6
2290,15,-6,1016,-1,-5,2
2291,13,0,1001,-1,-1,2
2292,-8,-5,1010,-1,-3,0
2293,-7,-3,933,3,1,0
2294,-9,4,983,3,-11,2
2295,-10,6,1132,1,7,-2
2296,8,11,1024,-1,-11,-2
2297,26,6,964,1,5,-2
2298,7,8,985,1,1,-2
2299,-8,-5,990,1,-1,4
2300,-28,-11,1000,1,3,2
2301,-31,-14,1031,-1,-5,0
2302,-13,-1,970,-1,-1,0
2303,14,-13,1015,-1,-7,0
2304,21,0,998,1,5,0
2305,18,11,1020,-1,-7,2
2306,-11,-7,1006,-3,-1,-2
2307,-18,1,1003,-1,-3,2
2308,-29,-5,1004,-3,-5,0
2309,-13,5,1007,-3,1,0
2310,6,0,1036,-1,-9,0
2311,10,8,987,1,1,0
2312,8,3,1017,-1,-3,0
2313,-8,11,1010,1,5,2
2314,-48,5,1056,1,7,0
2315,-34,-23,1042,1,-3,0
2316,9,-15,902,-1,1,0
2317,24,-1,988,-3,-5,-2
2318,25,11,1028,-1,3,0
2319,18,-15,1054,-1,-13,2
2320,-32,4,950,1,11,0
2321,-31,2,1032,-3,-11,-4
2322,-42,-4,965,1,7,-4
2323,-11,-4,1022,3,-7,-2
2324,20,-12,1003,1,3,0
2325,18,3,1010,-1,-5,0
2326,15,-5,1005,-1,-3,0
2327,-11,5,985,1,1,2
2328,-21,-5,1030,-1,-3,6
2329,-31,-1,983,1,1,4
2330,-4,-18,1016,-1,-3,2
2331,7,-2,983,-1,-1,0
2332,25,-2,1002,-1,-1,2
2333,17,-3,1007,1,1,2
2334,-9,-4,989,-1,-3,4
2335,-29,-5,1000,-3,-1,2
2336,-15,-1,1006,-3,-3,2
2337,-30,2,990,-1,1,0
2338,13,29,1397,-11,-5,0
2339,1,-9,839,1,-3,0
2340,10,-10,907,1,13,0
2341,22,5,1108,-1,-13,0
2342,-28,11,993,-3,11,0
2343,-9,-12,1056,-1,-7,2
2344,-32,-11,968,1,13,0
2345,-25,-18,986,-1,-7,2
2346,6,-17,1003,1,5,0
2347,18,8,998,-3,-5,0
2348,15,8,1046,-3,-1,6
2349,-1,8,985,-3,1,2
2350,-16,-4,996,1,-5,0
2351,-30,-5,984,1,5,-2
2352,-27,-17,1025,-1,-3,-6
2353,-3,-11,993,1,5,-2
2354,0,-9,1000,-1,-5,0
2355,13,4,995,-5,-5,-2
2356,2,1,1000,-3,-1,2
2357,-15,7,1006,-5,-3,2
2358,-12,-7,1001,1,1,2
2359,-27,-92,-275,-3,-3,2
2360,-79,79,995,-5,-25,0
2361,-23,-18,1066,5,13,-4
2362,52,17,1146,-3,-25,2
2363,10,17,971,1,24,4
2364,-13,-1,999,-5,-15,2
2365,-30,5,896,3,16,-2
2366,-49,0,1045,-3,-11,0
2367,-29,0,1053,-1,-1,0
2368,-1,-8,1005,1,1,0
2369,10,-5,1003,-1,-3,-2
2370,5,-5,951,1,9,-4
2371,5,5,1045,-1,-11,4
2372,-17,2,996,1,7,2
2373,-26,-6,1022,-1,-7,6
2374,-19,-11,976,-3,1,-2
2375,-7,-13,999,-1,-5,-4
2376,7,3,1004,-3,-3,0
2377,12,5,996,-1,-3,0
2378,6,0,1005,-3,-5,0
2379,-9,-5,988,1,1,0
2380,-20,-2,1019,-1,-5,0
2381,-23,0,986,1,5,-2
2382,-3,-3,1013,-1,-5,0
2383,8,-9,994,-1,-1,0
2384,-52,-30,1072,-5,-5,0
2385,-7,0,866,-1,-13,-2
2386,-17,-2,917,3,15,-4
2387,27,18,1124,-1,-11,2
2388,-3,15,990,1,9,2
2389,-11,-11,1038,-1,-13,0
2390,-22,-11,941,1,15,-4
2391,-25,-12,996,-3,-9,0
2392,-12,-11,1012,1,1,2
2393,4,6,1000,-1,-3,-2
2394,16,8,1025,-3,-3,2
2395,6,0,976,-1,5,-4
2396,0,0,991,1,-3,0
2397,-20,-7,998,1,5,0
2398,-15,-17,1022,-1,-5,4
2399,-19,-8,1005,1,5,2
2400,1,-6,1010,-1,-3,-2
2401,11,4,1018,-1,-1,0
2402,-7,3,997,3,3,0
2403,-1,5,1015,-1,-1,2
2404,-14,-2,977,1,1,0
2405,-15,-19,968,1,-1,-2
2406,-25,-25,1099,-1,-7,-2
2407,-2,-3,993,-1,7,0
2408,36,7,1013,-3,-15,0
2409,9,-5,973,3,13,2
2410,19,-6,979,-1,-1,2
2411,-19,-7,1036,-3,-1,2
2412,-46,-10,1008,5,3,-4
2413,-35,-6,1027,3,-3,0
2414,-19,-7,972,-1,5,2
2415,19,-9,1021,1,-7,0
2416,25,5,976,1,1,-4
2417,29,-3,1027,-3,-7,-2
2418,-7,-6,985,-3,3,2
2419,-25,1,1004,1,1,4
2420,-39,-14,1012,1,1,-2
2421,-20,-1,1006,3,3,0
2422,5,-3,1010,-1,-1,0
2423,7,-3,983,-1,-1,2
2424,14,0,1006,-1,-3,2
2425,5,5,996,-1,3,2
2426,-12,-3,1005,-1,-1,-2
2427,-25,-3,991,-3,-3,0
2428,-18,-8,1009,-1,-1,2
2429,-7,5,1017,-5,-3,2
2430,27,-4,896,1,1,0
2431,52,5,1053,3,-15,-2
2432,-11,18,1170,1,13,0
2433,-23,12,1050,-1,-17,0
2434,0,-12,933,1,9,2
2435,-20,5,966,-1,-3,0
2436,-20,-3,972,1,1,0
2437,-9,-11,1009,-1,-3,-2
2438,0,-7,1037,1,-5,0
2439,-5,-6,987,1,5,2
2440,9,10,1031,-5,-9,0
2441,2,7,965,1,5,0
2442,-2,3,1024,-1,-5,0
2443,-12,-8,994,1,1,0
2444,-12,-10,1008,-1,-5,-2
2445,-12,-11,1014,-3,-1,2
2446,-8,-4,992,-1,-3,0
2447,8,3,1007,-1,-5,0
2448,-4,7,991,-1,1,2
2449,5,8,1020,-3,-1,2
2450,-12,-6,992,1,3,-4
2451,-6,-11,1010,-1,-3,-2
2452,-11,-15,995,1,3,0
2453,-41,-60,1279,5,3,-2
2454,5,-5,937,-3,-5,0
2455,-16,11,879,1,9,0
2456,37,-8,1143,1,-13,2
2457,13,1,964,-1,11,4
2458,-9,-14,1092,-5,-15,0
2459,-43,1,921,1,13,2
2460,-27,2,1025,-5,-13,4
2461,-19,-3,974,1,7,-2
2462,4,2,1023,-3,-5,4
2463,16,5,1022,-1,-3,0
2464,18,5,976,-1,-1,-2
2465,6,-7,1005,-1,-7,2
2466,-26,-4,980,1,1,6
2467,-21,-5,1023,-1,-7,6
2468,-22,4,984,1,1,2
2469,4,1,1004,-1,-5,-2
2470,8,7,1008,1,3,0
2471,10,0,998,3,1,2
2472,4,-12,1010,-1,-3,0
2473,-16,-2,989,-1,1,4
2474,-13,23,750,-3,0,-5
2475,12,28,1114,7,-10,-3
2476,2,4,1215,-1,6,1
2477,-1,22,980,-3,-16,-1
2478,31,7,967,-1,15,-3
2479,6,3,967,-3,-8,-1
2480,-19,0,933,5,4,-1
2481,-36,-21,1029,-3,-4,3
2482,-36,-3,1030,-1,0,1
2483,-2,7,996,-1,4,-3
2484,22,6,996,-1,-10,5
2485,17,7,965,1,6,-1
2486,14,5,1037,1,-2,-3
2487,-20,-4,1004,1,7,1
2488,-32,-11,1009,-1,-2,-3
2489,-26,-7,993,-1,0,-3
2490,3,-2,1002,-1,-4,-3
2491,11,5,1005,-3,-2,-3
2492,17,0,1004,-3,0,-1
2493,8,-6,1006,-3,-6,1
2494,-12,-10,987,3,2,-1
2495,-20,-16,1016,-1,0,-1
2496,-20,-5,1012,1,2,1
2497,-9,-5,1009,1,0,-1
2498,-1,-4,1009,3,2,-1
2499,-104,25,70,1,7,-3
2500,51,-33,893,-5,-24,1
2501,9,-19,1065,7,21,-3
2502,22,8,1146,-1,-24,-1
2503,-18,-15,931,-1,21,-1
2504,19,-11,974,-3,-16,3
2505,-26,5,904,1,19,-1
2506,-28,18,1041,-1,-10,5
2507,-15,0,1047,-1,-2,-5
2508,-1,0,996,-1,0,-3
2509,6,-7,999,-1,-6,-5
2510,0,1,940,3,6,1
2511,4,-16,1039,-3,-8,1
2512,-12,1,1008,1,6,3
2513,-8,1,1029,-3,-12,-1
2514,-16,5,968,-1,7,-1
2515,-1,8,1009,-1,-2,-3
2516,0,-5,1015,-1,0,-1
2517,-1,-18,996,-5,2,-3
2518,-3,-21,1009,-1,-4,1
2519,-8,6,994,1,6,-1
2520,-19,7,1007,-3,-4,-1
2521,-8,9,986,-3,0,-3
2522,-3,-5,1007,-1,-4,-3
2523,-2,-3,1005,-3,4,-3
2524,3,-7,999,1,4,-1
2525,2,-3,1006,-1,-2,3
2526,-11,1,995,-1,-6,-1
2527,78,-28,762,1,-14,1
2528,26,55,1275,1,9,-1
2529,47,-6,1004,-1,-22,-5
2530,-1,13,898,1,13,-3
2531,4,-2,956,-1,-2,1
2532,-17,-15,958,1,4,-3
2533,-22,-1,1032,-1,0,-3
2534,-14,-19,1041,-1,-8,-1
2535,-23,3,971,1,6,3
2536,17,4,1016,-1,-8,1
2537,17,8,955,-1,4,1
2538,13,2,1046,-1,-2,-1
2539,-2,-4,999,1,2,-3
2540,-22,-8,986,-1,0,1
2541,-19,-11,995,-1,-4,-1
2542,-5,1,1002,1,2,1
2543,-1,1,1007,-1,-6,1
2544,2,15,993,-5,-2,-3
2545,6,5,1024,-1,0,-1
2546,-6,0,1002,1,4,-1
2547,-12,-9,1018,3,2,3
2548,-2,-22,887,-3,-2,-1
2549,96,-104,1030,-7,-18,5
2550,27,53,1332,3,15,-5
2551,6,-32,1084,-1,-28,1
2552,42,-6,760,1,21,3
2553,6,-12,947,-3,-10,-1
2554,-23,3,986,1,6,-3
2555,-35,4,1034,-3,0,-1
2556,-29,1,1047,-1,-2,3
2557,-17,-3,957,-1,4,3
2558,19,4,972,1,7,-1
2559,15,-11,1005,1,-10,-3
2560,16,-2,1057,-1,-6,-1
2561,-13,-10,988,1,6,-1
2562,-25,-8,1007,-3,-4,5
2563,-27,-7,994,-1,0,1
2564,-15,0,993,3,2,-3
2565,-1,2,1020,-1,0,-1
2566,6,2,996,1,2,-1
2567,6,0,1011,3,2,1
2568,4,-7,995,-3,0,-5
2569,-15,-13,1014,-1,-4,-1
2570,-29,5,976,-1,0,3
2571,-15,-2,1010,-3,-4,3
2572,0,-3,996,-3,-2,3
2573,15,-6,992,-3,0,-3
2574,2,3,1017,-1,-4,-1
2575,8,0,1003,-1,2,-3
2576,23,12,1156,-11,-18,-1
2577,-45,14,974,5,13,1
2578,-5,3,1069,-3,-4,-5
2579,-11,9,956,3,2,-3
2580,8,4,1006,1,6,-3
2581,6,-24,1097,1,-4,-1
2582,-22,-6,958,1,11,5
2583,-29,-17,1050,-1,-12,1
2584,-37,-12,934,-1,9,-3
2585,-1,6,1049,-3,-10,-3
2586,17,5,1002,1,6,-1
2587,21,-2,1014,-1,-2,1
2588,7,5,1014,5,2,3
2589,-23,-7,981,1,2,-3
2590,-24,-7,1020,-1,-6,-3
2591,-24,-3,995,-1,4,-1
2592,-2,-1,1023,-1,-2,-3
2593,-1,-2,992,1,4,-3
2594,10,-3,1001,-1,-2,-3
2595,5,4,1005,3,4,-1
2596,-15,-2,1006,-1,0,1
2597,-23,-5,1004,1,2,-3
2598,-123,189,1802,9,9,-3
2599,-59,-44,535,-11,-2,-5
2600,13,41,862,-3,13,-1
2601,30,11,1288,-1,-14,3
2602,34,-22,925,1,13,5
2603,1,-20,1079,-5,-18,1
2604,-55,-9,905,3,15,-3
2605,-50,5,1013,-3,-12,-1
2606,-20,-3,992,1,6,3
2607,16,-3,1020,-3,-12,-3
2608,33,-6,1004,-1,2,-3
2609,20,6,951,1,6,-7
2610,-7,0,1000,-1,-2,1
2611,-38,-4,987,1,7,3
2612,-28,-3,1029,-3,-6,3
2613,-21,-12,993,-1,2,5
2614,1,-3,990,-1,-2,-5
2615,16,12,992,1,2,-3
2616,21,-6,1006,-1,-2,1
2617,-6,-8,1004,3,2,1
2618,-26,-8,1000,-1,0,-3
2619,-26,-9,1015,1,2,-3
2620,-21,5,995,1,2,-1
2621,4,-1,1010,-1,-4,1
2622,14,-1,1003,-1,0,-1
2623,-44,45,1569,-13,-4,-1
2624,-13,-3,696,1,2,1
2625,-12,17,868,3,15,-3
2626,9,18,1189,3,-10,3
2627,12,10,963,5,15,-1
2628,13,-10,1066,-1,-12,-3
2629,-11,-5,923,1,15,-3
2630,-18,-19,999,-1,-4,-1
2631,-13,-14,991,1,2,-1
2632,-4,0,1013,-1,0,3
2633,9,10,1023,-1,-2,1
2634,5,22,973,1,4,-3
2635,-5,-4,1016,1,-2,-5
2636,-8,-8,987,-1,6,-5
2637,-18,-18,1029,-1,-6,3
2638,-22,-10,991,-1,4,1
2639,-9,1,1002,-3,0,-1
2640,-6,6,999,-1,0,-1
2641,13,6,998,-1,-4,-1
2642,-8,2,1020,-5,0,-1
2643,0,-8,1004,1,4,-1
2644,-11,-13,1007,-3,-4,-3
2645,-32,-5,929,3,2,-1
2646,38,-50,1010,-5,-24,-3
2647,42,8,1048,7,17,-3
2648,-3,-29,1111,-1,-28,-3
2649,19,-6,867,-1,23,-3
2650,4,-3,945,-5,-4,1
2651,-27,-2,1009,1,6,-3
2652,-36,-6,1003,-1,0,-1
2653,-25,-6,1060,1,-6,-1
2654,-2,-5,945,-1,9,-1
2655,11,2,1014,-1,-10,-1
2656,16,8,972,1,7,-3
2657,13,-2,1052,-1,-6,-1
2658,-20,-10,995,1,7,5
2659,-28,-1,1004,-3,0,3
2660,-11,3,1003,1,2,-5
2661,-28,-1,991,-1,0,1
2662,9,1,1013,-1,-2,-1
2663,8,2,1018,-1,-6,1
2664,15,3,972,1,2,-3
2665,-15,-3,994,1,6,-1
2666,-19,-4,1015,-3,-2,1
2667,-23,-12,1001,-1,0,-7
2668,-15,-7,1008,-1,0,-3
2669,7,-3,1012,-1,-2,3
2670,6,-3,1000,-1,2,-5
2671,2,1,1000,-1,-8,-3
2672,8,34,1549,-11,-4,-3
2673,-60,-4,716,-1,-6,1
2674,-28,12,879,1,21,-3
2675,42,14,1174,1,-14,-3
2676,14,8,959,1,15,-1
2677,9,-2,1064,-1,-14,-1
2678,-26,-11,950,3,15,-1
2679,-29,-18,989,-3,-8,-1
2680,-21,-16,1000,1,2,1
2681,-2,-1,1001,3,2,-1
2682,13,1,1029,-1,-8,-3
2683,14,15,971,3,6,-3
2684,4,-4,1002,1,-8,-3
2685,-12,-5,996,1,6,-3
2686,-23,-13,1027,-1,-6,-3
2687,-27,-1,1002,1,4,-3
2688,-4,-7,1024,-5,-4,1
2689,1,2,1009,-1,-4,-1
2690,14,15,981,1,2,-1
2691,6,2,1022,-1,-2,-5
2692,-11,-2,984,1,6,-1
2693,-19,-15,1015,-1,0,-3
2694,-29,-9,1003,1,2,-1
2695,-13,-8,1006,-1,-4,-1
2696,-49,-25,1683,7,7,-3
2697,-29,0,749,-9,0,-3
2698,15,-7,795,3,21,-1
2699,40,5,1187,3,-10,-3
2700,-9,-7,952,1,15,1
2701,-10,-24,1053,-1,-14,-3
2702,-45,4,960,1,11,-1
2703,-29,9,1012,-1,-14,5
2704,-6,7,996,3,6,-3
2705,16,0,1017,-3,-6,-1
2706,16,-5,1034,3,2,1
2707,0,-11,958,3,4,-5
2708,-10,-11,1005,-1,-4,-1
2709,-29,-5,996,1,7,3
2710,-21,-3,1037,-1,-8,1
2711,-15,5,993,-1,2,-3
2712,6,8,1015,-3,-4,-5
2713,19,15,1001,1,4,-7
2714,19,-10,1015,-1,0,-3
2715,-6,-24,1011,-3,-2,3
2716,-19,-16,995,-1,0,1
2717,-21,-3,1007,-3,0,-3
2718,-16,6,990,3,4,-1
2719,19,-73,538,-1,-2,-1
2720,-4,-15,1133,1,-4,-1
2721,-3,6,923,1,17,-3
2722,33,-16,1025,-1,-16,-1
2723,8,-2,1004,-1,15,1
2724,-3,-1,956,-3,-8,1
2725,-39,-14,952,7,11,-1
2726,-24,-14,997,-1,0,-1
2727,-3,-6,1032,1,-2,-3
2728,6,8,988,1,6,-5
2729,24,-9,1012,-1,-4,-1
2730,-1,15,980,-1,4,3
2731,-3,-7,1000,1,-4,-1
2732,-23,2,996,3,6,-5
2733,-10,-2,1012,-3,-4,-3
2734,-8,-11,992,-3,0,1
2735,-1,4,992,-1,-4,-1
2736,10,-1,1008,-1,-2,-1
2737,4,-1,995,1,4,-3
2738,-4,11,1014,-3,0,-1
2739,-18,-3,989,1,6,-1
2740,-16,-16,1005,-1,0,-1
2741,-7,-8,988,-1,0,1
2742,7,-25,594,-1,0,-3
2743,-49,37,1011,-3,-22,-1
2744,-22,-38,938,3,17,-3
2745,42,-4,1169,-3,-24,1
2746,17,-4,949,-1,17,1
2747,-8,-21,983,-1,-16,3
2748,-36,7,923,1,17,3
2749,-27,-2,1028,-1,-10,1
2750,-12,16,1030,1,4,-1
2751,0,0,990,-5,0,1
2752,18,0,1008,-3,-4,-7
2753,8,11,958,1,6,-3
2754,5,-11,1031,1,-8,-3
2755,-21,3,1004,1,6,-1
2756,-20,-3,1017,1,-2,5
2757,-25,3,988,-3,4,-1
2758,-5,-2,1010,-1,-2,-3
2759,1,0,1020,-1,0,1
2760,8,-3,998,-3,-2,1
2761,6,-7,1002,1,-6,1
2762,-16,-3,992,3,2,-3
2763,-13,-3,1011,-1,0,-1
2764,-16,-1,975,1,2,-1
2765,-8,3,996,-1,-4,-3
2766,5,-5,996,-1,0,-1
2767,-2,-15,1011,-3,-4,-5
2768,2,-1,1019,1,2,-1
2769,-96,-4,1178,-11,-12,-1
2770,18,-18,949,1,7,1
2771,10,16,1030,-1,-2,1
2772,17,-5,965,-3,-6,-5
2773,-6,25,986,3,11,-5
2774,-10,-16,1101,1,-10,-1
2775,-33,-15,977,1,11,3
2776,-32,-25,1042,-1,-12,1
2777,-20,0,946,-3,6,-5
2778,7,2,1024,-1,-8,-3
2779,19,18,1005,1,2,1
2780,16,5,986,-1,-6,-1
2781,-13,-4,1012,-1,0,1
2782,-15,-13,984,1,2,-3
2783,-26,-12,1016,1,0,-1
2784,-13,-2,987,1,2,3
2785,19,-5,1015,-1,-6,3
2786,-1,6,1002,1,4,-1
2787,10,13,993,-1,0,-1
2788,3,1,1006,-1,0,-3
2789,-17,-1,996,-1,-2,3
2790,-22,-9,1014,-1,-2,3
2791,49,-47,1152,13,9,-7
2792,-22,24,817,-9,4,-1
2793,-32,60,861,1,17,-5
2794,45,-6,1196,-1,-6,3
2795,22,0,1027,3,9,3
2796,-8,-23,1141,-3,-16,1
2797,-67,0,907,1,15,-3
2798,-38,-3,984,-5,-10,-1
2799,-34,-3,962,1,6,1
2800,17,-9,1047,-3,-6,1
2801,21,2,1025,3,2,-1
2802,10,5,965,1,2,-7
2803,0,-4,995,-1,-2,-1
2804,-26,3,983,1,7,3
2805,-27,-6,1041,-1,-4,-1
2806,-16,-6,989,1,4,1
2807,5,0,1004,-3,-6,1
2808,15,6,984,5,0,-1
2809,9,-7,997,1,0,3
2810,0,-8,1003,5,6,1
2811,-20,-3,999,-3,-2,1
2812,-19,-6,1009,-1,0,-3
2813,-16,-6,991,-1,2,-3
2814,-7,2,1007,-3,-2,-3
2815,16,-33,461,-5,0,-1
2816,-58,-28,1041,3,-14,-5
2817,19,-9,799,3,19,-5
2818,23,0,1060,-1,-16,1
2819,-18,18,988,7,21,5
2820,-9,-6,968,-3,-10,-1
2821,-23,-22,923,1,9,3
2822,-19,-2,987,-3,-6,-1
2823,-10,-12,1028,-1,-2,-3
2824,7,12,995,-1,2,1
2825,14,-5,1024,-1,-6,1
2826,-6,15,964,1,6,-1
2827,-8,1,1021,-5,-4,-1
2828,-17,-6,999,1,6,-5
2829,-12,-3,1012,-1,-4,3
2830,-1,-9,984,-1,0,-1
2831,11,5,1002,3,2,-1
2832,8,10,1007,1,4,1
2833,0,5,988,3,2,1
2834,-13,2,1019,-1,-4,-1
2835,-10,-6,986,-1,0,1
2836,-13,-13,999,-3,-2,1
2837,-49,12,1080,1,-10,-1
2838,48,-41,938,3,11,1
2839,11,20,1017,-3,-16,-1
2840,9,2,975,1,11,1
2841,10,-9,980,-1,-2,5
2842,-16,-4,1046,-1,0,-3
2843,-42,-4,1002,1,6,-1
2844,-41,1,1015,-1,-4,-1
2845,-13,0,956,1,6,-1
2846,13,0,1025,-1,-4,-3
2847,15,3,988,1,6,-1
2848,15,-8,1030,-1,0,-3
2849,-1,-7,995,1,4,-3
2850,-20,-6,988,1,2,-1
2851,-19,-11,996,1,2,1
2852,-18,-6,987,1,2,-3
2853,-2,-2,1013,-1,-4,-3
2854,10,2,987,5,4,-1
2855,6,-2,1012,-3,-6,1
2856,0,-5,1003,1,2,-1
2857,-20,-6,1003,-3,-2,-1
2858,-13,-13,1000,-3,-2,-1
2859,-11,-3,1000,1,2,-5
2860,-6,-7,1000,1,2,3
2861,8,7,992,-3,0,-1
2862,-10,78,228,-3,0,-1
2863,-1,-24,1246,5,-12,-3
2864,0,24,948,1,17,1
2865,-1,7,1096,-1,-10,1
2866,29,-4,961,1,13,-1
2867,-18,-1,987,-1,-8,1
2868,-15,-3,946,1,9,-1
2869,-23,-19,1000,-1,-8,-3
2870,-9,-6,1037,-5,-4,1
2871,-4,-2,993,1,4,1
2872,8,8,1016,-3,-2,1
2873,12,12,964,1,9,1
2874,-12,-2,1018,1,-2,-3
2875,-14,-11,986,1,6,-3
2876,-5,-8,966,3,6,1
2877,-13,-9,1021,-1,-4,-3
2878,-12,0,993,-1,-2,-1
2879,4,1,1019,-3,-4,1
2880,-6,1,1005,-3,-6,-1
2881,-13,0,1010,-1,-4,-1
2882,-11,1,996,-1,2,-1
2883,-13,-7,1005,1,0,-3
2884,-13,-7,993,1,2,-1
2885,-18,-48,253,-3,0,-1
2886,40,12,1005,-3,-22,-3
2887,-11,22,1264,9,19,-5
2888,48,7,1071,-1,-30,3
2889,-7,-11,923,1,23,1
2890,17,-13,973,-1,-14,3
2891,-41,-7,926,1,17,-3
2892,-32,-5,1018,-1,-8,-1
2893,-17,5,1052,-3,-2,1
2894,0,2,978,1,4,1
2895,15,-5,1020,-3,-8,-5
2896,13,2,960,-1,6,-3
2897,4,-12,1051,-1,-10,-1
2898,-22,1,988,-1,4,1
2899,-26,2,1004,-1,-2,-1
2900,-19,1,972,-1,2,-5
2901,1,3,1006,-3,-2,-3
2902,-2,8,1016,-1,0,-5
2903,14,-2,989,1,4,-1
2904,8,-8,1001,1,2,3
2905,-15,-12,989,1,4,-1
2906,-26,-3,1016,1,4,-5
2907,-20,13,1003,1,4,-3
2908,104,-23,793,1,-14,3
2909,8,79,1151,1,9,-1
2910,42,-26,1001,1,-24,-1
2911,1,-7,926,-1,13,1
2912,0,9,955,-3,-8,-1
2913,-38,-16,988,1,2,-1
2914,-31,-15,1022,3,6,1
2915,-18,-11,1027,-3,-6,-1
2916,10,2,960,1,9,-1
2917,21,5,1014,-1,-8,-1
2918,14,5,969,1,4,1
2919,8,-4,1049,-1,-2,1
2920,-17,-10,994,-1,2,1
2921,-27,-6,1010,-1,-2,1
2922,-27,-5,993,-1,0,-1
2923,-15,0,1005,1,4,-1
2924,9,0,1006,-1,-2,-1
2925,17,0,987,5,2,-1
2926,4,2,1003,-1,-2,1
2927,-23,-11,990,1,2,-1
2928,-17,-3,1029,-1,-2,-1
2929,-21,-3,1009,-1,-2,1
2930,10,-239,993,3,-6,-3
2931,65,25,1303,1,19,-1
2932,47,-14,758,-9,-4,-1
2933,11,-17,837,-1,2,3
2934,-6,-1,1075,1,6,1
2935,-25,-7,1141,-3,-14,1
2936,-49,1,972,-1,9,-1
2937,-27,1,1027,-1,-8,-3
2938,-23,3,919,-1,7,-3
2939,27,-15,1047,1,-6,-1
2940,22,0,1016,1,6,-3
2941,15,-2,1010,-3,-2,-1
2942,-14,-12,994,-1,0,-1
2943,-37,-5,972,1,4,3
2944,-24,4,1043,-1,-4,1
2945,-12,2,1009,1,4,-1
2946,8,-5,1013,-1,-2,-3
2947,9,-5,990,1,4,-5
2948,13,-9,1001,-1,-6,1
2949,-7,3,1001,-3,2,-3
2950,-19,-3,1007,-1,-2,-1
2951,-26,-3,1005,1,4,-1
2952,-15,-4,999,1,4,1
2953,-4,0,1010,-1,0,-1
2954,18,-6,994,-1,0,-1
2955,1,0,1008,-1,-2,1
2956,-3,-5,988,1,2,1
2957,-16,-4,1004,-1,-6,1
2958,-23,4,993,-1,0,-3
2959,-13,-2,1001,-3,0,-5
2960,28,-24,1168,-15,-12,-3
2961,16,13,952,1,7,-5
2962,-16,0,898,1,4,1
2963,35,-16,1056,-1,-2,1
2964,-19,16,999,1,2,-1
2965,-18,-19,1108,-1,-10,-1
2966,-46,-7,977,1,11,-5
2967,-27,-13,1018,-3,-10,-3
2968,-17,0,964,5,9,1
2969,21,-8,1031,-3,-8,1
2970,26,0,1014,-1,4,-1
2971,8,7,999,-1,0,-1
2972,-10,-13,999,-1,0,-1
2973,-28,-15,990,3,6,-1
2974,-11,-9,1026,-1,-4,-5
2975,-13,-8,997,3,4,-5
2976,15,-1,1005,-1,-2,3
2977,7,8,994,1,4,-1
2978,4,9,1010,-1,-2,1
2979,-9,2,1005,-3,-2,1
2980,-18,-11,1003,-1,-2,-1
2981,-23,-8,1008,-1,-2,-1
2982,-28,12,1026,-1,0,1
2983,-13,-53,1560,3,-4,-3
2984,-2,-15,764,-3,4,1
2985,5,23,819,-1,7,-3
2986,8,11,1161,1,-2,-1
2987,-10,-15,1002,1,6,1
2988,-23,-15,1075,-5,-10,-3
2989,-39,7,938,1,13,-7
2990,8,8,975,5,6,1
2991,-6,10,1005,-1,-6,-3
2992,22,0,1037,-3,-6,-3
2993,18,-6,1030,1,2,1
2994,-12,-9,991,-1,0,-3
2995,-25,-5,978,-3,-4,-5
2996,-27,-12,990,-3,0,-1
2997,-23,2,1014,-1,-6,-1
2998,-4,5,992,-1,0,-5
2999,16,11,994,-1,-4,-5
3000,14,-7,992,3,6,1
3001,-1,-8,1006,-1,-2,3
3002,-20,-6,1008,-3,0,1
3003,-24,-8,992,-1,0,1
3004,-14,4,1005,1,2,-1
3005,2,1,999,1,2,-1
3006,15,18,944,1,4,-1
3007,21,0,951,-1,-6,-3
3008,16,7,1091,1,6,-3
3009,-10,-2,1071,-3,-14,-1
3010,-4,-4,919,1,7,3
3011,-13,10,966,-1,0,3
3012,-20,0,998,-1,0,-1
3013,-10,3,1022,1,4,-1
3014,-3,-2,1029,-1,-6,-3
3015,-9,-2,982,1,4,-3
3016,2,7,995,-1,-4,-1
3017,1,0,992,-1,2,1
3018,-3,3,1012,-3,-4,1
3019,-22,-7,1006,1,6,1
3020,-13,-2,997,-5,-2,1
3021,-10,-12,1000,-5,0,-3
3022,-7,-6,1009,-1,0,-1
3023,5,-6,1024,1,-2,-3
3024,2,1,992,-1,0,1
3025,-7,-5,1005,-1,-2,-1
3026,-15,5,1000,1,2,-5
3027,-6,-6,1011,-1,-2,-1
3028,-6,-7,1008,1,2,-1
3029,-7,2,992,-1,-6,3
3030,5,9,1006,-1,-2,-5
3031,-59,23,1063,3,6,-3
3032,-44,-7,898,-5,-14,-1
3033,-34,-52,866,1,19,-7
3034,60,4,1154,-1,-14,1
3035,3,-1,994,-1,15,5
3036,10,-10,1015,-5,-12,3
3037,-26,-1,927,1,13,-3
3038,-21,2,1012,-3,-10,-5
3039,-26,-1,1032,1,2,1
3040,-7,-7,1002,-1,-4,-1
3041,11,-4,1030,-3,0,-1
3042,8,3,972,-5,7,-5
3043,10,0,1018,-1,-4,1
3044,-16,0,999,1,7,-1
3045,-28,-4,1032,-1,0,-1
3046,-18,10,985,-1,2,1
3047,-8,-5,1006,-1,-2,-3
3048,6,4,1002,-1,-6,-5
3049,2,-7,987,-1,-4,-3
3050,-2,-7,1014,1,2,1
3051,-15,-5,990,1,2,1
3052,-23,1,1014,-1,0,2
3053,-18,2,992,1,3,0
3054,-3,5,1027,-1,-2,-2
3055,3,-10,1005,1,3,-2
3056,5,-9,998,1,3,2
3057,-31,-14,1154,-8,-14,2
3058,-13,-3,988,1,7,2
3059,0,-20,958,-1,0,0
3060,-3,1,978,-1,0,0
3061,-4,11,1005,1,3,0
3062,9,-6,1082,-1,-8,-4
3063,-16,5,976,1,9,-6
3064,-10,-15,1012,-1,0,2
3065,-21,-11,977,-1,3,2
3066,-10,-2,1018,-3,-6,-2
3067,5,1,994,-3,3,6
3068,14,5,1016,-1,-2,0
3069,-3,3,995,-1,-2,2
3070,-10,-3,976,-1,-2,-2
3071,-13,-11,1022,-3,0,0
3072,-23,-3,993,3,7,-2
3073,-12,2,999,3,0,4
3074,3,-1,996,-3,-2,4
3075,1,-2,1010,-1,0,2
3076,13,7,1004,-1,-2,0
3077,0,-6,999,1,3,-2
3078,-8,-2,1023,-1,-2,0
3079,0,-21,1034,1,1,0
3080,70,-44,958,-4,-18,2
3081,22,22,1179,3,13,0
3082,6,4,1075,-1,-22,0
3083,36,-21,884,1,17,6
3084,-8,3,976,-3,-10,4
3085,-25,-13,963,3,9,-2
3086,-34,3,1031,-3,-2,2
3087,-21,8,1040,1,-4,2
3088,-3,4,986,1,3,-2
3089,22,-5,1004,-3,-6,-2
3090,17,3,962,3,7,-2
3091,5,3,1054,-1,-8,-2
3092,-23,-2,993,1,1,4
3093,-33,-8,1001,-3,-6,0
3094,-20,0,980,3,7,0
3095,-6,0,992,-3,-2,-6
3096,4,-8,1016,-1,-2,-4
3097,14,2,998,-3,0,-4
3098,10,-7,1002,-1,0,4
3099,-13,0,984,-3,0,0
3100,-20,-8,1015,-1,-2,-2
3101,-18,4,1000,-1,0,0
3102,-2,-6,1009,1,1,0
3103,12,0,1013,-3,0,0
3104,12,-2,997,-1,0,0
3105,-4,-21,1201,-12,-12,-4
3106,-41,-4,1073,1,5,4
3107,19,-3,891,1,3,2
3108,8,0,1050,-1,-4,-2
3109,-9,2,989,1,9,0
3110,-7,-3,1135,-1,-12,-4
3111,-11,-7,967,3,13,0
3112,-4,-21,1012,-3,-8,0
3113,-17,-7,969,1,5,2
3114,-2,2,1018,-3,-6,-4
3115,8,13,1014,1,1,0
3116,11,15,985,-1,-6,0
3117,-7,-3,999,-1,-6,-2
3118,-12,-18,975,1,3,4
3119,-12,-15,1031,3,-2,0
3120,-3,-7,998,1,5,0
3121,-1,3,1011,-1,-8,4
3122,7,3,990,3,5,2
3123,-6,6,1005,-1,-4,2
3124,-6,8,1000,-1,0,2
3125,-19,-4,1017,1,1,-2
3126,-10,-6,994,1,1,-2
3127,-9,-5,990,-3,1,0
3128,-3,2,1010,-1,0,2
3129,-1,5,998,-1,-2,0
3130,2,2,1009,-1,-2,0
3131,-10,-1,975,-1,0,-2
3132,-11,-3,1008,1,0,0
3133,-7,-14,1014,-3,-2,0
3134,-9,0,1008,1,3,-2
3135,-5,-7,1006,-1,-2,-2
3136,-5,3,1001,-1,0,0
3137,4,6,1009,-1,0,0
3138,-7,4,1001,1,5,4
3139,-3,3,1004,1,1,-2
3140,-11,-7,999,-1,0,2
3141,-9,-5,996,-1,0,-2
3142,-7,-5,1002,-3,-4,2
3143,-7,-2,1012,1,1,0
3144,-2,0,1006,1,1,0
3145,-4,-6,1012,-1,0,-6
3146,-7,-5,1025,-1,0,0
3147,-11,2,995,-3,0,4
3148,-10,-5,996,-3,0,-2
3149,-15,-1,991,1,1,2
3150,-4,6,1002,1,5,4
3151,6,-2,1019,1,0,0
3152,1,1,1004,1,1,0
3153,2,-3,1013,3,3,0
3154,-11,5,1016,1,1,2
3155,-23,-7,992,-3,0,0
3156,-17,3,1003,-1,-4,2
3157,-10,-16,998,-1,0,-2
3158,4,4,1003,1,0,-4
3159,7,-6,998,1,1,-2
3160,3,-5,996,-1,0,2
3161,-8,-6,1010,3,5,2
3162,-18,-8,1009,1,1,2
3163,-17,-5,994,1,1,-4
3164,-7,0,1009,-1,-2,-2
3165,10,-2,998,-1,-2,2
3166,13,2,993,1,3,0
3167,11,-7,1004,3,1,0
3168,0,0,995,-3,-4,0
3169,-17,-4,1007,-1,1,2
3170,-24,0,1007,-3,1,0
3171,-8,-5,1002,-4,0,-2
3172,0,2,1012,1,3,-2
3173,12,-2,997,-1,-4,0
3174,14,2,990,1,3,0
3175,-9,8,1023,-1,0,0
3176,-18,-17,988,1,1,-2
3177,-19,1,1000,1,3,-2
3178,-11,-4,997,1,3,4
3179,-2,-14,1006,-1,0,2
3180,6,2,1011,1,1,2
3181,4,4,1015,-1,0,0
3182,-4,-5,1011,-1,-2,-2
3183,-18,-3,1016,1,0,-2
3184,-25,-12,996,-1,-2,2
3185,-3,-9,999,-7,-3,0
3186,-15,6,1004,-3,-2,0
3187,4,1,1008,-1,-3,2
3188,0,-7,984,-3,-3,-2
3189,-4,-6,1003,-3,-2,-2
3190,-9,-9,992,-1,-2,5
3191,-8,-8,1009,-1,-3,-2
3192,-20,-2,1008,1,0,0
3193,-1,4,1020,-1,0,-4
3194,-3,-3,991,1,0,-2
3195,-5,3,1008,-3,-2,0
3196,-2,-5,999,-1,-2,0
3197,-18,10,1007,2,0,0
3198,-12,1,996,1,0,2
3199,-3,1,999,1,0,0
3200,-1,-1,998,-1,-2,2
3201,-1,4,1006,-1,-9,-2
3202,-1,0,994,2,2,0
3203,5,-12,1008,1,-2,-2
3204,-10,-1,1018,-1,-2,-2
3205,-12,-2,1006,1,0,-2
3206,-13,-5,1009,-1,0,0
3207,-9,4,1022,-5,-2,2
3208,-3,-6,1002,1,2,3
3209,-3,3,1007,-1,-2,0
3210,-4,3,1005,-3,-3,0
3211,4,-1,979,1,0,-2
3212,-4,-2,1006,1,0,2
3213,-16,-6,1016,1,4,2
3214,-9,-3,1008,-1,-2,0
3215,-11,5,996,-1,-2,-4
3216,4,-5,997,-3,-3,0
3217,0,4,1014,-1,-2,2
3218,3,-8,1008,1,0,3
3219,-4,-5,1014,1,0,3
3220,-4,-5,999,1,0,0
3221,-12,-1,1012,-1,-3,-2
3222,-8,-8,1005,-1,-2,0
3223,-13,0,984,1,0,0
3224,3,-5,1010,-1,0,-2
3225,-10,1,1005,-1,-3,0
3226,-4,-4,1012,1,-2,0
3227,-7,-1,1005,1,0,-4
3228,-13,-7,992,-1,-2,0
3229,-16,5,994,-3,-3,2
3230,-1,-5,1001,-1,-2,2
3231,0,-12,1009,2,0,0
3232,-9,0,994,-1,-3,0
3233,-11,-8,1000,-1,-2,0
3234,-7,-3,990,-1,-3,-2
3235,-10,-4,994,1,0,0
3236,-1,-11,994,1,0,0
3237,-4,-2,1001,-1,0,-2
3238,-2,-6,999,1,0,0
3239,2,-5,1002,-1,-2,0
3240,-1,-2,993,1,0,2
3241,-12,-4,1008,-1,-2,2
3242,-6,-5,1010,-1,0,2
3243,-1,8,1006,-3,-3,-2
3244,-8,8,995,-1,-2,-4
3245,6,-1,1005,-3,-2,-2
3246,-9,-3,1001,1,2,0
3247,-6,-1,994,-3,-2,-2
3248,-7,1,1005,-1,-3,3
3249,-2,-5,1008,-1,-3,-2
3250,-6,-3,1006,4,0,-2
3251,-11,-7,1009,-1,0,2
3252,-6,3,1000,-7,-2,-2
3253,-10,-3,999,-1,-5,3
3254,-6,5,1007,1,2,0
3255,-2,-17,993,-7,-3,-2
3256,-7,-3,1004,-1,-2,0
3257,-9,-4,1009,-1,-3,2
3258,-8,4,1005,1,2,2
