sequence,AccelerometerX,AccelerometerY,AccelerometerZ,GyroscopeX,GyroscopeY,GyroscopeZ
0,2,2,996,1,0,-2
1,-7,0,1002,-1,0,0
2,-13,-3,1008,1,2,0
3,3,-6,1009,1,6,0
4,-9,7,995,1,2,2
5,-1,0,991,-1,0,0
6,0,-2,982,1,2,0
7,-4,-9,993,-1,0,-4
8,-5,-6,999,1,2,-4
9,-1,-8,998,-1,-2,-4
10,-9,-14,995,-3,2,-6
11,-11,1,1010,-1,2,2
12,-2,-3,1006,1,2,-4
13,-1,-6,996,1,4,0
14,-6,0,993,1,2,0
15,-4,7,992,-1,0,0
16,-1,0,1009,1,2,-2
17,-2,2,1002,1,4,-2
18,1,2,995,-1,-2,0
19,-7,-3,994,-1,4,-2
20,4,-11,1012,-1,0,-2
21,-3,3,1012,3,4,-2
22,-4,-7,1005,-1,-2,0
23,-2,-7,1011,-1,0,0
24,4,-7,1001,-1,-2,0
25,-11,-1,1004,-1,-2,0
26,-10,0,994,-3,0,0
27,6,10,1002,1,0,-1
28,-11,-8,1004,-1,-3,-1
29,-8,-9,1012,3,2,1
30,-8,-10,995,-1,-1,-3
31,2,-7,989,3,0,1
32,4,7,1007,-3,-3,1
33,1,20,999,1,-1,-7
34,-6,4,1003,-1,-5,-7
35,-7,-6,995,-1,-3,1
36,-10,-12,1005,1,0,6
37,-6,-3,1008,3,0,8
38,1,3,1006,-1,0,-3
39,0,-5,993,1,0,-7
40,-2,-3,996,-1,-1,-3
41,-6,16,1005,-3,-1,6
42,-5,15,995,-1,0,4
43,-6,-2,1008,-3,-3,1
44,0,-15,1012,3,2,-5
45,-4,-16,984,1,2,-1
46,-5,-4,1005,-1,-5,2
47,-8,16,1003,-3,-5,2
48,-4,13,986,-1,-3,-3
49,5,-5,1008,-3,-1,-3
50,1,-18,1012,1,2,1
51,-1,-11,1004,1,2,4
52,-9,4,1003,1,-1,4
53,-9,-2,987,-1,-3,-3
54,-7,1,993,-1,-1,-3
55,-1,0,1006,-1,-1,2
56,-9,2,1003,-3,-1,6
57,-10,-4,1007,-1,-1,2
58,-3,-14,999,-3,-5,-1
59,0,-3,999,-1,-1,1
60,2,-10,1000,-1,-3,2
61,-7,5,1018,-1,-3,-1
62,-6,4,1008,-5,-1,1
63,-2,5,1002,-3,-5,-1
64,-4,-13,999,-3,0,-1
65,-7,-4,1006,-1,-1,4
66,-3,-5,999,-1,-3,4
67,4,-1,1001,-1,-3,-1
68,-7,-3,1008,1,0,-3
69,0,4,1005,1,2,-3
70,-8,5,997,-1,-1,-1
71,5,4,1006,-3,-1,4
72,-8,-15,1006,1,0,2
73,2,-6,1008,-1,-1,-1
74,1,-9,994,-1,-1,-3
75,-1,-3,1004,-1,-1,2
76,-8,0,1003,-7,-3,6
77,-14,13,1010,-1,-1,-3
78,-1,-4,1001,-1,0,-1
79,-11,10,1010,-1,-5,1
80,1,-5,988,-3,-1,-3
81,-4,-5,987,-1,-5,-1
82,-3,8,1013,1,2,-3
83,-7,10,996,-3,-1,2
84,-9,-5,1005,-1,-1,-1
85,4,2,990,-3,-1,2
86,-3,-6,1005,-1,-1,-1
87,-10,11,1018,3,-3,1
88,-4,4,1020,-3,-1,2
89,-3,-5,984,-1,0,-1
90,4,6,994,-1,-1,2
91,-4,-4,994,1,2,1
92,-10,3,1000,-1,-3,-3
93,2,-5,1008,-1,-1,-1
94,-4,-8,993,-3,-3,-3
95,-8,-6,997,-1,-5,-1
96,2,-4,994,3,-3,1
97,4,-1,1012,-1,-1,1
98,0,0,991,-1,-1,-3
99,-4,1,1003,1,0,1
100,-11,4,1007,3,0,-3
101,-7,-8,995,-1,-1,2
102,-9,-7,1008,-1,-1,-3
103,-6,1,1004,-3,-3,1
104,-6,-6,1009,-1,-3,-1
105,-1,-2,1013,-1,-5,1
106,-3,-6,987,-1,-1,2
107,-3,-2,990,-1,-3,-3
108,1,-4,995,1,2,-1
109,-7,-5,998,-1,-1,-1
110,-11,-4,997,3,0,-1
111,13,-3,1002,3,-1,2
112,-9,-2,998,-1,-1,2
113,-3,-1,995,1,-1,1
114,-11,0,996,1,-1,1
115,-2,-3,1005,1,-1,-1
116,-4,3,1009,-1,-3,1
117,4,-6,1010,5,0,-3
118,-3,-5,1000,-1,-1,-1
119,-3,-8,997,3,0,-1
120,0,-3,1011,-3,-1,1
121,7,-2,1000,-1,-1,-1
122,-17,-7,1009,-1,0,-1
123,-6,-9,1002,-1,-3,-1
124,-4,-1,991,-1,-1,2
125,-7,-3,1008,-1,0,-1
126,-5,8,995,-3,-2,-1
127,-3,-4,995,-5,2,-1
128,-6,-10,999,1,0,-5
129,0,-4,1009,1,2,1
130,-9,2,996,-1,-2,1
131,2,-4,1001,2,-2,5
132,-2,-5,1009,-1,0,1
133,-10,0,998,2,2,1
134,-2,-2,1002,-3,0,1
135,-13,5,1008,-1,0,3
136,-4,-4,994,1,2,3
137,-3,-12,1000,2,2,1
138,3,-7,1007,-3,0,-1
139,-6,2,1010,1,4,1
140,0,-12,1010,-1,-2,3
141,-1,-3,1007,-1,-2,1
142,-3,-2,991,-1,-2,1
143,-9,4,987,1,2,-1
144,-8,-8,998,-1,2,3
145,-6,-10,990,1,4,1
146,-8,-3,1004,2,0,1
147,-2,-5,1011,-1,0,-1
148,1,3,1010,-1,-4,5
149,0,-2,997,-1,-2,1
150,-2,4,981,-1,0,1
151,-1,7,994,-1,0,-1
152,1,-6,991,-1,2,1
153,-9,-10,1006,-3,0,3
154,0,-3,1014,4,2,-1
155,1,-2,1005,-1,0,1
156,-4,-3,1003,1,2,-1
157,-4,-2,1008,-1,0,-1
158,2,-9,1002,-1,0,-1
159,5,-2,999,-1,0,-1
160,-6,-11,1016,1,4,-5
161,2,-7,1008,2,2,-3
162,-7,-2,1003,-1,-2,3
163,-1,3,1007,-1,-4,1
164,0,-5,1005,-1,-2,-1
165,-1,-3,999,0,2,-1
166,-4,-3,1003,-1,4,-3
167,-5,-8,1005,-1,0,1
168,-7,-5,996,0,4,1
169,-10,-3,1003,-1,-2,-3
170,-1,-6,1010,-1,-2,-1
171,-1,-6,1000,-1,0,-1
172,-5,0,1002,0,4,-3
173,-7,1,992,0,2,1
174,0,3,999,-1,0,-1
175,-4,7,999,0,2,1
176,-5,-6,999,-1,-4,-1
177,-9,-4,992,0,4,-1
178,8,1,988,-1,-2,1
179,-2,-7,1008,0,4,-5
180,-1,-3,995,-1,0,-3
181,-1,-6,1005,-3,0,-3
182,-8,3,1011,2,-2,-1
183,-17,-6,1014,0,0,-3
184,-8,-6,1001,2,6,1
185,-1,11,1000,0,2,-1
186,-4,-1,992,-1,0,-1
187,-7,3,995,-5,0,1
188,-6,-7,997,0,0,1
189,-6,-2,996,-1,0,5
190,-2,-2,995,2,2,-3
191,-11,7,998,-1,-3,-1
192,-7,3,1002,2,1,-3
193,-8,-3,1008,2,1,1
194,-12,-5,982,-1,1,1
195,-4,1,1006,0,1,3
196,0,-3,994,-1,-1,-1
197,0,-5,1005,-1,-5,1
198,-1,0,1001,2,7,1
199,0,-1,1003,-1,-5,-3
200,-8,7,995,-3,-1,1
201,-4,-8,997,-1,-1,1
202,-8,-2,1000,-1,-1,-3
203,-9,0,1006,-1,-3,3
204,-1,-1,1004,-1,-1,-3
205,-3,-5,1006,-3,-1,-1
206,-3,-3,1000,-1,-1,3
207,-4,2,1008,-3,-1,1
208,4,-3,993,-3,-1,3
209,-3,-1,999,-3,-3,-1
210,1,0,989,-3,-3,-3
211,1,-3,993,-3,-5,3
212,5,-2,1010,-1,-1,1
213,-11,-5,1004,2,1,1
214,-2,-5,993,0,1,-3
215,-11,2,1001,0,-1,-5
216,-1,0,1003,0,1,-3
217,-6,-6,1000,0,-3,1
218,-4,-4,1004,-1,-3,-3
219,-2,-6,999,-1,-1,-1
220,-2,-3,1002,0,-3,-1
221,-1,-5,1007,-1,1,-1
222,-8,-6,1012,2,1,1
223,-9,6,989,2,-1,1
224,-8,-2,1009,0,1,-1
225,-3,1,1006,0,1,1
226,-1,-2,994,-1,-1,5
227,-4,-6,1007,-1,-1,1
228,-6,-4,990,-1,-1,-1
229,-6,-1,996,-1,-3,-1
230,1,0,1001,-1,-3,1
231,4,-5,1009,0,1,1
232,-1,-1,1007,-1,-3,-5
233,-3,-2,995,-1,-3,-3
234,2,5,999,-1,-3,1
235,-10,-6,994,4,3,1
236,-6,2,1003,0,1,-1
237,-6,-1,1007,0,1,-3
238,-4,-7,996,0,1,-3
239,-1,-8,1002,2,1,-1
240,0,8,1014,2,1,5
241,-1,0,992,0,1,-3
242,-2,-3,1002,-1,-1,-1
243,-8,-9,994,0,1,-3
244,5,7,998,0,1,3
245,-6,-2,1002,-1,-3,1
246,-9,-3,998,0,3,-1
247,-1,-4,1000,0,1,1
248,-8,-2,1009,-1,-1,3
249,-13,3,1004,0,1,-1
250,-1,-2,1003,0,1,-1
251,-3,-6,1005,-1,-5,3
252,-1,1,1003,0,1,-3
253,-7,-5,1005,-1,-1,1
254,-5,-1,994,-1,-1,1
255,-13,-3,1005,0,1,1
256,-1,-7,1010,0,1,-1
257,-11,-4,1010,-3,-5,-3
258,0,13,1012,-1,-1,-3
259,-4,-7,1004,-1,-1,1
260,-2,0,1011,-1,-1,5
261,-6,-9,993,0,1,3
262,-9,4,998,-1,-1,3
263,-1,5,996,-1,-1,1
264,-7,-8,1012,2,1,-1
265,-1,-9,995,0,5,3
266,-6,-4,1006,-1,-1,-1
267,-2,-1,1001,0,1,-1
268,-4,4,1010,-3,-1,1
269,0,8,991,-3,-3,-1
270,0,5,1006,0,5,1
271,-9,-8,998,-1,-3,5
272,-1,-8,995,-1,-1,-3
273,-2,-2,990,0,1,3
274,5,1,1005,-3,-3,-1
275,-4,-11,1014,0,3,-3
276,3,-2,1002,0,1,-1
277,-8,-7,1003,-1,-1,1
278,4,-6,1007,-1,-1,-3
279,-2,1,999,0,-1,1
280,-11,-3,995,0,-1,1
281,-3,-3,1000,0,1,1
282,-9,-4,1001,-1,3,-1
283,-9,-2,1005,2,3,-3
284,0,3,1001,2,1,-5
285,-3,-7,1002,-1,1,3
286,-2,0,1001,-5,-3,-1
287,-2,4,1010,-1,-3,1
288,-1,-2,1013,-1,-3,-3
289,-8,1,1012,-3,-1,-3
290,-9,-6,989,-1,-1,3
291,-7,-12,989,-3,-1,3
292,-4,-5,1009,-1,-3,1
293,-3,1,1004,0,1,3
294,-7,4,1001,-5,-1,3
295,-7,0,989,-3,-1,-1
296,-2,-4,998,-3,-1,-1
297,-3,1,995,2,3,1
298,-4,-11,1010,2,3,-1
299,-6,-4,991,0,1,-3
300,-9,5,1000,-3,-5,-1
301,-6,4,992,0,1,3
302,-5,-7,990,4,3,3
303,-3,-12,1010,-1,-1,1
304,-11,7,1008,0,1,-3
305,2,1,1014,-1,-1,1
306,-8,-3,994,0,1,3
307,2,-3,993,-1,-3,-1
308,-3,-3,1006,0,1,-1
309,-5,4,996,-1,-3,-1
310,-10,0,1003,-1,-1,-1
311,-8,0,1012,0,1,5
312,-9,0,1007,0,1,1
313,2,2,1003,-1,-1,-1
314,-4,1,1011,-1,-5,-3
315,-2,-2,1008,0,-1,-3
316,6,-4,1003,-3,-3,-1
317,1,0,1010,-1,1,1
318,4,6,1003,-3,-1,1
319,-2,-6,995,0,1,-1
320,-10,0,1001,0,1,-1
321,1,-2,1000,0,-1,1
322,-6,-1,1003,-1,-3,1
323,-9,-6,1015,0,1,1
324,-8,-10,1013,0,1,-1
325,-2,-1,997,0,-1,3
326,-4,4,991,-1,-3,3
327,7,-7,990,-3,-3,-3
328,-2,-7,1005,-1,-1,-1
329,-1,-13,993,-1,1,-1
330,-6,2,1012,-1,-3,-1
331,-10,1,1003,0,1,-3
332,1,-3,995,0,1,-3
333,1,-6,1009,0,3,1
334,1,-3,979,-1,-1,1
335,-7,-6,996,-1,-3,-3
336,-2,-6,1004,-1,1,5
337,1,-5,1009,-1,-3,-1
338,-6,-4,1000,2,1,-3
339,-4,-5,1017,4,3,1
340,-6,9,1004,-3,-3,-3
341,-5,1,1006,0,1,1
342,-5,2,1000,0,1,1
343,6,-11,1014,-3,-3,-1
344,-4,3,998,0,1,-3
345,-5,-6,1008,-3,-3,3
346,-2,6,996,-1,-1,1
347,-3,1,1001,6,3,1
348,6,-7,1008,-1,-1,-1
349,-6,4,989,-1,-1,-1
350,-1,-1,996,-1,-1,-3
351,-12,-2,992,0,1,-1
352,6,-6,996,-1,-1,1
353,-10,8,1005,0,1,-1
354,-2,-9,1001,0,1,3
355,-5,-3,998,0,-1,1
356,-5,3,1002,-1,-1,1
357,-7,-2,1009,0,3,3
358,1,-8,991,0,-1,3
359,-4,-7,993,0,-1,-3
360,1,-4,1003,0,1,1
361,-9,4,983,-1,-3,1
362,1,2,999,-1,-1,1
363,-9,-9,1003,0,1,1
364,0,-1,995,2,3,1
365,-3,5,1015,0,1,-1
366,-9,-3,998,2,-1,3
367,-7,-4,1000,-1,-1,-1
368,6,-5,1008,0,-1,1
369,-13,-4,1007,-1,-5,-1
370,-1,-1,1011,2,1,1
371,1,-3,1016,2,1,3
372,-6,-3,1011,0,1,1
373,-11,1,998,2,3,1
374,-2,-6,1002,-1,-3,-1
375,1,-1,994,-3,-5,-1
376,-4,-11,1004,-1,-1,-3
377,-3,-8,1001,-1,-1,1
378,0,-5,1012,0,1,1
379,-1,-6,989,-1,-1,1
380,-5,10,1009,-1,-5,1
381,0,-3,996,-1,-1,3
382,-1,4,993,0,1,-1
383,1,6,993,-3,-1,-3
384,-4,-3,990,0,1,-3
385,-8,-10,999,-1,-1,1
386,-10,-10,994,0,1,3
387,-3,4,1014,0,1,-1
388,0,-7,999,0,3,-3
389,-7,-13,1004,2,1,1
390,0,-4,998,-1,-1,1
391,-3,-7,1003,-1,-7,1
392,-6,1,1012,-3,-1,-1
393,-3,-5,999,-1,-1,-1
394,-7,-7,1000,-1,-3,3
395,-12,-4,1009,-1,-1,-1
396,-2,-7,1007,0,1,3
397,0,3,998,-1,-1,3
398,-12,-3,999,-1,-3,-1
399,6,-8,1010,-3,-3,3
400,-7,-4,1001,-1,-1,3
401,-5,3,992,0,1,-1
402,-9,-2,996,0,3,-1
403,5,-8,1004,-1,-3,1
404,-2,4,998,-1,-1,1
405,-8,-5,1006,-1,-3,-1
406,1,-5,1000,0,1,-3
407,-1,-3,993,-1,-3,3
408,2,-1,1006,0,1,-1
409,-8,0,1007,-1,-1,-1
410,2,-3,1000,-1,-3,1
411,-5,-13,1003,-1,-1,1
412,-6,-8,995,-1,-1,3
413,-7,0,1013,0,1,-3
414,1,-2,1010,-3,-5,3
415,6,-11,999,-1,-3,1
416,-2,-7,998,-1,-1,-1
417,-6,0,995,-1,1,1
418,0,3,1002,0,1,3
419,-7,-2,1006,-1,-3,1
420,-6,-6,1002,4,3,3
421,-1,1,1013,-1,-1,-3
422,2,-9,989,-1,-3,-3
423,-3,-1,993,0,3,3
424,2,3,1009,-1,-1,1
425,0,-6,1005,-1,-3,-1
426,-5,-7,1017,0,1,-3
427,-5,5,1005,-1,-1,1
428,2,-4,993,-1,-3,1
429,-2,-11,1008,-3,-1,3
430,-6,-4,997,-3,-1,3
431,-3,-2,1005,-3,-3,1
432,5,-1,1009,4,3,-3
433,1,-8,1009,0,1,1
434,-1,0,1002,0,1,1
435,-1,-9,1008,0,1,-1
436,0,-10,1006,-1,1,3
437,1,0,986,-1,-3,1
438,-3,2,1004,0,1,-1
439,1,-2,994,0,1,3
440,-6,2,1007,-1,1,-3
441,-11,0,998,0,3,1
442,-4,-15,1013,2,5,-5
443,-2,3,1009,-1,-5,-3
444,-1,-7,1001,-1,1,-1
445,-3,2,993,2,1,-1
446,-4,-4,999,2,1,3
447,-1,4,995,-3,-1,-3
448,-7,-4,990,-1,-1,1
449,-8,-3,999,2,3,1
450,-8,-2,999,0,1,-1
451,-15,-7,1013,0,1,-1
452,-8,-2,1008,2,3,1
453,-9,0,998,0,1,-1
454,0,-6,983,2,1,-3
455,-10,7,1014,-1,-3,1
456,-2,-2,1003,-1,-1,-3
457,-8,0,992,-1,-1,-3
458,-8,-8,994,-3,-3,3
459,-7,0,1008,0,1,-1
460,0,-5,994,0,1,-1
461,-8,-13,1009,0,1,1
462,-3,-6,999,-5,-1,-1
463,1,-6,1005,-1,-1,3
464,-8,-6,1000,-1,-3,1
465,1,-9,988,0,5,-1
466,-5,-13,993,-1,-1,1
467,-11,-2,989,0,1,3
468,-4,-3,1003,-3,-1,-1
469,2,3,1007,-1,-1,1
470,-8,3,996,0,-1,1
471,-5,-6,1003,0,3,-1
472,-1,-7,991,2,1,1
473,-7,2,992,-1,-1,-3
474,-7,4,1000,-1,-5,1
475,3,-3,1011,-1,-1,1
476,-10,0,999,2,1,3
477,2,-12,989,-3,-1,1
478,-1,0,1015,-1,-3,3
479,-7,0,1005,-1,-3,3
480,3,5,1004,2,1,3
481,0,2,999,0,-1,-1
482,-8,-6,1000,-1,-1,-1
483,-1,-7,1008,-1,-1,1
484,0,-3,1003,0,1,-3
485,2,2,1006,0,3,1
486,-2,-3,1000,-1,-3,1
487,-2,5,1000,-1,-1,1
488,-6,-4,1009,-1,-1,1
489,-3,-8,992,0,1,-1
490,1,0,1010,-3,-1,-1
491,-3,-1,1004,0,1,1
492,-1,8,1008,-1,-1,-3
493,-4,-8,1004,0,-3,1
494,-2,-3,1002,0,1,1
495,-4,0,990,-1,-3,-1
496,-6,1,1001,4,3,-3
497,-3,1,1000,0,1,1
498,-1,-3,991,0,1,-1
499,7,-4,1000,-1,-1,1
500,4,-5,994,-3,-3,3
501,6,-1,998,-5,-3,1
502,-10,1,999,-1,-1,1
503,2,-2,988,-3,-1,-1
504,-8,-3,996,-1,-1,1
505,1,-6,993,-1,-1,1
506,0,3,1015,0,1,3
507,-3,-5,993,-1,-3,3
508,-4,-7,1003,-1,-3,-1
509,-7,-2,986,-1,-1,3
510,-4,-1,994,-1,-1,-5
511,-12,-3,1008,0,1,-1
512,-3,1,1005,-1,-5,1
513,-7,-5,990,-3,-5,3
514,-5,-2,1002,-1,-1,1
515,-8,-5,1015,0,3,1
516,1,0,989,-1,-3,-3
517,8,3,1005,0,3,-3
518,-3,-6,997,0,1,-1
519,0,-7,1003,-1,-5,-1
520,2,2,999,2,1,-3
521,-5,-7,1014,0,1,3
522,-13,1,990,0,1,3
523,-3,-8,991,2,-1,-3
524,-9,-3,1001,-5,-3,3
525,0,0,1013,0,-3,1
526,3,-6,998,-1,-1,1
527,-4,4,1008,0,3,1
528,0,3,1000,-1,-3,-1
529,-2,1,1003,0,1,-1
530,-1,-7,986,0,-1,1
531,-8,2,1001,0,-1,1
532,-4,8,1001,2,5,-1
533,-9,-3,999,0,3,-3
534,-5,-7,991,-1,-1,1
535,3,5,1013,4,1,3
536,-6,-14,997,-1,-1,-1
537,-5,2,994,-1,-1,-1
538,-7,0,984,0,-1,-1
539,1,4,991,-3,-1,1
540,0,-3,996,0,1,1
541,2,-2,992,-1,-3,-1
542,-6,-7,996,-1,-1,-1
543,1,-10,1002,-1,-1,-3
544,-10,-11,1007,0,1,3
545,-7,2,1010,-1,-3,-1
546,-3,0,990,-1,-3,3
547,-8,-7,999,-1,-1,-3
548,-1,-2,1002,-3,-5,1
549,-4,1,1001,-1,-1,-1
550,-10,0,988,-1,-1,1
551,-10,8,992,-1,-3,-1
552,-4,0,989,-1,1,-1
553,-6,0,1009,0,1,1
554,-4,-4,1000,-3,-5,3
555,4,4,1011,0,3,1
556,-6,1,993,0,3,1
557,-7,6,1000,-1,-1,-5
558,0,-4,1010,-1,-3,1
559,1,-4,984,2,1,1
560,3,0,1007,0,3,1
561,-2,-2,998,2,-3,1
562,-5,5,1000,0,1,3
563,-4,2,1004,-2,-5,-1
564,-9,1,1008,2,3,-1
565,-4,-5,1003,2,3,-1
566,-8,-4,995,0,-1,1
567,-3,1,1001,-2,-1,3
568,-3,3,1002,-2,-1,1
569,-2,-2,1005,0,1,1
570,0,-8,1000,-2,-1,-3
571,-4,-9,1001,4,-1,-3
572,-4,0,1006,2,5,1
573,-9,4,992,-2,-1,3
574,1,-6,999,-2,-1,1
575,-1,-1,1011,-2,-3,1
576,0,1,1008,-2,-1,-3
577,-2,-6,1005,-2,-3,1
578,-7,-5,998,0,3,1
579,-7,1,1000,2,1,-2
580,-8,-4,991,6,3,4
581,0,-16,998,-2,-3,2
582,10,1,1001,-4,-5,2
583,3,-2,1004,-2,1,-4
584,3,5,1009,-2,-3,2
585,-6,-4,994,2,3,-2
586,2,3,996,2,1,0
587,-12,1,998,-2,-3,-2
588,-12,-7,1001,0,1,-2
589,-7,5,1007,2,1,-4
590,-7,-11,1002,-2,-3,0
591,2,7,995,-4,-1,2
592,-7,-8,988,-2,-1,2
593,-13,-1,1003,-2,3,-2
594,-8,3,989,2,3,0
595,-3,-3,1009,0,1,0
596,1,2,996,0,1,-2
597,-1,-5,1007,-2,-1,0
598,-1,-11,995,0,1,0
599,-9,-5,996,0,-1,-2
600,-7,-5,1007,0,3,-2
601,-7,2,999,0,1,2
602,-11,3,1008,-2,-3,-2
603,-3,-2,996,0,-1,0
604,-8,-3,990,-2,-1,-2
605,-3,6,1008,-2,-3,-2
606,-1,-2,1009,-2,-1,-2
607,-6,-3,996,-2,-1,-2
608,0,1,991,-2,-3,0
609,-5,-4,1000,0,1,-2
610,4,-8,1005,-2,-1,-2
611,4,-12,1002,0,3,4
612,0,1,1002,0,1,-2
613,-6,1,999,-2,-3,-2
614,1,-6,1001,2,1,-2
615,-1,-2,1007,-4,-1,2
616,-9,5,997,-2,-1,2
617,-11,-5,999,-2,-3,2
618,-1,-4,995,-2,-1,0
619,0,-6,1003,-2,-1,-2
620,-7,0,1000,-2,-1,-4
621,-4,1,1002,-2,-1,0
622,0,-3,1008,0,-1,-2
623,-8,-6,1000,2,1,-2
624,-15,5,1001,0,3,2
625,-7,-3,1007,0,1,2
626,-2,-7,1003,-2,-3,-4
627,2,-2,996,-2,-1,0
628,-3,-3,1007,-2,-1,-2
629,-4,1,987,2,5,0
630,3,-2,988,0,-1,2
631,2,-4,1013,0,3,0
632,-3,-2,1004,-4,-3,0
633,-3,1,1002,2,3,2
634,-6,-5,988,0,-1,-2
635,-3,0,1015,-4,-1,-2
636,6,6,995,-2,-3,0
637,-3,-7,1006,-2,-1,0
638,0,-2,997,2,3,-2
639,-8,-6,1009,-4,1,0
640,-4,-2,1002,2,1,-4
641,-10,-2,1005,-2,-3,4
642,-6,-4,989,0,1,0
643,2,-3,1004,-2,-1,2
644,-1,-11,998,2,1,4
645,-8,-6,1011,-2,-3,2
646,-3,-7,985,-2,-1,2
647,-10,7,1009,0,1,0
648,-3,-6,994,-2,-3,0
649,-2,-10,1001,-2,-5,2
650,-17,-6,991,-2,-1,2
651,5,6,991,0,3,3
652,1,2,997,-2,-1,2
653,-2,-10,1001,0,1,2
654,-4,-2,1005,-2,-1,2
655,-7,-4,1000,4,1,2
656,1,-5,1002,-2,-3,2
657,-12,2,983,-2,-3,3
658,-10,-1,1009,-3,-1,0
659,-1,5,1004,-2,-5,2
660,-7,1,1001,-2,-3,5
661,-5,-6,1002,-5,-1,2
662,-1,-3,1004,0,1,2
663,-9,5,996,-3,-1,3
664,-3,-4,1003,2,3,-2
665,-5,-3,1012,0,1,-2
666,-11,-7,997,-3,-1,0
667,-5,1,1013,-2,-3,3
668,5,2,1018,0,-3,3
669,-2,0,1015,2,1,2
670,-11,-7,997,2,1,2
671,-12,-6,1005,-2,-1,-2
672,-13,-9,1010,-2,-3,0
673,-1,-6,1003,2,3,0
674,-2,5,988,0,3,2
675,-4,2,996,-2,-3,2
676,1,-2,1008,0,1,5
677,-11,-8,996,0,-3,3
678,-4,0,994,0,-7,-2
679,-9,-8,1011,-2,-1,0
680,-1,-1,1014,0,1,0
681,-4,-6,1009,0,3,-2
682,-12,3,991,2,1,2
683,0,-4,1004,-5,-1,0
684,0,-6,1000,0,-1,0
685,-2,-7,996,-2,-1,2
686,-1,5,996,0,1,0
687,1,-2,1012,-2,-3,5
688,1,-4,1001,-2,-3,3
689,5,-6,1001,-3,-3,-2
690,-14,-4,1010,0,3,5
691,0,-7,1002,-3,-5,0
692,-15,5,995,-2,-1,2
693,-9,4,987,-2,1,0
694,-5,-3,1008,0,3,0
695,-6,-2,1002,0,1,2
696,-11,1,989,-2,-1,2
697,-6,-6,996,-2,-3,3
698,-1,-3,996,-3,-7,2
699,0,-6,1000,-2,-3,2
700,-6,2,992,-2,-3,3
701,-4,3,994,-3,-1,2
702,-12,-3,1004,-2,-1,3
703,0,-12,996,-3,-3,0
704,-13,-12,1013,-2,-1,2
705,-11,-5,997,0,1,0
706,-1,3,1004,0,1,3
707,-6,-1,998,-2,-3,2
708,-1,-10,1006,0,1,2
709,-4,-3,1014,-2,1,0
710,5,-6,1015,-2,-3,2
711,-7,-5,1002,-2,-1,2
712,-7,-6,992,0,3,2
713,-8,-12,996,0,1,0
714,8,4,1011,0,1,2
715,2,4,992,0,1,-2
716,-8,-1,996,0,1,-2
717,4,-8,1005,-2,-3,0
718,-6,-3,1004,-2,-1,3
719,-10,-1,1001,-3,-3,3
720,1,-6,1003,-2,-1,2
721,-11,2,987,0,1,3
722,-2,-6,1003,0,-1,2
723,-8,0,1004,4,3,2
724,7,5,1002,0,1,0
725,0,-13,1000,2,1,2
726,-4,2,1003,0,1,0
727,0,-9,1009,-2,-1,0
728,-8,7,1000,0,-3,0
729,1,10,1009,0,-3,0
730,-6,5,1008,2,1,2
731,-9,1,1009,-3,-3,2
732,-3,4,1003,0,1,2
733,-3,-3,999,2,1,3
734,-10,-7,1007,-2,-3,2
735,-2,2,1000,-2,-1,0
736,-8,0,1002,-2,-3,0
737,-1,8,998,-2,-1,2
738,-1,-10,999,2,1,0
739,-4,7,1004,0,1,0
740,4,4,993,-2,3,-2
741,-1,0,1011,0,1,0
742,2,-5,1014,-2,-1,2
743,-3,-5,1005,2,1,-2
744,-2,-2,1001,0,1,2
745,-11,1,1004,-2,1,-2
746,2,-3,1006,0,-1,0
747,-7,0,993,0,1,-2
748,1,-2,992,2,1,-2
749,-9,-8,1010,-2,-1,2
750,-7,-10,1006,-4,-1,2
751,-5,-7,999,-2,-1,2
752,-2,4,1007,-2,-1,-2
753,0,1,1007,0,1,0
754,1,-2,1009,0,3,-2
755,1,5,1003,-2,-1,0
756,-12,1,1004,-2,-3,2
757,1,4,1000,0,-3,0
758,-3,-4,1006,-4,-1,-2
759,-3,-4,1001,-2,-3,0
760,-9,-8,999,-4,-3,-2
761,-3,-6,1011,0,1,-2
762,-8,-5,1002,0,1,-3
763,-5,0,1006,-2,-1,-2
764,-9,-4,1017,-2,-3,-3
765,-2,-2,1005,-2,-1,0
766,-10,2,1008,-2,-1,0
767,-8,-2,1006,-2,-1,0
768,5,4,1005,0,3,-2
769,5,-10,1015,0,1,-2
770,-7,0,1004,-2,-1,0
771,-7,-4,1003,2,1,0
772,1,-7,995,-4,-1,0
773,-10,-3,1007,-2,-3,0
774,-10,-7,1002,0,1,-3
775,-2,-2,1005,2,1,-2
776,-3,-4,996,0,1,0
777,1,-9,1020,-2,-1,0
778,-8,6,1001,-2,-3,0
779,2,-7,993,-2,-1,0
780,-11,-5,989,2,1,-3
781,-4,-11,1005,-2,-1,2
782,4,-5,1001,0,1,-3
783,-2,0,1000,0,1,-2
784,-4,-2,1006,0,1,0
785,1,1,1005,0,5,-2
786,-5,-9,995,0,1,0
787,-4,-4,1003,0,3,2
788,-3,-11,999,0,1,4
789,-12,-1,1004,0,3,2
790,-7,-6,1006,0,1,0
791,-1,-11,1010,0,1,-2
792,-7,-1,993,0,-1,-3
793,-1,0,1004,-2,-3,-2
794,-6,2,997,2,3,0
795,-7,-4,1002,0,1,2
796,-7,1,999,-2,-3,0
797,-5,1,1002,-2,1,2
798,-1,-4,1010,-2,-5,-2
799,-2,-2,1008,-4,-3,0
800,-6,-4,996,-2,-3,-2
801,-7,-2,997,2,1,2
802,-3,-5,1013,-2,-1,-2
803,-2,5,999,-2,-5,-2
804,-2,2,986,-2,-1,-2
805,-8,5,1005,0,1,0
806,-3,-3,1013,0,1,2
807,-1,-6,1004,-2,-1,0
808,-4,2,1003,2,-1,-3
809,-9,-3,1001,-2,-3,2
810,-3,3,997,0,1,2
811,-6,-5,1003,0,-1,-3
812,0,2,1005,-2,-7,0
813,2,-5,1002,0,1,-2
814,2,-9,1003,2,1,-3
815,-3,-2,1011,0,3,-2
816,0,-5,1019,0,1,0
817,-6,0,998,-2,-1,-2
818,-5,10,1011,0,3,0
819,7,-4,1005,-2,-3,0
820,-2,-2,999,0,3,0
821,-7,1,991,0,1,2
822,-11,3,1004,-2,-1,-2
823,6,2,1002,2,1,0
824,0,-7,1001,0,1,0
825,-4,-9,1008,-2,-3,-2
826,-3,1,1010,2,1,-2
827,-11,-2,1005,0,-3,-2
828,-2,-8,1003,-2,-1,-2
829,4,4,1002,-2,-3,-2
830,-1,0,1002,-2,-1,-2
831,-12,-4,1000,-2,-1,0
832,-6,-7,996,-2,-3,-2
833,-2,-11,998,0,3,-2
834,-7,-3,1007,0,1,0
835,-1,-4,1002,-2,-1,0
836,-9,0,1006,-2,-1,-3
837,-7,-10,1002,0,1,-3
838,-6,0,985,0,1,0
839,-8,-5,1005,2,1,0
840,-4,-7,1016,-2,-1,-2
841,-9,-10,1002,-2,-3,0
842,-6,6,1010,0,1,-2
843,-2,-3,1013,-4,-1,-2
844,-2,-2,992,0,1,-2
845,-6,-2,1015,-2,-3,-2
846,-9,-3,999,-4,-3,0
847,-8,-8,996,-2,-1,2
848,3,-9,1006,0,1,0
849,1,-9,1012,-2,-1,0
850,4,-4,1010,0,-1,2
851,-3,-8,996,-2,-5,-3
852,-13,0,998,-2,-1,0
853,-4,4,1000,-4,-3,2
854,-3,1,998,-6,-3,0
855,-8,-1,1018,-2,-5,-2
856,1,-2,1007,-4,-3,0
857,-2,2,995,2,-1,-2
858,2,-3,999,-4,-3,4
859,-7,-3,996,0,1,2
860,-4,10,996,-2,-1,-2
861,-10,-6,999,-2,-3,0
862,-4,-4,1016,0,-1,0
863,4,-6,999,-2,-1,-3
864,-2,-5,997,0,3,0
865,-2,-6,994,-2,-1,2
866,-15,-8,1000,-4,-3,-2
867,-3,-3,987,0,1,0
868,-3,2,990,-2,-1,0
869,2,-9,1006,2,1,0
870,-12,1,996,-2,-1,-3
871,-2,0,1013,-2,-1,0
872,-2,-3,989,-6,-1,2
873,-9,3,1001,0,-1,-2
874,-8,-12,994,-2,-1,0
875,-1,-10,995,2,1,0
876,-7,-15,1017,0,1,2
877,-14,6,1007,-2,-1,0
878,-5,-4,1007,-4,-7,2
879,-3,-5,1006,-2,-3,0
880,0,-5,1022,-2,-1,-2
881,-2,-3,1001,0,1,0
882,4,-7,1000,0,1,-2
883,-7,5,1003,0,1,-3
884,-7,1,988,2,1,2
885,-7,0,1003,-2,-3,-2
886,-7,-1,1021,-2,-5,-2
887,1,0,1001,0,1,0
888,2,4,1013,-2,-1,0
889,-11,-6,1006,-4,-3,-2
890,3,5,1009,-2,1,-2
891,-4,-4,1005,-2,-3,0
892,-3,-1,1013,0,1,-2
893,-2,11,1000,-2,-1,-2
894,-1,4,1003,-4,-1,-2
895,-1,2,1006,-4,-1,0
896,-4,-4,996,-2,-1,-2
897,-15,3,1003,-2,-3,-2
898,-5,-4,998,-4,-1,4
899,-6,-9,1001,-4,-1,-3
900,-7,1,1004,-2,-1,0
901,-3,7,999,-2,-1,2
902,-1,4,998,-2,-1,0
903,0,-7,990,-2,-1,2
904,-15,-6,1011,0,1,0
905,-4,3,1000,3,1,0
906,2,1,1000,-1,-4,0
907,0,1,1000,-1,-1,-2
908,-7,5,995,1,-1,0
909,4,-4,1012,1,3,-2
910,-4,1,996,1,1,-2
911,-3,-4,1002,-1,-3,-4
912,-7,-3,1003,-1,-1,-2
913,1,-7,1005,3,1,4
914,-10,-7,1000,1,-1,2
915,0,3,1006,3,1,-2
916,-1,-3,1000,3,1,-4
917,-3,2,992,-1,-3,0
918,1,2,999,1,1,2
919,-3,0,1005,-1,-1,0
920,-1,-4,1009,-3,-3,0
921,-9,-6,1009,-1,-1,0
922,-6,-3,994,-3,-3,0
923,-7,-11,1005,-1,-1,0
924,-7,-5,999,3,1,2
925,0,1,988,-1,-1,-2
926,-9,-1,1000,1,1,-2
927,1,-5,1007,1,-3,-4
928,-8,-2,1002,-3,-3,0
929,-4,1,1015,-1,-1,0
930,-4,1,1001,-1,-4,0
931,6,1,998,-1,-1,2
932,10,1,992,-1,-3,0
933,-1,-3,998,1,1,0
934,-4,7,1007,3,3,0
935,-1,-4,999,3,3,0
936,-4,-13,1001,-3,-1,2
937,-8,-10,999,-1,-1,0
938,-6,-5,1011,1,3,-2
939,-2,-5,1014,-1,-1,-4
940,4,-7,1007,-1,-3,2
941,-10,-2,1004,1,1,0
942,-4,-2,1011,-1,-1,0
943,-3,-1,995,-1,-1,0
944,-9,-9,1018,1,3,-4
945,7,-4,1004,1,1,-2
946,-4,0,995,-1,-3,0
947,-3,-4,1008,-1,-1,-2
948,-2,-8,1014,-1,-1,-4
949,4,-4,1003,-1,-1,4
950,-7,-8,1012,1,1,-2
951,-7,-8,999,1,-1,0
952,-5,3,994,-1,-1,-2
953,0,-7,994,1,3,-2
954,-13,-9,1004,3,1,0
955,-2,0,997,1,1,4
956,-6,0,995,1,1,0
957,-7,-10,993,1,-1,2
958,-9,-5,1001,1,1,-2
959,-8,2,1004,1,1,-2
960,10,-6,1005,-5,-1,-2
961,-5,1,991,1,3,-2
962,-7,-6,1002,-1,-1,0
963,-1,-10,993,3,3,-4
964,-6,-1,999,-1,-1,-2
965,-2,-3,1010,-1,-1,-2
966,-13,-6,1005,-3,-1,0
967,0,-6,1007,-1,1,0
968,0,-3,995,-1,-3,0
969,3,-2,989,1,1,0
970,-7,-10,1006,1,1,0
971,-4,-8,1004,-1,-1,-2
972,-7,7,994,-1,-1,-4
973,-2,-1,986,-1,-1,-2
974,-2,0,1008,-1,-1,4
975,-5,-3,1002,1,-1,0
976,5,1,1007,-1,-1,0
977,-3,-5,1004,1,1,-2
978,-9,2,998,3,3,0
979,2,3,1009,-1,-3,0
980,-6,-6,1010,-3,-1,2
981,-5,-4,999,-1,-3,2
982,-9,-3,993,-1,-3,-2
983,1,-11,1004,1,1,0
984,-3,-8,1014,-1,-1,2
985,7,-13,997,1,-1,-2
986,-4,3,1021,1,-1,-2
987,-1,3,1003,1,3,-2
988,0,4,1000,1,3,0
989,-3,6,1008,-1,-1,4
990,-2,5,1004,-1,-3,0
991,2,-8,1002,-1,-3,0
992,0,0,1006,-1,-1,2
993,-6,-3,1006,-1,-1,-2
994,0,5,990,1,-1,0
995,-7,1,1001,-3,-3,-2
996,1,2,994,-1,-1,-2
997,-6,6,989,-1,-1,0
998,-4,0,990,1,1,0
999,-8,-6,1008,3,3,-4
1000,-7,-9,1003,-3,1,2
1001,-8,-2,996,1,-1,-2
1002,-5,5,1009,3,5,0
1003,-4,-4,996,1,1,-4
1004,2,-4,998,1,1,2
1005,-3,2,1006,-1,-1,0
1006,-3,1,1003,1,1,-2
1007,-3,3,1000,1,1,0
1008,-9,-7,1013,1,1,-2
1009,-6,-4,996,-1,-1,0
1010,-3,1,999,-1,-1,0
1011,-12,-9,1003,1,1,0
1012,-3,0,999,1,1,-2
1013,2,-6,1008,-1,-3,2
1014,-2,1,1001,3,1,0
1015,-3,-6,1009,-1,-1,0
1016,-9,-7,1001,1,1,2
1017,-10,-8,990,-1,-1,2
1018,-10,1,1005,-1,-4,-2
1019,-4,-3,985,1,-1,4
1020,-3,0,1009,3,3,2
1021,-6,-3,1005,-1,-1,-2
1022,-6,4,988,3,1,0
1023,-4,2,993,3,3,-2
1024,-10,6,995,-1,-1,-2
1025,-8,-4,1003,-7,-3,0
1026,-4,-3,1016,-1,1,-2
1027,-6,-8,999,-1,-3,2
1028,0,0,1004,1,1,0
1029,-8,-5,1018,-5,-3,-2
1030,-10,4,997,-1,-1,-4
1031,-3,1,1010,1,1,0
1032,-4,-5,997,1,-1,-2
1033,-4,-3,988,3,1,-2
1034,-2,0,1006,1,-1,0
1035,-8,-5,1008,-2,-1,0
1036,-4,6,1011,-3,-3,-4
1037,-3,-2,1002,0,1,0
1038,-2,-4,976,0,-1,-6
1039,-8,-1,995,0,1,-4
1040,-7,-5,1007,-3,-3,2
1041,-3,13,1001,-2,-1,0
1042,-7,7,998,0,-1,-2
1043,8,0,1010,0,1,-2
1044,-4,-9,1001,0,3,-2
1045,1,0,995,0,1,-2
1046,0,-4,987,0,1,-2
1047,-8,1,999,0,-1,0
1048,-11,-3,998,-3,-1,0
1049,-3,-6,1002,-2,-1,-2
1050,0,4,1012,2,3,-6
1051,-7,3,1010,-2,-1,-6
1052,-3,-7,998,-2,-1,0
1053,-2,0,999,0,1,0
1054,-10,-7,1013,-2,-1,0
1055,-3,-2,1012,-2,-1,0
1056,-6,-4,1003,4,5,0
1057,-6,8,996,0,1,0
1058,-1,0,1000,2,1,2
1059,-6,-6,1009,-2,-3,-2
1060,-10,0,995,-2,1,2
1061,-4,2,1010,-2,-3,0
1062,-7,-9,998,0,1,0
1063,1,-1,1006,0,1,4
1064,-7,-3,1009,0,3,0
1065,-3,1,1007,0,1,-4
1066,1,1,1007,-2,-1,-2
1067,-13,-4,1012,0,3,-2
1068,-4,1,1003,0,-1,0
1069,2,-7,988,0,1,2
1070,-9,0,1005,2,1,2
1071,-6,-6,1001,0,1,2
1072,-8,12,1002,-2,-1,-2
1073,-4,-2,996,0,1,-4
1074,-1,1,1000,0,1,-2
1075,-9,-3,1013,-2,-1,-2
1076,-4,6,994,-2,-3,4
1077,-10,0,998,0,1,0
1078,1,-1,1004,-2,-3,-2
1079,-9,0,1003,-2,1,0
1080,-1,4,1012,-2,-1,2
1081,-8,-12,991,2,1,2
1082,4,-1,1000,0,-1,0
1083,-11,-12,1010,-2,-1,0
1084,-7,-6,995,0,1,2
1085,0,-8,1015,-2,-1,0
1086,-8,-1,991,0,1,0
1087,2,-6,1010,-2,-1,0
1088,0,-3,1003,-2,-1,-2
1089,2,3,1003,-2,-3,0
1090,-7,7,1011,-2,-3,-2
1091,-9,-3,1003,-2,-1,0
1092,-2,-3,1022,-2,-3,-2
1093,-4,4,1008,0,1,0
1094,-5,-4,1010,2,1,0
1095,-6,-5,1003,-2,-1,0
1096,-3,1,1003,-2,-1,0
1097,-3,-6,1017,0,1,-2
1098,-3,-3,1008,2,3,-2
1099,2,-5,992,2,1,0
1100,-6,1,1008,-3,-3,0
1101,-3,-6,1003,0,-1,0
1102,-4,-2,1003,0,1,0
1103,2,-5,996,0,1,2
1104,-3,1,994,0,1,0
1105,0,1,995,-2,-1,-2
1106,-2,-11,1013,0,3,2
1107,-7,-4,1011,0,3,-2
1108,-1,-8,1000,-2,-1,0
1109,-7,-3,991,0,1,-4
1110,-8,-12,990,-2,-1,-2
1111,-1,-4,995,-2,-5,-4
1112,0,-3,1014,0,-1,2
1113,-6,-7,999,-3,-1,-2
1114,-13,0,1012,0,3,-6
1115,-3,6,1005,0,1,-4
1116,-3,3,990,2,1,-2
1117,-9,4,998,0,1,0
1118,-5,6,996,0,3,2
1119,0,-12,997,2,-1,-2
1120,-2,0,1004,0,-1,0
1121,-12,-5,1008,-3,-5,-2
1122,-4,-6,995,4,1,-2
1123,-3,-3,1011,0,1,0
1124,-8,3,998,-2,-3,-2
1125,-6,2,999,0,3,2
1126,-1,-5,1004,-5,-5,2
1127,4,-3,1004,2,3,-6
1128,-16,-6,1005,-3,1,-2
1129,-9,-4,1004,-3,-1,0
1130,-4,-4,1001,-2,-1,0
1131,-8,0,1006,-2,-1,-2
1132,8,-3,1005,0,1,2
1133,-4,2,991,-2,-3,0
1134,1,1,1005,-2,1,-4
1135,2,2,992,-2,-5,0
1136,-3,-2,1009,-2,-1,-4
1137,-9,-2,1007,-2,-5,0
1138,-9,2,1000,0,1,-2
1139,-7,2,998,2,1,-4
1140,-10,-6,1006,2,1,4
1141,-4,-7,1001,4,3,0
1142,-5,-3,1012,0,5,-2
1143,-2,3,987,0,1,-2
1144,-2,-6,996,-2,-3,-2
1145,-5,-4,995,-2,-3,-2
1146,-1,-5,999,0,1,0
1147,-2,-11,1015,0,1,4
1148,-6,-10,997,0,1,-2
1149,-6,0,994,4,1,2
1150,-7,-8,1007,4,3,-4
1151,5,5,1003,-2,-1,2
1152,-3,-4,1007,0,1,0
1153,-8,-6,1000,2,1,-4
1154,-5,-4,995,-2,1,-2
1155,2,0,1003,0,1,2
1156,3,-5,1017,-2,-5,-2
1157,-1,-2,999,0,-1,0
1158,-10,-6,996,-2,-1,0
1159,-4,-5,1013,-2,-1,-2
1160,-4,-3,992,0,1,-4
1161,-4,1,1011,-2,-1,-2
1162,-3,-3,1007,-3,-1,-2
1163,0,-4,1005,-2,-1,2
1164,-10,-7,1002,-2,-5,-2
1165,-1,-10,1012,0,3,-4
1166,-7,3,1009,0,1,-2
1167,0,-4,1002,-2,-1,-2
1168,-10,0,1002,0,-3,0
1169,-11,-11,985,4,1,0
1170,8,-5,986,-2,-1,-2
1171,-3,0,1015,-2,-3,-2
1172,4,-11,1012,-2,-1,0
1173,-5,-7,1014,0,1,0
1174,4,-13,1013,0,1,0
1175,-2,2,995,-2,-1,2
1176,0,-3,993,2,1,0
1177,-1,-3,1011,-2,-1,2
1178,-2,-6,998,0,1,-2
1179,-7,5,1002,2,-1,0
1180,-4,-4,1009,-2,-1,2
1181,-8,4,1008,-2,-3,0
1182,2,-3,999,2,1,-6
1183,-5,-9,1009,-2,-1,-2
1184,-3,0,989,-3,-5,2
1185,-4,8,1000,-2,-5,-2
1186,2,-2,1007,0,1,2
1187,-10,-4,992,-2,-1,-2
1188,-2,5,981,-2,-1,-2
1189,-10,1,1014,-2,-1,-2
1190,-6,1,996,-2,-3,-2
1191,-8,-5,1001,-2,-3,-2
1192,-3,-1,1005,-2,-1,0
1193,-10,5,1010,-2,-1,-2
1194,-12,3,1000,0,1,0
1195,-8,-3,1009,2,3,-4
1196,-7,-1,992,-2,1,0
1197,-3,-2,991,-2,-1,-4
1198,-1,-13,993,0,1,-2
1199,-3,-4,1020,0,1,0
1200,-7,-8,1012,-2,-1,0
1201,-2,-3,985,-2,-1,-2
1202,-1,-2,1004,-2,-3,4
1203,-2,-4,991,0,1,0
1204,-3,9,1015,0,1,0
1205,-12,-9,984,0,5,-2
1206,0,-4,1003,-2,-1,0
1207,-4,-3,1018,-2,3,-2
1208,-8,5,1007,0,1,0
1209,-6,-2,1010,2,3,0
1210,-5,4,996,-2,-1,0
1211,-2,3,1002,0,3,-4
1212,0,-3,994,2,5,0
1213,-1,-7,1012,0,3,0
1214,-2,5,1008,-3,-1,-2
1215,-3,-6,991,-2,-1,-2
1216,-11,-6,1005,0,1,0
1217,2,-7,1005,-2,-5,-4
1218,-5,0,999,-2,-5,-2
1219,-5,-3,1000,2,-5,0
1220,-4,-4,1002,0,-3,0
1221,-2,3,995,0,3,0
1222,-7,1,994,2,3,2
1223,3,-2,1003,2,1,0
1224,-8,-5,1014,-2,-5,2
1225,-8,0,999,-3,-5,0
1226,-5,2,1001,-2,-3,0
1227,-7,0,1023,0,-1,-2
1228,1,-2,1009,0,7,2
1229,-9,6,1003,0,1,0
1230,0,-11,1002,-2,-3,0
1231,-3,4,998,0,3,0
1232,-12,2,1005,0,3,-4
1233,-2,1,1011,-2,-3,-2
1234,-1,-2,985,-3,-3,0
1235,1,1,1002,-2,-1,-4
1236,4,-11,1015,-2,-3,-4
1237,-6,6,994,0,1,-2
1238,-8,4,994,-2,-1,0
1239,-4,-5,1002,0,1,2
1240,-9,5,1011,-2,-1,0
1241,-4,-11,999,-2,-1,-2
1242,-9,-4,1005,0,-1,0
1243,-7,-5,1006,0,1,-2
1244,0,2,998,0,1,0
1245,-2,-1,997,-2,-5,-2
1246,-13,-4,999,-2,-1,-2
1247,-1,-8,1001,-2,-1,0
1248,-4,2,1008,-5,-1,0
1249,0,1,1002,2,1,-2
1250,1,0,1008,-3,1,0
1251,-2,2,998,2,1,2
1252,-6,-8,994,-2,-1,0
1253,-8,5,1009,0,1,0
1254,-2,-4,1013,-3,-3,0
1255,-4,-4,999,-2,-1,-2
1256,-6,3,1001,0,3,-2
1257,-9,-8,1005,2,1,-2
1258,3,0,998,-2,1,-2
1259,-2,-3,1000,-2,-1,-2
1260,-3,-3,994,-2,-3,0
1261,-3,-2,1003,-1,-3,-3
1262,-1,-5,1008,-1,-1,-1
1263,-6,5,1006,3,3,1
1264,-4,1,1006,1,1,1
1265,-4,9,1012,3,1,5
1266,1,-2,999,-1,3,1
1267,-9,5,1001,3,1,1
1268,-7,-4,1021,3,1,3
1269,-3,2,990,1,-3,1
1270,-7,-2,1010,-1,-1,3
1271,-4,5,995,-3,-3,-1
1272,-12,-4,1004,-1,-3,3
1273,0,6,1004,-1,-1,-1
1274,-13,-3,1003,-3,-1,3
1275,-8,10,1021,-5,1,-1
1276,8,2,998,-1,-1,3
1277,-7,-7,1012,-1,-7,5
1278,-2,-2,998,1,3,1
1279,-1,4,1013,-1,-5,1
1280,-2,1,1000,3,1,3
1281,-4,1,994,-1,-1,-3
1282,0,-2,989,-1,-1,-3
1283,-3,-5,1005,-3,-1,1
1284,-1,1,999,-1,-1,-3
1285,-3,-4,997,1,3,3
1286,-7,0,990,-1,-1,-1
1287,-7,-11,1008,-3,-3,-3
1288,1,-1,1010,1,3,-1
1289,-5,7,1005,-1,-3,-1
1290,-5,-6,1011,-1,-1,-1
1291,-2,-6,1004,-3,-3,3
1292,-3,-3,991,1,1,1
1293,-3,-4,996,-1,1,1
1294,-6,4,1005,-1,-1,-1
1295,-11,-5,1007,1,1,1
1296,-4,3,994,1,1,1
1297,-5,-3,996,-1,-1,1
1298,-6,-10,1002,-1,-1,1
1299,-6,-4,1000,3,1,-1
1300,-6,3,991,-1,-1,3
1301,-2,-2,988,1,1,-5
1302,-4,-9,999,3,1,-3
1303,-9,-7,998,1,1,1
1304,-12,1,1025,-1,-5,-1
1305,-9,-3,1019,1,3,1
1306,1,1,1002,-1,-3,5
1307,-2,-4,995,-1,-1,1
1308,0,-7,992,1,1,1
1309,1,5,1003,1,1,-1
1310,-8,8,1000,1,3,1
1311,-4,-4,1010,-1,-1,-1
1312,-7,1,1005,-3,-1,-1
1313,-3,2,1008,3,1,1
1314,-6,-2,989,1,3,3
1315,-10,0,1003,-1,-3,6
1316,-4,0,984,1,1,-1
1317,-5,-3,1001,-1,-5,3
1318,-2,-4,997,-3,-5,1
1319,-8,-2,1005,-3,-1,1
1320,-10,-6,1011,-1,-3,1
1321,-4,2,995,1,1,-1
1322,-1,9,987,1,3,-1
1323,5,-5,1002,1,1,-5
1324,-8,-4,1002,1,3,1
1325,-8,2,993,1,-5,-1
1326,-3,3,1003,-1,-3,-3
1327,-6,2,1004,-3,-1,-3
1328,-8,4,1007,3,1,-1
1329,-2,-6,995,-1,-1,1
1330,-3,-1,998,-3,-5,3
1331,-5,4,1009,-1,-1,-1
1332,-8,3,990,-1,-3,1
1333,2,-3,1010,1,1,-1
1334,-5,-2,1003,1,1,1
1335,-4,-5,1003,-1,-1,-3
1336,-7,3,996,1,-1,-5
1337,5,-5,994,-1,1,-1
1338,-6,7,1006,1,1,1
1339,-7,-4,1000,1,1,1
1340,-2,-2,1002,1,3,1
1341,-4,-2,989,-1,1,3
1342,-2,-3,1013,1,1,1
1343,-5,0,1002,1,1,1
1344,1,-5,994,1,3,-1
1345,-3,-1,1006,-1,-1,3
1346,-1,1,1004,-1,-1,1
1347,-6,-3,985,1,1,-3
1348,1,3,996,1,-1,-3
1349,-11,-2,1001,-5,-3,1
1350,1,-2,997,-1,-1,-3
1351,-1,-5,1003,1,1,3
1352,-9,0,1007,-1,-1,-1
1353,4,-5,999,-3,-1,-1
1354,-1,4,1013,-3,-1,-1
1355,-6,1,995,-3,-3,-1
1356,1,-5,992,-5,-1,1
1357,-6,-1,1007,-1,-3,-1
1358,-1,-6,1001,1,3,3
1359,-9,-5,1003,-1,-1,3
1360,-11,-3,1004,3,1,1
1361,-9,-4,1005,1,-1,-3
1362,1,4,1000,1,1,-1
1363,-3,-9,995,1,1,1
1364,-6,-9,994,1,1,-1
1365,-1,0,1006,1,1,1
1366,-18,-4,1001,1,3,-1
1367,-4,0,990,1,1,1
1368,-8,-7,993,-3,-1,1
1369,-4,-5,1003,-1,-3,1
1370,0,0,1010,1,1,-1
1371,-4,-2,1006,-1,-1,-3
1372,-6,-7,1002,3,1,-1
1373,-2,-4,1002,1,1,1
1374,2,-7,992,3,-1,1
1375,-4,-4,990,3,1,1
1376,-3,-3,1010,1,1,-3
1377,1,4,997,-3,-1,1
1378,2,-6,1000,-3,-1,1
1379,-3,-4,994,1,1,1
1380,0,-2,1004,1,-3,-1
1381,-4,-7,1002,1,1,1
1382,-8,1,999,-3,-3,1
1383,-6,-6,1009,-1,-5,-1
1384,-8,-3,1004,-1,1,-1
1385,-2,-13,990,-1,-1,-1
1386,-4,4,997,1,1,-3
1387,-4,-6,991,-1,1,-1
1388,-3,-2,1009,1,1,-1
1389,-2,2,1016,-1,-1,-1
1390,0,-3,1012,1,3,3
1391,-10,-9,1001,1,-1,-5
1392,-9,-8,1010,1,1,-3
1393,-10,-6,1007,3,1,1
1394,-10,-3,1011,-1,-1,-1
1395,-2,-3,1002,-1,-1,1
1396,-3,-3,991,-1,-1,-3
1397,-6,3,999,1,1,-3
1398,-12,-5,1008,-1,-1,-1
1399,0,-2,994,3,1,-1
1400,-6,-5,1007,-1,-1,-1
1401,-1,5,1002,3,1,-1
1402,-1,-8,1005,-1,-1,1
1403,-13,-3,989,1,3,1
1404,-6,-4,1002,1,3,-1
1405,-13,-3,1001,-1,-3,-3
1406,-7,5,1005,1,1,-3
1407,0,0,1000,-1,-3,1
1408,-3,-6,999,-1,-1,1
1409,-3,-5,1004,-1,-1,-1
1410,-8,-1,991,1,1,-3
1411,-8,6,1006,1,1,-1
1412,-2,-10,1004,3,1,-1
1413,4,-4,1012,-1,-3,-3
1414,-10,3,1005,1,1,-3
1415,4,-5,1010,3,1,-1
1416,-13,2,1005,-1,-1,3
1417,2,7,1011,-1,-3,-5
1418,-7,-2,1015,1,1,-3
1419,-8,-7,1012,3,3,3
1420,-10,3,1006,1,1,-3
1421,0,-2,1008,3,1,-1
1422,-5,3,1003,-1,-1,-1
1423,-3,1,1015,-3,-3,-1
1424,4,-2,998,1,3,-3
1425,-6,6,1000,-1,-1,-3
1426,0,-4,994,1,-3,-3
1427,-5,-3,1005,3,3,-5
1428,-3,-2,1008,-1,-1,-3
1429,-7,-4,1013,-3,-3,-3
1430,-12,-8,1006,1,1,-3
1431,1,2,995,1,-1,-5
1432,-11,1,1010,1,1,-1
1433,-14,-2,1006,-3,-1,-3
1434,-8,6,991,1,1,-1
1435,-4,-3,993,-3,-1,-3
1436,-1,3,1000,-1,-5,-5
1437,2,-1,1009,1,3,-1
1438,-4,0,1000,1,1,-5
1439,-3,-3,1004,-1,-5,-3
1440,-6,0,998,-1,-1,-1
1441,5,5,1006,-1,-3,-1
1442,-2,3,1000,1,3,-1
1443,5,0,1002,-3,-1,-3
1444,-2,-5,1008,1,1,-3
1445,-13,-3,1005,-1,-1,-1
1446,-6,5,998,1,1,-1
1447,-12,0,996,3,1,-5
1448,-12,-1,1002,-1,-1,-1
1449,-5,-5,1010,-1,-1,-3
1450,1,3,1007,1,1,-3
1451,2,-6,995,-1,-1,1
1452,-10,4,1010,3,1,-3
1453,3,-2,1007,-1,-1,-3
1454,-11,6,1006,1,1,1
1455,-1,-3,1007,1,-1,-1
1456,-2,-8,999,-1,-3,-7
1457,-3,-2,996,1,1,-5
1458,-7,0,1005,1,5,-3
1459,-3,-8,999,1,3,-1
1460,-4,-12,999,-1,-1,-1
1461,2,-4,1027,1,-1,-5
1462,-3,-4,990,-1,-3,1
1463,-1,-5,994,1,1,-3
1464,-6,5,1012,-1,-1,-1
1465,-9,-9,994,-1,-1,1
1466,-12,-9,992,-1,-1,-3
1467,-7,0,1002,1,1,-3
1468,4,-7,994,1,1,-5
1469,3,-6,986,3,1,-1
1470,-10,1,1003,1,1,-3
1471,4,-3,995,-1,-3,-3
1472,3,-6,1008,-1,-5,-3
1473,-10,4,1002,-1,-1,-1
1474,2,1,999,-1,1,-1
1475,-9,-5,1001,1,1,-3
1476,-1,1,1005,-1,-1,-3
1477,-7,3,1005,-3,-1,-1
1478,1,-1,998,1,-1,-5
1479,2,-2,1001,-1,-1,-3
1480,1,-1,998,-1,-3,-1
1481,0,-4,998,-1,-1,-1
1482,-1,-3,993,-1,-5,-1
1483,0,-7,995,-3,-1,-1
1484,1,-5,1004,1,-1,-3
1485,3,0,1010,-5,1,-1
1486,0,-10,1006,1,1,-3
1487,-1,0,1007,-1,-3,-1
1488,-2,-10,1008,-1,-3,-1
1489,1,0,999,-1,-5,-1
1490,-14,-2,1009,-1,-1,1
1491,-7,5,996,1,-1,-3
1492,2,10,1018,1,3,-5
1493,-11,7,1000,-1,-1,-1
1494,-3,-8,1000,1,-1,-3
1495,-2,-10,997,-3,-3,-5
1496,-11,-6,1006,-3,-1,1
1497,-7,-6,1013,1,3,-1
1498,-6,-5,995,-1,-3,1
1499,-4,1,1007,-5,-3,-1
1500,-8,-3,991,1,-1,-1
1501,-6,1,1000,-1,-3,-3
1502,-8,-5,1007,-1,-1,1
1503,-4,5,998,1,1,-3
1504,-7,2,1004,-1,-3,-3
1505,0,-9,1003,-1,-1,-3
1506,-4,-6,1005,-1,-1,1
1507,-6,-12,1006,-3,1,-3
1508,-2,-1,1011,3,3,-3
1509,-9,4,1009,1,3,-5
1510,0,-3,998,3,1,-3
1511,1,-6,1004,1,1,-1
1512,2,-3,1009,1,1,-3
1513,-4,-7,1010,-3,-1,-1
1514,6,-3,995,-1,-3,-3
1515,2,-2,995,-5,-1,-5
1516,-4,-4,1000,-3,-3,-5
1517,-1,1,996,1,1,1
1518,-10,-4,1004,3,1,-1
1519,-10,-9,1001,1,1,-3
1520,-2,-5,1008,-1,-1,-3
1521,-8,-17,1000,3,1,-1
1522,0,0,1002,-3,-5,-1
1523,4,-12,998,-1,-1,-3
1524,-5,-2,990,-1,-1,-3
1525,3,-6,1000,-1,-3,-3
1526,-5,-5,1007,3,1,-1
1527,-3,0,1007,1,1,-1
1528,-7,-6,1014,-1,-1,-3
1529,2,-8,1004,-3,-1,-3
1530,-1,-3,999,-1,-1,1
1531,-1,7,997,1,1,-5
1532,-2,-3,996,-1,-3,-1
1533,-11,0,991,1,-3,-1
1534,0,-3,1003,-1,-3,-1
1535,-6,-6,1004,-1,-5,1
1536,-5,-3,1010,-1,-1,-3
1537,-10,-3,1009,1,3,-3
1538,-11,3,1005,-1,-1,-3
1539,6,-4,1004,-1,1,1
1540,-7,0,1001,-1,-1,1
1541,-2,-2,998,-1,-3,-1
1542,-5,-1,1004,-3,-1,-1
1543,-4,-4,1002,3,3,-3
1544,-2,11,992,-1,-1,-3
1545,0,-10,990,3,5,-5
1546,5,-4,1018,1,1,3
1547,-1,-1,1001,-3,-1,-1
1548,-6,3,1000,1,1,-3
1549,-8,-4,1004,1,3,-1
1550,-1,-11,1009,1,3,-1
1551,9,-3,1002,-1,-1,1
1552,-3,6,1003,-1,-3,-1
1553,-8,-1,1008,-5,-3,-1
1554,0,-1,999,1,1,1
1555,-3,-7,993,1,3,-3
1556,-6,-7,1013,-1,-3,-3
1557,-10,-6,999,-1,-1,-5
1558,-3,-15,1010,1,1,1
1559,-6,0,1005,-1,-1,-1
1560,-1,4,1002,-1,-1,-1
1561,-2,2,990,-1,-3,1
1562,-17,-4,986,-3,-3,1
1563,-8,5,1008,1,1,-5
1564,2,-3,1007,-1,-3,-1
1565,-4,-8,996,1,1,-1
1566,-6,-5,1005,1,1,-1
1567,-17,-9,1011,1,3,-3
1568,-1,-15,1007,-1,-3,-1
1569,-11,-8,1009,-1,-1,-5
1570,-3,-10,998,-1,-1,-1
1571,-4,-2,1004,3,1,1
1572,-5,0,985,-3,-1,-3
1573,0,-7,1011,1,1,-3
1574,-10,-4,1023,-1,-3,-1
1575,-1,-7,1006,1,1,1
1576,6,-5,1003,-1,-1,-1
1577,2,2,1004,1,1,-7
1578,-8,-2,991,1,1,-3
1579,0,-8,993,-1,1,-1
1580,1,-3,1006,-1,-1,1
1581,-3,-6,1001,1,-3,-3
1582,-4,4,1000,-1,-3,-1
1583,-6,-5,1012,1,1,-5
1584,-4,-2,989,1,1,-3
1585,-4,-9,1001,1,1,-5
1586,-8,-3,990,-1,-1,-3
1587,-4,-9,1002,-3,-5,1
1588,-5,1,1019,1,3,1
1589,-9,-9,1004,1,1,-1
1590,-11,-5,1003,1,5,-1
1591,-16,-4,1007,-1,-7,-3
1592,6,0,1004,-1,-1,-5
1593,-6,-6,991,1,1,-7
1594,7,4,1006,1,3,-1
1595,-4,-9,996,1,1,-1
1596,-6,-5,1013,1,1,-5
1597,2,5,1002,-1,-1,-3
1598,-3,-5,1008,-5,-1,-1
1599,-4,-7,1002,-3,-1,-3
1600,-2,-5,998,-3,-3,-3
1601,-4,1,1000,-1,-3,-3
1602,1,0,1003,-1,-1,-5
1603,-1,-4,1005,-1,-5,1
1604,-2,-4,1009,-1,-1,-5
1605,-2,-5,1012,-1,-5,-1
1606,0,-8,1001,3,3,-3
1607,-14,-8,1008,-1,-1,-3
1608,-3,-5,1003,-3,1,-1
1609,-6,-2,1002,-3,-1,-3
1610,-2,-6,998,-3,-3,-1
1611,-5,-5,1001,1,-3,-1
1612,1,6,1002,-3,-1,-3
1613,-6,1,1001,1,1,-3
1614,1,-5,1002,-1,-1,-1
1615,-12,-6,1001,-1,-3,-1
1616,-9,3,1005,1,3,-5
1617,-1,3,999,1,1,-1
1618,-12,-3,1010,1,1,-3
1619,-1,-14,1006,-1,3,-3
1620,-3,-7,998,-1,-1,1
1621,-6,0,1011,-3,-3,-1
1622,5,-3,1004,1,-1,-1
1623,-6,-3,1007,-1,-1,-1
1624,-3,-9,1010,-1,-1,-1
1625,-2,-2,985,-1,-1,-1
1626,-9,6,1008,1,1,1
1627,-8,-10,1004,-1,-1,-5
1628,-5,-1,1005,-1,-3,1
1629,-2,9,1008,-3,-1,-1
1630,-7,0,999,-1,-3,-3
1631,-2,-4,1005,3,3,-5
1632,-7,-9,993,-1,-1,-1
1633,-2,-5,1008,-1,-3,-1
1634,-4,-5,989,1,-1,-1
1635,-2,1,998,-1,-3,3
1636,-14,-3,1005,-1,-1,-1
1637,-3,1,991,-1,-3,-3
1638,-9,-9,999,-1,-3,-3
1639,-6,-8,994,-3,-5,-5
1640,-3,-6,997,1,1,1
1641,-12,10,1001,-1,-1,-1
1642,-7,-4,996,1,3,1
1643,-3,-5,993,3,1,-5
1644,-8,2,996,1,1,-1
1645,-7,-3,996,-1,-1,-3
1646,-4,3,995,-1,-3,1
1647,-2,-3,1008,1,-1,-3
1648,-3,0,1003,1,3,1
1649,-5,-2,1002,1,1,-1
1650,-2,-6,995,-1,-1,-5
1651,-2,-4,999,-3,-3,-3
1652,-1,5,996,-1,-3,-3
1653,3,-1,1008,-1,-1,-1
1654,-5,-12,1012,-1,-1,-1
1655,-8,0,995,3,5,-3
1656,4,-3,998,1,-5,-3
1657,-2,-4,1010,-3,-1,-3
1658,-3,5,999,1,1,1
1659,-8,-2,994,-1,-3,3
1660,0,-9,995,-1,-3,-3
1661,-7,-3,1000,-1,-1,3
1662,-11,3,1017,1,3,-3
1663,-5,-5,1009,-3,-3,1
1664,-3,-4,1003,-1,-3,-3
1665,-8,-2,1006,-3,-1,-5
1666,-11,1,990,-3,-5,-5
1667,0,-9,1017,-1,-1,-1
1668,4,0,1006,-1,1,-7
1669,-3,7,998,1,1,-1
1670,-4,-2,1001,-5,-3,1
1671,-1,-4,1001,-1,-1,-3
1672,0,-2,1007,1,1,-3
1673,-2,2,994,-1,-1,-1
1674,-4,-6,996,1,1,-3
1675,-7,2,1005,1,-1,-1
1676,1,-4,992,1,3,1
1677,-1,-6,991,-1,-1,-5
1678,0,1,988,1,1,-1
1679,-2,2,1001,1,1,-5
1680,-9,-8,1004,1,-1,-1
1681,-8,-2,1004,-3,-1,-3
1682,-6,-10,1011,-1,-1,-1
1683,-2,-3,1004,-1,-1,1
1684,-5,-1,1003,1,1,-1
1685,-1,4,998,-1,-3,-1
1686,-4,-3,1003,1,3,-1
1687,2,-5,1001,-3,-3,-1
1688,-7,1,1004,-5,-3,-3
1689,-11,-2,1004,-1,-1,-3
1690,-1,-3,1002,-1,-1,-1
1691,-2,-3,1010,-1,-1,-3
1692,0,0,1008,-1,-1,-1
1693,-1,3,1000,1,1,1
1694,-13,0,985,-1,-1,-1
1695,-4,-3,1004,1,1,-5
1696,-4,0,1006,1,1,-3
1697,1,-9,989,-3,-1,-3
1698,-2,0,1001,-1,-1,-1
1699,-1,3,1002,1,5,-5
1700,0,4,999,1,3,1
1701,5,0,1005,-1,-1,-3
1702,-1,-2,1013,-1,-1,-1
1703,-4,-5,996,-3,-3,-3
1704,-2,0,1017,1,3,-3
1705,1,-6,996,1,-1,-5
1706,3,2,990,-1,-1,1
1707,-5,0,1007,-1,-1,1
1708,-1,-4,999,-3,-3,1
1709,-6,-4,1006,-1,-3,1
1710,-6,-3,998,-1,-1,-3
1711,-7,-6,1003,1,1,1
1712,0,-6,1005,-1,-3,1
1713,-13,-8,1004,3,1,-1
1714,-7,4,1003,1,1,-1
1715,-7,3,1017,1,1,-1
1716,-2,1,1010,-1,-1,-1
1717,-7,-1,994,5,3,-3
1718,-1,1,1004,-1,-1,-1
1719,-2,-3,1002,-1,-1,-3
1720,0,-9,997,1,1,-3
1721,-15,-8,994,1,1,-3
1722,-5,1,993,-1,-1,-3
1723,5,-5,983,1,1,-5
1724,0,-2,1000,3,1,-3
1725,-8,2,1009,3,1,-5
1726,-2,3,1011,-1,-1,-1
1727,1,-3,1000,1,1,-1
1728,-2,0,1000,-1,-1,-3
1729,-8,-6,999,1,5,-1
1730,-10,-3,1009,1,1,1
1731,-9,-5,995,-1,-1,-5
1732,-6,-3,1003,-1,-3,-5
1733,9,7,1004,-1,-5,-1
1734,-1,-3,1006,1,1,3
1735,-9,-2,998,-1,-3,-1
1736,-2,-3,998,1,1,-5
1737,-2,0,1021,3,3,-3
1738,-6,2,998,1,1,-1
1739,-8,2,1004,-1,-3,-1
1740,-4,-6,997,-3,-5,-1
1741,-4,6,1010,-1,-1,-5
1742,-7,-5,1003,-1,-1,1
1743,-2,-4,986,-2,3,2
1744,-9,-4,1011,0,3,-2
1745,-8,-6,1011,-2,-5,0
1746,-6,-3,989,0,1,-2
1747,-4,3,1004,2,1,2
1748,-6,-5,996,0,1,-2
1749,-10,-3,1012,0,3,0
1750,-6,6,997,2,3,-2
1751,-4,-3,993,-2,-1,2
1752,-2,-3,989,2,3,-2
1753,-2,-7,996,-2,-3,0
1754,-6,-12,1002,-2,-3,0
1755,-4,-2,1011,-2,-3,-2
1756,-4,4,999,-2,-5,-4
1757,-7,-2,998,-2,-3,-4
1758,-7,-5,995,2,5,-4
1759,-10,-3,1004,-2,-1,0
1760,-6,-9,1010,-2,-3,0
1761,-4,7,1002,-4,-1,0
1762,-5,1,995,0,-1,0
1763,10,0,1007,-4,-1,0
1764,-4,-5,984,-4,-3,0
1765,-1,7,988,0,3,4
1766,-6,-5,1006,0,-1,-4
1767,-3,-3,1008,-2,-3,2
1768,6,-7,994,2,1,-2
1769,-10,6,999,2,1,-4
1770,6,-5,1003,0,1,-2
1771,-1,-2,997,2,1,-4
1772,-16,1,1007,-2,1,-2
1773,2,-5,998,-2,-3,2
1774,-2,-8,1005,-4,-1,-2
1775,-9,-9,1006,2,1,-2
1776,-13,4,1008,-2,-3,-2
1777,-12,-6,994,-2,-3,-4
1778,1,0,993,0,1,0
1779,-9,-3,998,0,3,0
1780,-1,2,1004,-2,-1,-2
1781,-2,0,990,2,3,2
1782,-4,-9,1002,-4,-1,-6
1783,-2,-4,1008,-2,-3,-4
1784,0,4,999,-4,-1,-4
1785,4,-9,1010,-4,-3,-2
1786,-4,1,996,0,1,0
1787,-5,3,1005,-2,-7,0
1788,-15,2,992,-6,-1,0
1789,1,2,1005,-4,-3,-4
1790,-5,-2,987,-2,-3,0
1791,-6,-2,990,-4,-3,0
1792,0,2,1028,4,3,-2
1793,-1,-2,996,-2,-1,-2
1794,-14,0,998,-2,-1,0
1795,-3,-3,1000,0,1,-2
1796,-8,1,1008,-2,-1,-2
1797,-10,-2,999,2,1,0
1798,-1,-11,1005,-2,-3,0
1799,-2,-5,1015,0,1,0
1800,-3,-4,1008,-2,-3,0
1801,0,1,998,-4,-7,0
1802,3,3,1005,0,1,0
1803,-13,-8,994,-2,-1,-2
1804,-4,-3,995,-2,-1,2
1805,-4,0,989,-2,-1,0
1806,-1,-5,1005,0,3,2
1807,-4,-6,1006,0,1,-6
1808,-3,-9,1011,-2,-1,-2
1809,-3,-2,1009,-1,-1,1
1810,-7,-8,1004,-1,-1,-3
1811,-2,-3,1007,-1,-1,-1
1812,5,-3,1018,-1,-1,-1
1813,-2,0,989,3,1,-3
1814,2,-5,994,1,-1,-1
1815,-4,-6,1002,-1,-3,2
1816,-1,1,1012,1,3,-1
1817,-3,1,999,-1,-1,-3
1818,-2,3,1000,-3,-5,-1
1819,-2,-3,995,1,3,4
1820,-3,-1,998,5,1,-1
1821,-12,-2,1007,-1,-1,1
1822,-7,4,1013,-1,-1,1
1823,-2,0,1003,-1,1,-3
1824,-9,-5,1007,-1,-1,-1
1825,-8,-2,991,-1,-1,1
1826,1,-2,1005,-1,-5,1
1827,-6,-4,996,-1,-1,1
1828,-8,0,1008,-1,-1,-1
1829,-4,0,1005,-1,-1,1
1830,-7,4,1004,1,3,1
1831,-6,-5,998,1,3,-1
1832,-9,-7,1001,1,1,-3
1833,-5,3,1006,-1,-3,-1
1834,-4,-9,1016,-1,-1,-3
1835,-2,-9,995,-1,-1,1
1836,-6,-2,994,1,3,-1
1837,-11,3,1004,1,1,-3
1838,1,-1,1000,1,-1,-1
1839,-1,-5,1000,1,1,1
1840,-7,1,998,-3,-3,-3
1841,-6,-3,1005,1,1,-1
1842,0,-5,1000,-1,-3,2
1843,-9,5,1011,-3,-3,1
1844,-2,-5,998,-1,-3,1
1845,1,-14,991,-1,-1,1
1846,-10,-4,1007,1,1,-1
1847,-10,7,1005,1,1,1
1848,3,-8,990,-1,-1,1
1849,-4,-6,1014,1,1,1
1850,-9,5,991,-1,-3,-1
1851,-4,-5,997,1,1,-3
1852,-6,-4,994,-1,-1,-3
1853,-4,6,1008,1,1,-1
1854,-8,3,1002,3,-1,-1
1855,-1,4,999,1,-1,-3
1856,-1,2,999,-3,-1,-1
1857,-3,6,1003,-1,-1,1
1858,-4,1,998,1,-1,1
1859,-4,-6,1000,1,1,1
1860,-6,2,1018,1,1,1
1861,-1,-2,1007,-1,-1,-1
1862,-5,-4,1001,1,1,2
1863,-6,0,1006,-1,-1,1
1864,4,-3,1000,-1,-1,-3
1865,5,-2,1002,3,1,1
1866,1,2,1000,-1,1,-3
1867,-5,-7,1008,-1,-5,-1
1868,-6,-3,1005,1,3,1
1869,-4,-3,995,5,1,1
1870,-12,4,999,1,3,-1
1871,3,-6,1000,-3,-1,1
1872,-2,-4,995,-1,-1,-3
1873,-7,-4,993,-1,-1,-1
1874,2,3,998,-1,-1,1
1875,-11,-2,1003,-1,-1,-5
1876,-7,-2,1010,-1,-1,-1
1877,-3,2,996,-1,-3,2
1878,-9,-12,1009,1,1,-1
1879,-8,-9,1010,5,1,1
1880,-4,1,997,1,1,-1
1881,-5,-2,1009,-1,-1,-1
1882,-1,2,1000,-1,-1,2
1883,-5,-3,1006,-1,-3,2
1884,-6,0,1004,-1,-1,-3
1885,-9,3,1001,1,1,-1
1886,-3,2,1001,-1,-3,-3
1887,-10,-2,994,-1,-1,1
1888,-7,-4,1005,1,-1,-1
1889,-7,-3,1006,1,-1,2
1890,-7,-4,994,1,-1,2
1891,1,0,993,1,3,1
1892,-3,2,1010,1,1,1
1893,2,-8,1000,-1,-3,1
1894,-3,6,1000,-1,1,1
1895,-8,-7,1011,-1,-1,-3
1896,-13,2,1007,1,1,-1
1897,0,3,1015,1,3,2
1898,0,-4,1012,-1,-1,-1
1899,-15,-9,1000,3,1,2
1900,-3,-3,994,-1,-1,-3
1901,-3,-4,1012,-1,-1,-1
1902,-7,0,994,-1,-1,2
1903,7,3,1009,1,3,-1
1904,0,-6,1016,-1,-5,1
1905,5,3,1013,1,3,1
1906,-6,3,1000,-1,-1,2
1907,-7,-4,996,1,1,-3
1908,-6,-2,1006,1,3,-3
1909,-8,2,1003,1,3,-3
1910,-5,-2,1008,1,1,-1
1911,-1,-3,987,-1,-1,2
1912,-9,-3,1010,1,3,1
1913,-1,1,1007,-1,-1,-1
1914,5,-3,1006,1,-1,-3
1915,-3,-5,1009,3,1,-3
1916,-3,-3,995,-1,-1,1
1917,-5,-8,1001,1,3,-1
1918,-7,-3,998,-1,-1,-3
1919,-7,-2,1001,-5,-3,-1
1920,1,-6,1004,-1,-3,-1
1921,-7,-3,1004,3,-3,1
1922,-3,-12,1015,-1,-1,-1
1923,0,0,1009,-1,-1,-1
1924,-15,-5,995,-1,-1,1
1925,-11,-3,993,-1,-1,4
1926,-1,-4,992,1,1,1
1927,-4,0,989,-1,-1,-1
1928,-3,-3,1009,3,1,4
1929,-9,-2,1012,-1,-1,-1
1930,1,-2,1005,-1,-1,1
1931,-2,-5,1008,-3,-5,2
1932,-2,-2,1004,1,1,-1
1933,0,6,1000,-1,-1,4
1934,1,-1,1000,1,1,1
1935,0,1,1008,-1,-1,-1
1936,-8,-7,995,-1,-1,1
1937,-7,-2,999,5,1,1
1938,-2,-5,994,-1,-1,-5
1939,-9,-4,1014,-1,-1,-1
1940,-4,11,999,-3,-5,-3
1941,-10,4,1000,-1,-3,1
1942,-1,2,1012,-1,-1,1
1943,3,-5,994,-1,-1,-3
1944,-2,-12,995,3,-3,1
1945,-7,-7,1002,-1,-3,1
1946,-13,-7,992,-1,-3,-3
1947,-10,6,1000,1,1,-1
1948,-6,2,996,1,-3,-1
1949,-8,-1,1012,1,1,-3
1950,1,-3,995,-1,-1,1
1951,3,-4,1012,1,1,2
1952,-8,-4,1008,-3,-3,6
1953,-3,-3,999,1,1,1
1954,-10,-4,991,-1,-1,-1
1955,-1,-10,987,-5,-1,1
1956,-2,1,998,-3,-1,-1
1957,-3,-1,992,-1,-1,-3
1958,2,5,1003,-1,-1,2
1959,-9,-5,1002,1,3,2
1960,4,5,1015,3,3,2
1961,-8,-7,998,-1,-1,-1
1962,0,8,1011,1,1,2
1963,-8,-6,1011,-1,-1,2
1964,-5,-1,1008,-5,-3,-3
1965,-2,-4,999,-3,-3,6
1966,-11,0,1010,-1,-1,1
1967,-7,1,1008,-3,-1,-1
1968,-7,-4,1006,1,1,-1
1969,-9,-2,995,1,1,2
1970,4,-1,990,-3,-3,-3
1971,-1,-5,1001,1,-1,-1
1972,-7,-7,994,1,-1,1
1973,-15,0,1000,-1,-1,2
1974,-10,-9,996,3,1,1
1975,-8,-5,1009,-5,-1,-1
1976,-7,2,1013,-1,-1,1
1977,-8,-11,987,-1,-1,1
1978,-8,-11,1026,1,3,-1
1979,-2,-4,1000,-1,-1,1
1980,-4,1,1006,1,1,-3
1981,-5,1,1004,-1,-1,-1
1982,1,-4,1001,1,1,2
1983,-9,-7,1000,1,1,1
1984,-2,-6,1006,-1,-3,2
1985,-6,-2,1011,-1,-3,1
1986,-11,-4,994,3,3,1
1987,0,2,999,1,3,2
1988,6,2,1002,3,1,-1
1989,-1,-3,1012,-1,-3,-3
1990,-1,-7,1002,1,1,-1
1991,-9,-1,1002,3,1,2
1992,-8,3,1016,3,1,1
1993,6,-7,998,-1,-1,-1
1994,-3,-5,1011,-1,5,2
1995,1,1,1002,1,-1,1
1996,3,-12,998,1,-3,1
1997,-1,-4,1001,-3,-1,1
1998,-11,5,1008,1,1,2
1999,-2,2,1008,-1,-1,1
2000,-9,0,1005,3,1,1
2001,-8,-2,1007,-1,-3,1
2002,-6,0,1012,1,1,2
2003,-1,-5,1004,-2,0,0
2004,1,-4,1000,0,0,-4
2005,-8,-4,1008,-2,-1,2
2006,-4,3,997,0,0,-4
2007,-1,-5,1000,-4,-1,2
2008,-2,-6,1007,0,2,0
2009,0,0,1001,-2,-1,-2
2010,-9,-4,1006,-2,-3,2
2011,5,-13,1000,-2,-1,2
2012,-9,3,1000,2,0,-2
2013,-10,2,1012,-2,0,2
2014,7,-9,1004,0,0,-2
2015,-14,5,995,-2,-1,-2
2016,-1,-4,1005,-2,-3,-2
2017,3,-9,998,-2,-3,-2
2018,3,0,1003,-4,-5,0
2019,-4,-7,1000,-2,-3,2
2020,-7,1,997,-4,-3,-2
2021,-1,-5,1001,0,2,-2
2022,-7,2,985,-2,-1,-4
2023,-4,-6,1007,-2,-1,-2
2024,-6,-2,996,-2,-3,2
2025,3,-4,1001,-2,-3,4
2026,-6,4,988,-2,-1,-2
2027,2,-3,1002,-2,-1,-2
2028,-7,5,1012,0,0,0
2029,-8,-6,1012,-2,-3,0
2030,-3,1,1004,-2,-5,-2
2031,5,-3,998,2,4,0
2032,5,-4,991,0,-1,-4
2033,-4,-4,1015,-2,-1,-2
2034,-2,1,1002,2,0,4
2035,0,4,1005,-4,-3,2
2036,-5,-8,1009,0,2,-2
2037,2,-3,994,-2,-3,-2
2038,4,-7,998,2,0,-2
2039,4,0,1010,2,0,0
2040,-4,0,996,-2,-5,2
2041,-9,-2,995,0,0,0
2042,3,-5,989,0,0,-2
2043,-11,-3,994,-4,-1,0
2044,-2,-5,1010,2,2,2
2045,4,-9,997,-2,-1,2
2046,0,-2,1007,0,0,0
2047,-1,1,996,-4,-1,-2
2048,0,-2,1002,0,2,-2
2049,-5,-7,1007,0,0,-4
2050,-9,-3,993,2,2,-2
2051,-3,6,1001,-2,-1,-4
2052,-10,7,988,-2,-1,2
2053,3,1,998,0,0,2
2054,-4,10,993,0,0,-2
2055,-2,-4,1010,0,4,2
2056,-3,-11,996,-4,-3,-2
2057,4,5,990,-4,-1,2
2058,1,-5,1002,2,0,2
2059,2,-9,1016,-2,-3,-2
2060,-4,6,998,-2,0,0
2061,-7,-2,999,0,2,-2
2062,-5,-6,1000,0,-5,-2
2063,-2,-1,1010,0,0,-2
2064,-8,4,1013,-2,-1,0
2065,1,0,994,-2,-3,-2
2066,-24,1,1001,-2,-1,2
2067,-1,9,980,-4,-1,2
2068,-10,-7,991,-2,-5,-2
2069,-1,-5,1006,-2,-1,0
2070,-9,-2,997,0,0,2
2071,-4,2,1003,-2,-1,-4
2072,-4,8,993,0,0,-4
2073,1,1,1009,0,0,-2
2074,-10,-4,1005,-2,-1,-4
2075,-12,-3,1023,-2,-3,0
2076,2,-6,1001,2,0,2
2077,4,-6,1004,2,0,-2
2078,-8,4,1007,0,0,-4
2079,4,-4,1007,-2,-5,2
2080,-7,3,1008,0,0,-2
2081,-2,-2,1015,-2,0,-2
2082,-4,-8,1016,-2,-3,0
2083,-2,7,1005,-2,-1,-2
2084,5,1,1008,-2,-1,-4
2085,0,-8,1013,-4,-3,2
2086,-3,3,1004,-4,-5,0
2087,0,3,1010,-2,-1,-2
2088,-1,-5,1008,-4,0,0
2089,-9,-3,1004,0,0,-4
2090,-5,1,1001,-4,-1,-2
2091,3,-3,1009,0,2,-2
2092,-10,-7,1004,0,2,-2
2093,-5,0,999,4,0,2
2094,-1,2,995,2,2,0
2095,2,-2,1008,0,0,-4
2096,-7,-2,1007,0,-1,-4
2097,-10,4,1010,0,2,2
2098,-5,-4,1007,0,2,4
2099,-3,2,1009,0,0,-2
2100,-3,-12,1001,-2,-3,-2
2101,-6,11,1012,-2,-1,-3
2102,-2,3,999,0,1,-3
2103,0,-4,1003,0,1,-1
2104,4,0,993,0,1,-1
2105,7,2,1002,-2,-5,-3
2106,-9,-2,1001,2,1,-3
2107,-11,2,1005,0,-1,1
2108,-7,6,1013,0,-1,1
2109,-6,0,993,-2,-3,-1
2110,-4,-5,995,-2,-3,1
2111,-7,6,1010,-2,-1,3
2112,-9,3,1004,-2,-3,-1
2113,-6,-9,1012,0,2,3
2114,0,-9,990,0,1,3
2115,-1,1,996,0,1,1
2116,-3,1,996,-2,-1,1
2117,-1,-5,998,0,2,-1
2118,-3,-4,1013,-4,-3,-1
2119,0,5,1007,0,2,-3
2120,8,-2,1003,-2,-1,-1
2121,-4,0,1015,-2,-3,-1
2122,-10,6,985,0,1,1
2123,0,7,1001,0,1,-1
2124,-9,0,982,0,1,-1
2125,-8,-1,1010,-2,1,3
2126,-1,0,997,0,1,5
2127,-6,-14,1008,0,2,-1
2128,-7,1,1003,0,1,3
2129,-3,4,1000,-2,-1,1
2130,-6,3,1007,-4,-3,-1
2131,-11,0,986,-2,-1,-1
2132,-1,-13,1007,-2,-3,1
2133,-4,1,1010,-2,-5,1
2134,-9,-10,1005,0,-3,1
2135,-4,-7,987,0,1,-1
2136,-9,5,1014,-2,-3,3
2137,4,1,1003,-2,-1,-1
2138,-13,-8,999,2,1,-1
2139,-8,0,1008,-2,-1,-1
2140,-18,2,999,0,1,1
2141,1,-5,1007,-4,-7,1
2142,-6,-3,1011,-4,-1,-3
2143,-6,-3,986,0,-1,3
2144,-8,-3,1006,-2,-1,-1
2145,-10,-2,1013,-2,-1,1
2146,0,3,1000,-2,-1,3
2147,-8,-5,999,0,1,3
2148,0,-2,995,-2,-1,-1
2149,-6,3,1000,-2,-3,-3
2150,0,-6,1003,0,1,-3
2151,1,-7,996,0,1,1
2152,1,4,1009,-2,-1,-1
2153,-2,1,1012,0,-1,3
2154,-4,1,995,-2,-1,3
2155,0,-9,1009,-2,-1,-1
2156,-1,1,1006,0,1,-1
2157,-3,-7,993,-2,-1,-1
2158,-8,0,994,-4,-3,1
2159,-8,1,1006,0,1,1
2160,-1,-6,996,-2,1,3
2161,-8,-3,996,-2,-1,-3
2162,-6,1,1002,0,-1,1
2163,-7,-7,1001,0,2,1
2164,-3,-6,993,0,1,-1
2165,-6,0,1012,0,1,-1
2166,4,5,994,0,2,3
2167,-4,-2,1002,0,1,-3
2168,-13,1,1009,-2,-1,1
2169,-4,-1,1000,2,1,1
2170,6,-2,1003,0,-1,1
2171,-2,3,994,2,1,-3
2172,-1,-5,986,-2,-1,-3
2173,-3,-3,1002,-2,2,5
2174,-3,-5,993,0,1,1
2175,-7,-9,996,-2,-1,-1
2176,-4,2,999,-2,-1,-3
2177,-8,5,1008,0,1,3
2178,-10,-11,1004,0,1,3
2179,-6,2,1010,0,1,-1
2180,0,0,997,-2,-1,3
2181,-3,4,1013,-2,-1,-1
2182,-11,2,999,-2,-1,1
2183,-4,1,1011,2,1,1
2184,-6,5,1015,-2,-3,-1
2185,2,6,1004,2,-1,-3
2186,-5,-1,1001,-4,-1,-1
2187,3,-2,1018,-2,-1,1
2188,-2,4,1002,-4,-1,-1
2189,-7,-1,1011,-4,1,-1
2190,-6,-2,1012,-2,1,1
2191,4,-6,1010,0,1,3
2192,8,-5,1014,0,1,1
2193,-8,0,994,-2,-3,-1
2194,-8,0,1007,0,1,3
2195,-4,-2,1005,-6,-3,-1
2196,-3,8,1006,-2,-1,-3
2197,-4,0,998,-2,-3,-3
2198,-7,3,989,0,1,1
2199,-4,-2,989,-2,-1,-1
2200,0,-1,1021,0,1,5
2201,1,4,1004,0,1,-1
2202,2,-4,1000,-2,-1,-1
2203,-20,-5,999,2,1,1
2204,-8,-2,1010,0,1,3
2205,-2,-3,1004,0,2,1
2206,-9,-2,1004,-2,-1,1
2207,-8,-1,999,-2,-1,-3
2208,-4,1,996,-4,-1,-3
2209,-9,-2,999,0,1,1
2210,-6,5,1004,0,1,-3
2211,2,-3,1001,0,1,-5
2212,-3,-5,999,2,1,-1
2213,-3,-10,1001,-2,-5,-3
2214,-5,-3,996,-2,-3,1
2215,2,-9,998,-4,-1,-1
2216,-8,0,1005,0,1,1
2217,-6,-10,1005,0,1,3
2218,-3,-3,995,0,-1,1
2219,-5,-4,983,-2,-1,-1
2220,0,-2,991,-2,-1,1
2221,-6,-5,1002,0,1,1
2222,-10,-8,1000,0,2,1
2223,-5,5,1001,-4,-3,-1
2224,2,-4,1018,0,1,-3
2225,-12,-12,1000,-2,-3,-3
2226,0,-6,997,0,1,1
2227,-2,-6,1002,-2,-1,-5
2228,-6,-8,996,-2,-3,1
2229,-10,-3,1010,-4,-1,-1
2230,-7,4,1006,-4,-1,-3
2231,-1,7,1008,-2,-3,1
2232,-2,-2,1005,2,1,-1
2233,-6,6,995,0,1,1
2234,2,5,1009,-4,-3,1
2235,-1,5,1005,0,2,-1
2236,-4,2,994,-2,-7,1
2237,0,-4,994,-4,-3,-1
2238,-1,0,993,0,2,1
2239,1,-3,1001,-2,-3,-3
2240,6,6,989,2,1,-1
2241,-1,3,1017,-2,-1,-1
2242,-2,-1,999,-4,-3,1
2243,-1,1,996,0,2,3
2244,-10,-3,1000,-4,-3,-1
2245,-2,4,996,-2,1,-3
2246,-3,-14,1000,0,2,1
2247,-2,-2,1001,0,1,3
2248,-1,-9,1002,-2,-3,-1
2249,-3,8,1006,-2,-1,-1
2250,-4,-6,1001,0,1,-1
2251,-6,1,1004,-2,-3,-1
2252,-8,1,1008,-2,-3,3
2253,-3,-2,999,-2,-1,-3
2254,-9,4,993,-4,-3,-1
2255,-3,1,997,0,2,-5
2256,-4,-5,1010,0,2,-1
2257,-4,0,1002,-4,-1,1
2258,-2,1,996,0,1,-1
2259,2,9,1008,2,-1,-3
2260,-6,-5,999,2,2,1
2261,1,-6,1005,2,1,-1
2262,0,2,1010,-6,-1,1
2263,-8,11,1004,-3,-3,1
2264,-3,-5,1004,1,3,-3
2265,-4,-2,1010,-3,-3,-5
2266,-7,0,997,-3,-1,3
2267,-2,8,997,-1,-5,1
2268,-7,-2,991,3,5,-1
2269,1,4,992,1,1,1
2270,-12,1,1001,-1,-3,1
2271,-8,-2,998,-1,-3,1
2272,-9,-4,1004,-3,-3,-1
2273,-5,-2,1000,-1,-1,-1
2274,-7,-10,1001,1,1,1
2275,0,-1,1008,1,1,1
2276,-13,-1,1004,3,3,-3
2277,-5,-5,1002,-1,-3,-1
2278,-6,-7,1004,1,3,1
2279,3,-2,1001,3,1,-1
2280,1,-2,1015,-1,-3,1
2281,-7,-4,1003,3,1,1
2282,-3,1,1009,-1,-1,1
2283,-3,-3,999,1,3,-5
2284,-1,0,1001,3,5,-1
2285,2,-6,993,-1,-1,-3
2286,-14,1,1009,-3,-3,-1
2287,-1,-4,997,-1,-5,-1
2288,-7,-3,1004,1,1,1
2289,1,-3,1010,1,3,1
2290,-12,-4,995,1,1,-3
2291,-1,5,1003,-1,-3,5
2292,-13,-8,1002,1,3,1
2293,-3,-11,990,1,1,3
2294,-3,-4,1006,-1,-1,1
2295,-11,1,993,-1,-3,1
2296,-11,-6,998,1,1,1
2297,-3,-6,1011,-1,-1,-5
2298,7,-7,980,1,3,-1
2299,1,0,1003,1,-1,1
2300,-2,-5,986,1,1,-1
2301,0,8,999,1,-5,-1
2302,-7,0,995,-1,-5,1
2303,-12,6,995,1,-1,-1
2304,-1,3,1009,1,3,1
2305,-2,-3,1002,1,1,1
2306,4,-5,995,-1,-1,1
2307,-7,-6,990,1,3,1
2308,-7,-6,995,1,1,-5
2309,-4,-11,1001,-1,-1,-1
2310,-1,-6,1006,-1,-3,1
2311,-5,-6,991,1,-1,-1
2312,-8,-14,1001,-1,-3,3
2313,8,-8,987,-1,-1,-1
2314,-3,2,995,1,-1,-1
2315,4,1,1010,1,3,1
2316,-1,-3,1009,3,3,3
2317,-8,7,997,1,3,3
2318,4,0,1020,-1,-5,-1
2319,-3,0,1008,-3,-7,-1
2320,-8,-4,1013,3,1,-5
2321,-7,3,991,1,3,3
2322,-7,-4,991,-3,-3,1
2323,-2,5,1001,1,1,-1
2324,-3,2,983,3,1,1
2325,0,0,1007,-1,-3,1
2326,2,-4,1002,-3,-3,3
2327,-14,-6,995,-3,-3,-1
2328,0,-5,1009,1,3,-3
2329,-1,-2,1006,1,1,1
2330,-7,4,992,1,3,3
2331,-5,-6,1008,3,-1,-1
2332,-1,4,995,1,-1,1
2333,-13,6,1014,-1,-3,1
2334,0,-3,1004,-1,-1,5
2335,-5,8,1010,-3,-1,3
2336,-12,0,1007,-1,-1,1
2337,-8,5,992,1,1,-1
2338,-9,-3,1000,-1,-1,-1
2339,-7,-3,1008,-1,-1,-1
2340,-6,-5,1011,-1,-3,-1
2341,-1,-11,1001,1,1,1
2342,-9,4,1006,-3,-1,-1
2343,-8,-6,1006,-1,-3,-1
2344,-2,-7,1012,1,-1,-1
2345,-5,0,1006,-1,-1,1
2346,6,-4,985,-3,-1,-1
2347,-9,-8,1008,-1,-1,1
2348,2,-9,1002,-3,-1,3
2349,-3,9,989,1,3,-3
2350,-1,0,1016,-3,-5,-3
2351,-9,1,1018,-5,-1,3
2352,0,-9,995,-3,-1,-1
2353,-10,4,1010,-1,-1,-3
2354,-5,-3,993,-1,-3,1
2355,-11,-4,1010,-1,-3,-3
2356,-6,-15,1015,-1,-1,-3
2357,-3,0,995,1,1,-1
2358,-11,1,1005,3,1,1
2359,-6,0,993,-1,-3,-1
2360,-5,-2,1002,-1,-5,1
2361,-6,-4,1014,-3,-1,1
2362,-6,-2,1006,-1,1,-1
2363,-7,-5,1022,1,1,1
2364,-1,-3,992,1,3,5
2365,2,-7,1002,5,1,-1
2366,-4,0,994,3,3,1
2367,-3,-3,1001,-1,-1,1
2368,-2,-2,1001,1,3,5
2369,-11,-5,1009,-1,-1,-3
2370,-4,-4,1001,1,3,1
2371,-9,-7,996,3,1,-3
2372,-10,5,1000,-1,-1,-1
2373,-4,-4,998,-1,-3,-3
2374,-1,-4,1003,3,1,3
2375,-10,3,1009,-1,-1,-1
2376,-7,-4,998,-1,-1,-1
2377,-1,-4,1003,-3,-1,3
2378,-13,-4,1007,1,1,3
2379,-6,0,990,-3,-3,1
2380,-1,11,1009,-1,-1,-3
2381,-3,-1,1006,1,1,3
2382,-22,1,1006,1,3,1
2383,-10,1,1005,-1,-3,1
2384,-7,-3,1002,-1,-3,1
2385,0,-6,1008,1,1,-1
2386,-11,3,1002,1,1,1
2387,-10,-5,988,1,-1,-1
2388,-12,5,1002,-3,-5,-5
2389,-10,-3,994,-1,-1,-1
2390,-2,-4,1009,3,-3,1
2391,-5,5,1009,1,1,3
2392,-4,-2,1007,1,1,1
2393,3,-4,991,1,1,-1
2394,5,-3,1006,-1,-1,-1
2395,-5,4,995,-1,-1,3
2396,1,-2,1002,3,1,-1
2397,-3,-7,994,-1,-1,1
2398,4,1,1006,1,3,-1
2399,5,3,1010,-1,-1,-5
2400,0,2,1009,1,5,-1
2401,-5,-4,1005,-1,-3,1
2402,0,-1,1009,1,1,-1
2403,-2,-8,1010,-1,-1,3
2404,-5,-8,1005,-1,-3,-1
2405,5,5,988,1,-1,1
2406,-6,6,1002,1,1,-1
2407,3,-7,1002,-1,-1,3
2408,3,-1,1004,1,3,-1
2409,-1,-4,1000,3,3,-1
2410,-1,-3,1006,-1,-1,3
2411,2,-1,1009,1,3,3
2412,3,-6,1000,-1,1,-3
2413,-7,-1,1000,3,5,3
2414,-6,-5,1006,1,3,-1
2415,4,-3,996,-1,-1,-3
2416,-4,-4,999,-1,-1,5
2417,5,-1,991,-3,-1,-1
2418,-4,2,991,1,1,1
2419,-3,-3,1004,3,3,1
2420,-7,2,1007,-1,-3,-3
2421,-4,7,1008,3,-3,1
2422,2,3,1012,1,3,-1
2423,-10,3,1004,1,1,3
2424,-7,-3,1004,-1,-1,-1
2425,-4,-3,1010,-1,-1,1
2426,-16,-7,1005,1,1,3
2427,-14,0,1012,1,3,-1
2428,-5,-6,1018,1,-3,1
2429,0,-2,1006,1,-1,-1
2430,1,-9,1002,3,3,3
2431,-4,1,1000,-3,-5,1
2432,-6,1,998,-1,-1,1
2433,-9,-3,991,-1,-3,1
2434,10,7,1005,1,1,1
2435,-11,0,1000,-5,-3,-1
2436,-2,-8,1005,1,1,-3
2437,-8,-1,999,-3,-1,-1
2438,-5,3,1016,1,1,1
2439,-7,11,993,-1,-1,1
2440,-4,1,1014,-1,3,-1
2441,4,3,994,-7,-1,-1
2442,-10,-5,1001,-1,-3,-1
2443,7,0,995,-3,-3,1
2444,-5,0,1015,1,1,1
2445,2,-1,1003,1,-3,1
2446,-10,0,998,-1,-5,3
2447,-11,4,1009,3,1,3
2448,-4,-3,996,-1,-3,1
2449,-6,8,1004,1,1,-3
2450,-6,-5,1005,-1,-5,-1
2451,-7,2,993,1,3,3
2452,-6,-5,1000,-1,-1,-1
2453,-1,-5,995,-1,-1,1
2454,-14,3,994,1,1,1
2455,-7,-9,985,1,-1,-1
2456,-4,-14,1007,1,1,1
2457,-3,-9,1000,3,1,4
2458,-2,-4,989,-1,-5,-2
2459,-2,-5,998,1,1,-2
2460,-4,-18,995,1,1,-2
2461,-2,-3,1014,-1,-1,-4
2462,-7,1,995,1,5,0
2463,3,-1,1005,-3,-3,2
2464,0,-6,1001,-5,-1,-4
2465,-8,-3,996,1,-1,0
2466,-3,-7,1012,1,-1,2
2467,-9,-4,1003,1,1,0
2468,-8,-2,1012,-1,-1,2
2469,-11,0,1001,-1,-1,0
2470,-1,-3,1008,3,1,0
2471,-11,-3,1007,1,3,0
2472,-7,-5,1002,-1,-3,0
2473,-6,2,1009,-1,-1,2
2474,-7,-14,978,1,1,0
2475,-10,-7,1003,1,-1,-2
2476,-7,-6,1014,1,1,0
2477,-6,6,1004,-1,-3,-4
2478,-6,-5,1004,-1,1,-2
2479,-5,-7,999,-1,-1,-2
2480,-8,4,1012,1,3,0
2481,5,-11,1000,-1,-3,-2
2482,-7,-1,1001,1,5,0
2483,-15,-2,1003,-3,-3,-4
2484,-8,-11,993,1,1,-2
2485,-6,-7,1005,-1,-1,-4
2486,-2,-4,1001,-1,-5,2
2487,-9,2,1011,1,3,2
2488,4,0,1005,-1,-3,-2
2489,-2,-5,1009,-1,-3,0
2490,-2,2,1004,1,1,-4
2491,-8,5,1013,1,1,4
2492,0,-3,1001,-1,-3,0
2493,0,-4,987,-1,-1,-6
2494,-2,2,1005,1,1,0
2495,-1,0,1003,3,1,-2
2496,-4,-8,1006,1,1,0
2497,0,2,991,-1,1,-2
2498,-3,-4,1004,-3,-1,-2
2499,-6,6,1006,-1,-5,2
2500,-6,0,992,3,3,-4
2501,-10,-5,1009,-1,-3,-2
2502,-6,-7,1003,-1,-1,-2
2503,-9,-8,998,-3,-5,-2
2504,-13,-3,999,1,1,-2
2505,-8,-1,1013,1,1,-2
2506,3,-4,1000,-1,-3,0
2507,-8,-7,994,-1,-3,-4
2508,-9,-4,990,-1,-1,-2
2509,-7,5,1009,-1,-3,2
2510,-6,-8,1002,1,1,0
2511,-4,-5,1014,1,3,0
2512,-8,-1,1009,-3,-1,2
2513,-10,-8,996,5,-1,-2
2514,-3,-1,1009,-1,-1,2
2515,-1,10,988,-1,-1,2
2516,0,-5,1013,-3,-1,0
2517,-7,-4,1009,-3,-1,0
2518,-1,4,1002,1,1,4
2519,-3,-8,1004,-3,-1,2
2520,-5,6,1011,3,1,0
2521,3,3,1000,1,1,2
2522,-5,-7,1001,-1,-1,0
2523,-9,2,999,1,1,0
2524,-16,-3,1000,-1,-1,2
2525,-7,-5,1017,1,3,0
2526,-6,0,1003,1,1,-6
2527,3,2,1006,-1,1,-2
2528,-11,-8,1002,3,-3,-2
2529,-8,-8,1012,-1,-1,0
2530,-9,3,998,-3,1,-2
2531,-6,6,995,-1,-1,-4
2532,-5,0,1019,3,1,-2
2533,-1,-4,1007,-1,-1,-4
2534,-1,-8,1002,1,1,-2
2535,-1,-2,1000,1,1,2
2536,-2,-6,994,1,1,0
2537,-11,-4,1018,-1,-1,0
2538,-1,0,995,3,3,-4
2539,-3,-2,998,-3,1,-2
2540,-9,-7,1007,-3,-3,-2
2541,-8,-3,999,-1,-1,0
2542,-9,-8,1000,1,1,-2
2543,-6,3,1011,-1,-5,-2
2544,-5,1,1018,-1,-5,0
2545,-9,-3,1002,-1,1,-4
2546,-6,3,981,-1,3,-2
2547,-6,-8,1004,1,1,-2
2548,-6,-8,996,-1,-5,-2
2549,-2,-4,998,5,3,-4
2550,-5,-7,996,1,1,2
2551,-7,1,1004,1,1,0
2552,-3,1,1012,1,3,4
2553,-2,-9,996,-1,-1,-2
2554,0,1,993,1,1,-2
2555,-8,1,992,-2,-1,-1
2556,-12,1,999,0,-1,-1
2557,-6,-2,1009,2,2,1
2558,5,10,986,-3,-1,1
2559,-7,0,1010,-2,-3,1
2560,-10,-2,991,-3,-1,5
2561,-5,-3,1000,-2,-3,-1
2562,-2,-12,1002,-2,-3,3
2563,-1,-8,1003,-2,-1,3
2564,8,2,1006,-3,-5,-5
2565,0,-4,1001,-2,-1,3
2566,-9,-9,1000,0,2,1
2567,-6,3,1001,-3,-5,-1
2568,-8,-5,1006,2,0,1
2569,-7,3,1000,0,0,-1
2570,-3,3,1007,0,-3,1
2571,-1,-5,1006,-2,-1,1
2572,-4,-2,997,-2,-1,1
2573,-1,2,993,-2,-3,-3
2574,-5,-11,1004,-2,-3,1
2575,-10,0,1016,-2,-1,-5
2576,-7,0,1006,2,2,1
2577,-10,-2,1005,-2,-1,-5
2578,-8,-5,1003,0,2,1
2579,-3,-9,999,-2,-3,1
2580,0,-4,1002,0,-3,-1
2581,4,12,1009,-2,-1,5
2582,-1,-2,1007,-2,-1,1
2583,-2,-4,1013,-2,-3,5
2584,-6,-1,1000,-2,-1,1
2585,-1,-4,1003,0,-1,-1
2586,0,-6,994,-3,2,-3
2587,-7,0,1012,-3,-5,1
2588,-6,-3,1000,2,0,1
2589,-7,-4,1005,0,0,-3
2590,2,-9,988,0,2,-5
2591,2,-2,995,0,0,1
2592,-1,-9,1007,-3,-1,1
2593,-7,-4,1000,0,0,1
2594,-9,1,1003,0,2,1
2595,-3,4,1008,-2,-1,-3
2596,-9,1,1008,0,-3,-1
2597,-8,-3,1000,0,0,1
2598,-3,0,1004,2,0,1
2599,-5,-6,1001,-2,-1,-1
2600,-1,-3,1006,-2,0,3
2601,-6,-1,1004,0,2,3
2602,1,-6,994,2,2,-1
2603,-6,-3,998,0,2,-1
2604,0,1,993,-3,-1,-3
2605,-2,2,1005,0,0,-1
2606,-2,5,999,0,2,3
2607,-7,-13,1003,-2,-1,-3
2608,7,-9,1005,-2,-1,5
2609,-6,-2,996,-2,-1,-1
2610,-7,-4,1000,0,2,-1
2611,-9,-5,1010,-2,-1,-1
2612,-1,4,990,-2,-3,-3
2613,-2,-6,1009,-2,-1,1
2614,-11,-9,1006,0,-1,1
2615,-8,-8,1002,-2,-3,-1
2616,-3,-12,1016,-2,-1,-1
2617,-7,9,1004,-2,-1,-1
2618,-3,2,1011,-2,-3,1
2619,-10,-6,983,-3,-1,-3
2620,9,-4,1011,0,-1,-1
2621,-7,-11,998,-2,-3,1
2622,-9,-6,1003,2,0,1
2623,-4,-7,999,-2,-1,3
2624,6,-5,1009,0,0,1
2625,-7,-1,995,-3,-1,-1
2626,-9,-2,994,2,2,3
2627,0,-2,1005,4,0,1
2628,-2,6,993,-2,-3,1
2629,-3,0,1004,0,2,1
2630,1,-2,1005,-3,-1,1
2631,-2,0,1000,-2,0,-1
2632,-7,-8,996,0,2,3
2633,-8,-4,1012,-2,-1,3
2634,-5,-8,984,-2,0,3
2635,-10,-3,1010,2,2,1
2636,0,-6,1009,-2,-1,1
2637,-4,-6,994,-2,-1,1
2638,1,-5,997,-2,-1,1
2639,-8,-6,995,-2,-1,-1
2640,4,-3,986,-3,-1,1
2641,-3,-5,993,-3,-3,3
2642,-8,0,998,-2,-3,1
2643,-1,-8,995,0,0,-1
2644,-8,2,994,0,0,1
2645,-3,-8,1004,2,2,-3
2646,-7,-1,1008,-2,-5,-5
2647,-3,-3,1001,-2,-1,1
2648,-8,2,1005,2,0,1
2649,-13,1,1006,0,2,1
2650,0,4,996,-2,-1,-1
2651,-2,-9,993,0,0,3
2652,-6,2,1002,2,2,1
2653,-1,-5,995,0,0,-3
2654,-7,3,978,-2,-1,-1
2655,1,2,1006,0,0,-1
2656,1,-4,1001,-2,-1,1
2657,2,-3,1006,-2,-1,1
2658,-6,0,995,0,2,-1
2659,-3,-2,995,2,0,3
2660,-6,-1,1002,-2,-3,1
2661,-5,-11,1009,-2,-5,3
2662,1,1,999,0,2,1
2663,-4,-2,1012,0,0,-3
2664,-3,-5,1015,-4,-3,-1
2665,-4,-2,1004,-2,-3,-1
2666,2,5,999,0,0,-3
2667,-10,5,1001,-2,-1,1
2668,-4,-3,1006,-2,-3,1
2669,-9,-1,986,0,2,1
2670,-1,-2,984,-2,-1,-1
2671,-8,-9,998,-2,-1,-1
2672,1,-5,1007,-2,-1,-3
2673,1,-4,1000,-4,-1,-1
2674,-3,-4,1005,-4,-1,3
2675,-1,5,1001,-2,-3,1
2676,-5,-4,1017,-2,-3,-3
2677,6,-7,988,0,0,-1
2678,-3,-6,1003,0,0,1
2679,-8,-3,1009,0,0,1
2680,-11,8,1003,0,2,1
2681,5,4,1004,0,0,-1
2682,-4,3,1016,-2,-1,1
2683,-9,-5,1006,-4,-3,-1
2684,-5,-2,995,0,0,-1
2685,-1,2,998,-1,-3,-1
2686,4,4,998,1,1,-1
2687,-7,-4,1000,1,1,-1
2688,-2,6,1017,-1,-1,-1
2689,-1,-2,1001,1,1,-1
2690,-3,-3,1001,-1,-3,-1
2691,-11,-2,995,-1,-1,1
2692,-4,-4,993,-1,1,-3
2693,-2,2,999,1,-1,-1
2694,-7,-2,998,1,1,1
2695,-2,-3,1012,1,1,-1
2696,-3,-8,1007,-1,-1,3
2697,-3,-8,993,-1,-3,-1
2698,-1,0,1003,-1,1,1
2699,-2,-5,992,1,3,-3
2700,2,4,1012,1,1,1
2701,1,0,1010,1,1,1
2702,-5,-7,999,1,1,1
2703,-5,-1,1012,-1,-1,-3
2704,-3,-6,1012,-1,1,-1
2705,-10,-4,994,1,-1,1
2706,-4,-3,994,-3,-1,-1
2707,1,1,1008,-1,-3,-5
2708,-3,-3,1005,-1,-1,3
2709,-1,-15,1000,3,1,1
2710,-4,-2,995,1,3,5
2711,6,-2,1010,-1,-1,-3
2712,-11,-6,1006,-1,-3,1
2713,5,-5,1006,3,1,1
2714,-6,6,994,1,1,3
2715,-7,0,1003,-1,-3,-3
2716,-10,0,1011,1,-1,-1
2717,-4,-2,999,1,-1,3
2718,0,-11,997,-1,-1,1
2719,6,2,1008,-1,-1,-1
2720,-3,-3,1014,-1,-1,1
2721,-4,-7,998,-3,1,1
2722,0,-9,996,-3,-1,1
2723,-10,-8,993,-1,-3,-1
2724,-6,-4,1002,-1,-1,3
2725,0,-6,995,1,1,-3
2726,-2,-6,990,3,3,1
2727,-6,-4,1002,1,1,1
2728,2,-9,1006,1,1,-1
2729,-3,-8,999,1,1,-3
2730,-3,6,1000,-1,-3,1
2731,-4,-9,1016,-1,-3,-3
2732,-13,-3,989,1,1,-1
2733,-6,-11,1003,1,3,1
2734,-9,4,995,-1,-3,1
2735,2,-4,1001,-3,-1,1
2736,-13,-7,1008,-1,1,-3
2737,-9,-5,1013,-1,-1,-1
2738,0,8,1008,-1,-1,1
2739,-2,1,998,-1,-1,-1
2740,-10,2,1004,-1,-1,-1
2741,-3,0,989,-1,-1,-1
2742,-15,-10,987,-1,-3,1
2743,-7,-2,1001,-1,-1,1
2744,2,-7,1004,3,1,-1
2745,-2,2,1006,1,-3,-1
2746,-6,4,1010,1,1,1
2747,-1,-5,1007,1,1,-1
2748,-11,2,1004,5,1,-5
2749,1,-7,1009,1,1,-1
2750,-10,-9,1001,-1,-5,1
2751,4,-5,1001,-1,-1,1
2752,5,-9,1002,-1,-1,-1
2753,0,1,999,-3,-1,-1
2754,7,-4,999,-1,-3,1
2755,-1,-5,1003,1,-1,1
2756,2,4,1013,-1,-3,1
2757,2,-3,1003,-1,1,-1
2758,-10,-7,1009,-1,-3,5
2759,-4,6,1008,1,1,-1
2760,0,4,1014,-1,-1,-3
2761,7,-1,1011,1,1,1
2762,-4,-5,987,3,3,-1
2763,-11,-9,992,-1,-1,1
2764,-7,2,1006,1,1,-1
2765,-10,-4,995,1,1,1
2766,0,-4,1008,-1,-1,1
2767,-4,-6,991,-3,-1,-1
2768,4,-6,993,1,1,-3
2769,-5,-5,996,-1,-1,1
2770,2,-3,996,-3,-3,3
2771,-6,-3,997,1,-1,1
2772,1,-4,1015,-1,-3,3
2773,-3,4,987,-3,-3,-3
2774,0,-1,1002,1,1,-1
2775,-2,-15,996,5,1,1
2776,-2,-7,1016,1,3,-1
2777,-6,-1,1004,3,1,1
2778,-3,0,1010,1,3,-1
2779,1,3,1001,1,1,-3
2780,0,0,1004,-3,-3,1
2781,0,-3,1005,3,1,-3
2782,2,2,999,1,-1,-1
2783,-2,-4,1000,-1,-1,-1
2784,0,0,1004,-1,-3,-1
2785,-2,-7,1006,-1,-1,-3
2786,1,5,1000,-1,1,-3
2787,-6,7,1005,1,1,-1
2788,3,-7,1002,1,1,3
2789,-5,-6,1007,-1,-1,1
2790,5,-7,1011,-1,-1,-3
2791,-14,-8,979,1,-5,-1
2792,4,9,1000,5,1,-1
2793,-7,-4,1013,1,1,3
2794,-10,-9,1000,1,1,1
2795,-8,6,1000,1,1,-1
2796,-12,-9,995,-5,-3,-3
2797,6,1,1000,-1,-3,-1
2798,-7,-15,1002,-1,-1,1
2799,-4,0,1006,1,3,1
2800,-2,-2,1005,-1,-3,1
2801,5,2,991,-1,-1,3
2802,1,1,1006,-1,-1,-1
2803,1,-5,1006,3,1,1
2804,-1,-5,992,1,1,-1
2805,-9,-4,1005,-1,-5,1
2806,-1,-2,1010,-3,-3,1
2807,-1,-5,996,1,1,-1
2808,-4,-7,999,3,1,1
2809,-5,1,992,-1,-3,-3
2810,-4,-5,999,-3,5,-1
2811,-8,-8,1011,-1,-1,-1
2812,4,4,1001,1,1,1
2813,-8,-6,1003,1,-1,-1
2814,-8,3,1010,5,1,-1
2815,0,-5,999,1,3,-1
2816,-11,1,1010,-1,-1,1
2817,-8,-8,1007,-1,-1,1
2818,-2,7,1005,-1,-3,1
2819,5,-7,1004,3,1,1
2820,-8,-2,1003,-1,-1,1
2821,-12,-7,1005,-1,-3,1
2822,-19,-3,1001,-1,-1,-1
2823,-4,2,980,1,1,5
2824,-4,-5,1008,1,1,-1
2825,-3,-2,999,-3,-1,-3
2826,-5,1,998,-1,-1,-3
2827,-3,-12,1001,-1,-1,-1
2828,1,1,1006,-1,-1,1
2829,-6,-4,999,5,1,-3
2830,-6,4,990,3,3,1
2831,1,-5,994,1,1,1
2832,-9,-8,1004,-3,-5,-1
2833,0,1,986,-1,-1,3
2834,-4,0,1002,1,-3,-1
2835,-9,0,996,-1,-1,-1
2836,2,-1,1012,1,3,-1
2837,-2,5,1003,3,1,-1
2838,2,-8,997,-1,-1,1
2839,-2,3,997,1,1,-3
2840,-5,0,1002,-5,-5,-1
2841,-2,-7,1005,-1,-7,-1
2842,-10,1,1004,-3,-7,1
2843,-2,2,1003,-1,-1,-3
2844,4,0,997,-3,-1,-1
2845,-10,-6,1004,-1,-1,-3
2846,-7,-6,1003,1,1,1
2847,-7,0,1001,1,-1,-3
2848,0,2,1009,-3,-1,1
2849,-8,-4,1003,-1,-1,-3
2850,-7,-3,1006,-1,-1,1
2851,-10,-9,996,-1,-1,3
2852,-4,-6,1003,-3,-1,-3
2853,-11,-4,1010,1,-1,3
2854,-2,1,1007,-1,-3,-1
2855,1,-2,999,1,-3,-1
2856,0,-3,1013,3,1,-1
2857,-9,-13,994,-1,-1,-3
2858,-6,-3,999,-1,-7,1
2859,-4,-2,992,1,1,1
2860,-8,-5,977,1,3,-5
2861,-4,-6,991,-1,-1,-1
2862,-1,2,1001,1,1,1
2863,-5,-5,1006,-3,-3,-1
2864,-12,7,1015,-1,-5,-1
2865,8,-3,997,1,-1,-1
2866,-4,3,1005,-1,-1,1
2867,-8,-8,994,1,1,1
2868,-6,-2,1015,1,1,-1
2869,-4,-2,990,1,1,-1
2870,-4,2,1001,1,-1,3
2871,-1,-6,1006,3,-1,-1
2872,-5,-5,1013,-1,-1,3
2873,-9,-6,992,3,3,1
2874,0,2,1013,1,3,1
2875,-5,-12,994,1,1,-1
2876,-4,-8,987,-1,-3,-1
2877,-3,-13,1004,-1,-1,-1
2878,-7,-7,999,3,1,-1
2879,-1,-4,992,-2,-1,-1
2880,0,-7,990,-2,-1,1
2881,-10,2,996,-2,-3,3
2882,-5,1,991,0,3,5
2883,0,1,1015,-2,-1,-1
2884,-4,-4,1005,-3,-1,-1
2885,-8,5,1006,0,1,-1
2886,-3,4,1000,-2,-3,-1
2887,-4,-3,1003,-2,-3,5
2888,-13,-5,1002,0,1,1
2889,-10,-3,995,2,3,-7
2890,-1,4,993,-2,-1,3
2891,-2,-5,991,-2,-1,-1
2892,6,3,997,0,1,1
2893,-8,-2,999,-2,-1,5
2894,-8,-4,995,0,1,3
2895,-3,6,1006,2,3,1
2896,-1,-2,995,-2,3,3
2897,-5,2,1001,-2,-1,-1
2898,-10,-7,1002,-3,-1,-1
2899,-1,-5,994,-2,-1,3
2900,-7,5,996,0,1,-1
2901,0,3,1007,2,1,1
2902,-7,1,1001,-2,-1,-1
2903,4,-3,1008,-2,-1,-1
2904,-2,-6,1001,-2,-1,1
2905,-7,8,990,-2,-1,1
2906,-5,1,999,0,1,-3
2907,-4,10,1010,-2,-1,1
2908,-3,2,1012,-2,-1,-1
2909,-5,-4,1012,-2,-1,1
2910,-11,3,1002,-2,-1,3
2911,-1,-12,1003,2,3,3
2912,-7,0,1009,-2,-1,3
2913,-10,-6,1005,0,1,-1
2914,-11,4,1006,2,3,5
2915,-2,1,1003,0,3,1
2916,-9,-6,1002,0,3,-3
2917,-2,5,994,2,1,-5
2918,-11,-1,1004,0,1,1
2919,-8,-12,996,-2,-1,3
2920,-4,-8,1001,0,1,1
2921,-4,-4,994,0,1,-3
2922,-4,-8,1004,-2,-1,1
2923,-3,-8,1008,-2,-1,1
2924,-2,-5,1012,0,1,3
2925,-8,-2,1000,-2,-1,3
2926,-4,-6,1001,0,1,-1
2927,-17,-5,1002,0,-1,3
2928,-6,-9,1002,-2,-3,-1
2929,-6,-4,997,0,1,-1
2930,0,2,1010,-3,-3,1
2931,-4,3,998,-2,-3,-3
2932,-9,0,987,0,1,-1
2933,-12,1,1001,0,1,-3
2934,-11,4,1014,0,1,1
2935,-10,2,998,-3,-3,1
2936,-10,-9,1001,-2,-1,5
2937,-2,-5,1012,-2,-3,1
2938,-4,-4,1014,-2,-1,1
2939,-11,0,1004,-2,-1,1
2940,4,-3,1001,0,1,3
2941,3,2,998,-2,-3,-1
2942,1,-7,1009,-2,-1,-1
2943,-6,-9,1006,0,1,3
2944,-2,-3,1001,-2,1,1
2945,-1,-2,998,0,1,0
2946,-10,-8,1000,-2,-1,2
2947,5,1,989,0,1,2
2948,2,-3,1002,0,1,-4
2949,-7,6,1012,0,1,-2
2950,-4,8,989,0,1,-2
2951,-6,-4,1009,-2,-1,-2
2952,-4,-4,999,0,1,-2
2953,-1,11,993,-2,-3,-2
2954,-9,-1,991,-3,-1,-2
2955,-3,-7,1002,0,1,-4
2956,-11,-3,1002,-2,-1,-2
2957,3,1,1010,0,1,-2
2958,2,0,996,-2,1,-2
2959,-2,-2,1009,-2,-1,0
2960,4,-1,1000,-2,-1,0
2961,-8,-3,1011,-2,-3,-2
2962,-6,-2,987,-3,-1,-2
2963,5,-4,1008,-2,-1,-2
2964,-1,-1,1000,-2,-5,2
2965,2,4,1004,-3,-1,2
2966,-5,-3,999,-2,-1,-4
2967,2,5,1004,-2,-3,0
2968,-9,-11,980,-2,-3,0
2969,-9,-5,1005,2,3,0
2970,-3,3,996,2,1,0
2971,-1,-2,1008,0,-1,0
2972,-6,-3,1004,0,3,4
2973,5,5,986,-2,-3,-2
2974,-4,-5,995,0,1,0
2975,-15,0,996,-2,-3,-4
2976,-2,-2,1009,0,3,-2
2977,-1,6,1003,-2,-1,-2
2978,-8,3,1020,-2,-1,-2
2979,-9,-4,1004,0,3,-2
2980,-4,-5,1014,-2,-1,-4
2981,-8,-12,996,0,1,0
2982,-9,-8,1000,-2,-5,0
2983,1,-6,998,-2,-1,-2
2984,-8,-7,1007,-2,-1,0
2985,1,-8,1001,-2,-3,2
2986,2,-4,1000,-3,-1,2
2987,-3,-4,995,-2,1,0
2988,-8,3,1011,-2,-1,0
2989,-4,-5,994,0,-1,-2
2990,-7,-8,1009,0,1,-2
2991,-2,0,998,-2,-1,0
2992,-9,4,1009,-2,-1,0
2993,-2,-3,990,-2,-1,0
2994,-6,-4,1011,-5,-1,0
2995,-2,-7,1002,2,3,0
2996,-8,-2,1004,0,3,-2
2997,-1,-4,999,-2,-1,-2
2998,-10,0,998,0,-1,-4
2999,-12,3,1007,0,3,0
3000,-6,6,997,0,1,-2
3001,-6,-6,995,-3,1,-2
3002,-2,-7,995,-2,-1,2
3003,-3,-9,1012,-2,-3,0
3004,-3,4,999,0,1,0
3005,0,-8,1008,0,3,-2
3006,-6,-13,1008,0,1,2
3007,-6,-2,993,-2,-1,-2
3008,2,-6,1002,-2,-1,-2
3009,-8,6,995,2,-1,2
3010,0,-5,1012,-2,-1,-4
3011,-2,7,1004,0,-1,2
3012,-1,-7,993,0,1,-6
3013,-4,-5,993,-2,-1,-2
3014,-3,-7,1009,-2,-3,-4
3015,-7,2,1007,-2,-1,4
3016,-7,1,1013,4,1,0
3017,2,-6,1009,-2,-1,0
3018,-5,6,1003,2,1,0
3019,-3,-11,1008,-2,-1,0
3020,-1,5,1003,-2,-3,-4
3021,-18,-8,995,0,1,-2
3022,-5,1,1006,-2,-1,-4
3023,-15,1,999,2,3,0
3024,1,-6,1003,-2,-3,-6
3025,-7,2,1002,-2,-1,0
3026,-6,5,1023,0,1,-4
3027,-2,-2,1003,0,1,-4
3028,-4,-6,987,-2,-1,0
3029,-8,9,1002,-2,-1,-4
3030,2,10,994,-3,-1,2
3031,2,-4,989,-2,-1,2
3032,5,-4,1000,2,1,2
3033,-6,-4,996,2,1,2
3034,-9,-7,1006,0,3,-2
3035,-3,-3,1010,0,-3,0
3036,-11,0,999,0,1,2
3037,0,5,999,0,1,-2
3038,-8,-6,1013,-2,-3,-2
3039,-2,-1,1002,0,3,-4
3040,-6,-1,1016,-2,-3,0
3041,-6,-6,990,2,1,0
3042,-4,0,989,-2,-1,-4
3043,-2,-14,1000,-2,-1,-1
3044,-2,-4,1004,0,1,-5
3045,-6,-1,990,-2,-3,1
3046,6,4,1009,-6,-1,-1
3047,-5,4,1018,-4,-3,3
3048,1,-6,1005,-2,-3,-1
3049,-6,-2,1004,-2,-3,-1
3050,3,4,992,-2,-1,-5
3051,1,4,999,-2,-1,-1
3052,-9,-1,997,-2,-1,1
3053,-6,1,1013,-2,-1,1
3054,-3,6,1018,-4,-1,1
3055,-9,1,990,0,-1,-5
3056,-2,-5,1010,-2,-1,-1
3057,5,2,998,0,1,-3
3058,-1,1,1000,-2,-1,-1
3059,4,-9,1010,-2,-3,1
3060,-10,-3,992,2,1,-3
3061,-7,2,999,0,1,-1
3062,-5,-8,1007,2,1,-1
3063,-14,1,1012,2,1,5
3064,-3,7,1000,-4,-1,3
3065,-1,0,1010,0,1,1
3066,-8,-1,1002,-2,-1,1
3067,-2,-5,1006,-2,-1,-1
3068,-4,1,997,-2,1,-1
3069,3,-2,1008,-6,-3,1
