sequence,AccelerometerX,AccelerometerY,AccelerometerZ,GyroscopeX,GyroscopeY,GyroscopeZ
0,8,4,1012,2,0,1
1,5,-6,991,-4,2,-1
2,-3,-10,1003,4,4,1
3,7,-5,999,-4,-1,3
4,6,-11,1016,-2,-1,1
5,-5,-3,1008,-2,-3,-1
6,2,-10,960,0,0,-3
7,7,-5,1002,0,0,1
8,-6,-14,1000,0,2,-1
9,2,-6,995,2,2,-1
10,5,-4,1004,0,0,-1
11,-4,-7,1007,0,0,-3
12,-3,-1,1011,-2,-3,-1
13,-1,-6,1004,0,-1,-1
14,-7,-4,1007,-4,-3,-1
15,-8,-2,1013,0,0,-1
16,-1,3,987,-2,-1,1
17,3,0,1001,-2,0,-1
18,3,-5,1002,0,-3,1
19,1,2,1009,-2,-1,-5
20,0,0,985,-4,-1,3
21,-1,-6,1006,0,2,-1
22,-6,-7,1000,0,0,3
23,-2,-8,1001,-4,-5,-1
24,2,-10,1005,-2,-3,1
25,6,0,998,-2,-1,1
26,-6,-6,998,-4,-3,1
27,1,5,996,-4,-1,1
28,11,1,987,-2,-3,-1
29,2,-11,999,-2,-5,-3
30,0,-13,1001,-2,-3,-3
31,2,-5,1004,-4,-3,3
32,-7,0,992,-2,-5,-1
33,2,15,1011,0,-1,1
34,1,3,998,0,-1,1
35,-4,-17,994,0,0,1
36,-4,-29,1003,0,2,-5
37,-1,0,988,-2,-1,-7
38,4,17,996,-2,-3,-7
39,0,0,1002,-2,-1,5
40,8,-8,995,-2,-1,6
41,-4,-8,1006,0,0,-1
42,-5,-12,1006,0,0,-9
43,-4,-6,1003,-2,-1,-3
44,1,-16,1000,-2,-1,5
45,8,-13,1015,0,0,6
46,3,-2,1000,0,4,3
47,-4,11,1004,-2,-1,-7
48,6,18,1007,0,-1,-1
49,6,-8,1003,-4,-3,1
50,2,-29,1002,0,2,1
51,5,-17,993,-2,-1,1
52,14,5,1015,-2,0,-5
53,9,11,1011,0,0,1
54,5,11,1010,0,2,5
55,-2,-7,989,0,0,5
56,2,-14,1004,-4,-5,-1
57,-3,-12,1004,0,-1,-1
58,8,-4,1004,-2,-1,-1
59,6,-8,1004,0,2,3
60,8,-8,994,-2,-1,1
61,-4,6,1016,-2,-5,3
62,0,8,1015,-2,-3,-3
63,-3,2,1013,-2,-1,-1
64,4,-14,1010,-2,-1,3
65,4,-17,1006,0,0,-3
66,11,-9,1003,-2,-1,-1
67,2,2,1006,-2,-3,-5
68,4,15,1000,-2,-3,1
69,-6,-3,1010,0,0,1
70,-3,-6,1009,-2,-1,5
71,9,-14,991,0,0,1
72,-1,-8,1003,-2,-1,-1
73,-4,2,1004,-4,-3,5
74,-2,-3,1017,-4,-3,-1
75,7,2,991,4,0,1
76,-1,-8,987,-4,-3,-3
77,-3,0,1002,0,0,-5
78,-4,-7,1000,-2,-1,-1
79,2,2,1000,-2,-3,3
80,-2,-1,1002,2,2,-1
81,0,-10,992,-2,-1,1
82,0,6,1001,0,0,-3
83,2,10,1001,2,-1,1
84,-1,3,988,-2,-1,3
85,-4,-3,998,0,0,-1
86,-8,-5,1009,-2,-1,1
87,4,3,1014,-2,-7,-3
88,-6,-7,1001,0,4,1
89,-2,1,1003,-2,-3,3
90,1,3,1006,-2,-1,1
91,0,3,1004,-2,-1,-1
92,1,-3,993,2,4,1
93,3,-7,1007,0,-1,1
94,1,-13,1007,-2,-1,1
95,2,-10,989,-2,-1,-1
96,-4,2,1000,0,0,-3
97,5,9,1001,0,-1,1
98,1,1,1005,0,-1,1
99,-1,-8,990,-2,-1,1
100,2,-6,1002,0,0,-1
101,-4,-11,1013,-2,-3,3
102,1,-4,995,0,0,1
103,5,-6,993,0,-1,-1
104,2,-1,1004,-2,-1,1
105,0,-4,1005,0,2,1
106,-4,-11,1005,0,-1,-3
107,-3,-8,999,2,0,-1
108,2,-3,1008,0,0,1
109,2,-13,1000,-2,-1,1
110,9,-4,1006,-2,-3,1
111,1,2,999,2,4,3
112,-7,8,1007,0,4,-3
113,0,-6,1001,2,0,-1
114,1,-13,1014,-2,-1,-1
115,0,0,1003,-4,-3,1
116,5,-3,990,-2,-3,1
117,-6,-2,1007,-2,-1,-1
118,6,-3,1002,-4,-1,1
119,2,-3,1010,-2,0,1
120,1,5,1006,0,-1,-1
121,2,5,1009,0,2,-3
122,8,6,1012,2,2,2
123,5,-2,999,0,0,-2
124,1,3,984,-2,-6,2
125,1,-5,1005,0,0,-4
126,-6,-3,1012,-2,-4,-2
127,-3,-6,993,2,2,-6
128,-5,-5,1000,0,-2,4
129,7,3,1007,-2,-2,-2
130,-4,-2,1006,0,-4,0
131,6,-4,1005,0,2,-2
132,5,8,998,0,0,2
133,5,3,993,-4,2,4
134,4,-6,1002,-2,-2,-4
135,1,-3,1013,-4,-2,2
136,5,5,988,-2,-4,-2
137,11,1,991,-2,-4,-2
138,4,1,1001,0,0,0
139,7,-12,1004,-2,-4,-4
140,2,0,1017,-2,0,0
141,-7,-2,998,0,-2,0
142,6,1,1005,2,2,-2
143,4,-9,1002,-2,-2,0
144,-2,-2,996,-2,-4,2
145,3,-3,1004,-2,-4,-4
146,0,-4,1004,0,0,-2
147,-7,-2,1001,2,0,0
148,3,-10,1001,0,-2,-2
149,4,-6,998,-2,-2,2
150,2,0,1005,-4,-7,0
151,1,1,1012,0,2,-2
152,2,1,1010,2,0,-2
153,-1,-6,1007,-2,-2,2
154,8,-4,989,0,2,0
155,6,4,983,0,0,0
156,8,-4,994,-4,-2,-2
157,-1,-11,988,-4,-2,-4
158,-6,-3,996,-6,-6,0
159,-1,-9,1012,-2,-2,0
160,-6,-2,1009,2,0,2
161,-7,-4,991,-2,-2,2
162,1,-8,1005,-2,2,-2
163,0,-4,1005,0,0,-4
164,-4,-7,984,0,2,-2
165,0,4,1014,0,0,0
166,-1,-2,1007,0,0,-4
167,1,0,1011,-2,-2,0
168,-5,6,1012,0,0,0
169,-7,-4,995,-4,-4,0
170,-4,-7,999,-2,-2,-2
171,5,3,995,-2,-2,-2
172,-6,-1,1003,0,6,0
173,-3,1,996,2,0,0
174,0,-6,1006,0,0,-6
175,1,-2,1013,0,2,-4
176,11,0,992,2,2,2
177,6,-9,1014,-4,-2,2
178,2,6,1006,0,0,2
179,-4,-1,993,0,0,-4
180,3,-6,996,0,2,-2
181,1,-3,998,-4,-2,0
182,-1,0,999,0,0,0
183,-4,-5,996,0,0,-4
184,1,-1,996,-2,-4,0
185,-1,0,1008,0,-2,4
186,2,-2,995,0,2,-2
187,-4,0,988,-2,0,-2
188,-2,-3,1001,2,0,-4
189,-1,-11,993,-2,-2,-2
190,-5,-4,1009,-2,-2,-2
191,8,1,983,0,0,0
192,7,-5,995,-2,-4,2
193,-3,6,1011,-2,-2,0
194,0,-6,1013,-4,0,-2
195,8,-3,999,0,0,0
196,-10,-4,1003,-2,-2,-2
197,8,-2,994,0,4,0
198,-10,-5,1007,0,0,-4
199,-10,-7,994,2,4,2
200,4,-3,1009,0,0,0
201,4,1,1007,0,2,-6
202,-4,-10,1012,-2,-2,0
203,6,-7,1005,0,2,2
204,6,1,989,0,0,-2
205,9,-4,991,0,2,-4
206,2,-3,1008,-2,-2,2
207,-4,-12,988,0,2,0
208,-6,2,1004,-2,-4,0
209,1,-11,1001,-4,-2,0
210,-3,4,999,0,2,0
211,-7,-5,999,-2,-2,-2
212,1,-2,999,0,2,-2
213,0,3,1000,0,0,2
214,1,3,1002,2,-4,-2
215,-1,4,1001,0,0,0
216,0,3,999,-4,-2,0
217,11,-4,1004,2,4,0
218,6,-5,1004,0,0,0
219,0,4,1006,0,0,2
220,9,6,984,0,2,0
221,5,-6,1007,-2,-4,-4
222,8,-5,1011,-2,-2,0
223,10,-6,1000,0,2,-2
224,8,-4,999,-4,-6,-4
225,-1,-2,1002,0,-4,-4
226,7,-4,1001,-2,2,-2
227,3,-6,981,0,2,2
228,3,2,1004,-2,-2,0
229,-4,0,1006,0,0,-2
230,12,8,1005,0,-2,0
231,9,-9,1005,-2,-4,0
232,-3,5,1001,4,0,-2
233,-2,1,1001,-2,-2,-2
234,8,-2,1005,0,0,-2
235,-3,-8,1000,-4,-2,0
236,5,2,1000,-2,-2,0
237,-4,-3,992,-2,-2,-2
238,4,-8,1008,0,2,-4
239,-4,-2,1007,-2,2,0
240,-1,-1,993,-2,-2,2
241,2,0,1004,4,0,-4
242,6,-7,1008,-2,-4,-2
243,6,5,1003,-4,-4,-2
244,4,-3,995,-2,-4,-2
245,4,-5,996,0,0,-2
246,-12,0,1010,-2,-4,-2
247,5,-8,993,-2,-2,-2
248,8,-2,992,0,0,-8
249,2,0,1000,0,0,-4
250,5,-12,999,-4,-2,-2
251,2,-7,1013,0,-2,-2
252,3,-2,1010,-2,0,-4
253,7,-3,995,-2,-4,-2
254,2,-1,998,-2,-4,-4
255,-7,-4,1007,2,0,-2
256,-1,-5,996,2,0,-2
257,3,-4,1008,0,-4,-2
258,3,-6,995,-6,-2,2
259,1,-9,1006,-2,-2,-2
260,2,-2,999,-2,-4,0
261,-2,-3,987,-2,-2,-2
262,3,-11,1011,0,-2,-2
263,-3,-5,1010,0,0,-2
264,-3,-3,1014,-4,-6,-2
265,-1,-4,990,0,0,-2
266,0,-4,996,0,0,-2
267,16,-2,989,-2,0,-4
268,4,2,1006,0,0,2
269,4,-5,1001,0,0,0
270,5,4,997,-2,-2,0
271,-1,0,1001,-4,-2,0
272,-4,1,1008,0,2,-4
273,6,-3,1010,-2,-2,0
274,1,0,1010,-2,-2,2
275,4,-5,994,0,0,-2
276,8,-3,1007,-2,-4,0
277,-4,0,1001,0,-2,-4
278,6,2,988,-2,-4,-2
279,2,-7,996,2,2,0
280,10,-3,986,-2,-4,-2
281,-7,0,1008,2,0,-2
282,-2,3,1025,-2,-2,-2
283,4,-6,1027,-2,-2,0
284,4,-5,1004,2,0,0
285,-7,1,1008,-4,-2,0
286,0,-1,1004,-2,-2,-2
287,-2,1,1010,-4,-2,0
288,1,-3,998,0,0,-2
289,8,-11,1004,2,-2,-2
290,-5,0,1004,-4,-6,0
291,-8,0,1000,-2,0,-2
292,-2,8,1009,-2,-4,0
293,6,3,998,0,2,4
294,1,-9,1022,2,0,-4
295,-3,-2,992,0,-2,-2
296,9,-4,1005,-2,-2,0
297,3,-8,1009,-2,0,2
298,-5,-7,983,0,-2,0
299,5,-4,994,-2,0,0
300,-4,-3,1008,0,-2,-2
301,-3,-6,1001,0,0,-2
302,4,-1,994,2,2,0
303,2,-4,1003,2,0,-4
304,-3,8,1008,2,2,0
305,3,-9,998,-2,-6,-2
306,-1,-11,1005,0,0,-2
307,-4,4,1004,0,0,-2
308,2,-2,1013,-2,-2,2
309,-2,3,1008,-4,-2,-4
310,-2,3,1020,-4,-2,0
311,2,-8,996,0,4,-4
312,2,-5,999,2,-2,0
313,4,-2,1011,-2,-2,-2
314,1,-5,1013,-2,-4,-2
315,3,-6,992,-2,-2,-2
316,4,3,991,0,-4,0
317,-7,-7,1000,-2,-4,0
318,3,-3,1010,-4,-2,0
319,-5,-6,1005,4,0,-2
320,-4,3,986,-2,-6,0
321,-5,-7,1003,-2,-6,-2
322,-6,2,1000,0,0,-2
323,5,-2,991,-2,0,-6
324,7,-3,1001,-2,0,-2
325,-4,2,1005,0,0,0
326,0,7,990,-2,-2,0
327,8,1,986,0,2,-4
328,-4,-9,1012,-2,-4,0
329,2,-2,995,-2,-4,0
330,2,-7,1003,0,-2,-4
331,-5,-3,1012,0,0,0
332,6,-1,1008,0,-2,2
333,3,3,1004,0,-2,-4
334,-4,-7,1004,-2,-2,-2
335,-6,1,1005,2,0,-2
336,2,2,1006,-2,-6,-2
337,12,-1,998,2,0,2
338,-10,-2,991,2,2,-2
339,4,-11,1006,-2,-2,-2
340,-10,-13,1002,-2,-2,-2
341,2,-6,988,-2,-2,-2
342,-9,-3,1014,2,2,0
343,5,-7,995,0,2,-2
344,-1,-2,999,2,0,-2
345,5,-6,1004,0,-2,-2
346,-2,0,1007,0,0,-2
347,-2,1,1020,0,2,0
348,9,2,1012,0,0,-4
349,4,-4,1004,0,0,-2
350,3,-8,1001,-2,-2,-2
351,9,-7,1003,-4,-2,0
352,5,-2,1005,0,2,2
353,1,-11,998,-2,-2,-2
354,11,-9,1001,-2,-2,4
355,-2,-2,1005,-2,-4,-2
356,1,-7,1001,-2,-4,0
357,4,-8,995,-2,-4,-4
358,-3,-2,1014,0,0,0
359,-9,9,1002,2,2,-4
360,-2,-2,989,-2,-2,-4
361,5,-2,1005,4,0,0
362,-2,4,1009,-2,0,-2
363,2,-5,1010,-2,-2,-2
364,6,7,1003,0,0,-4
365,0,-3,998,2,2,-2
366,-2,-6,995,-2,-2,4
367,0,-2,1010,0,0,-4
368,-2,4,1006,-2,-4,-4
369,5,-8,1010,0,-4,0
370,-3,2,1003,0,0,-2
371,-1,-9,1015,0,0,2
372,0,9,992,2,2,0
373,1,-5,996,0,2,2
374,1,-3,1008,0,-2,4
375,5,-7,1008,0,-2,0
376,-10,1,1003,2,0,-2
377,-4,-4,1000,-2,-2,-4
378,0,-3,1001,0,-2,-2
379,0,-5,1002,0,0,-2
380,4,-5,1008,-6,-2,2
381,-1,-11,993,-2,-4,0
382,-3,-13,1009,-2,-2,-2
383,5,-9,1009,-2,0,-2
384,8,-9,1006,-2,-4,-2
385,0,0,1017,-2,-2,0
386,-1,-1,994,-4,-4,0
387,-6,-8,1003,-4,-4,-2
388,6,4,1007,-2,-2,0
389,9,-2,1000,0,-6,0
390,6,-6,1004,2,-4,0
391,8,-3,1004,4,2,0
392,5,1,1009,-2,-2,0
393,6,-6,1003,-2,-2,0
394,-2,-3,1007,-2,-6,0
395,1,-3,1014,0,2,0
396,7,-5,983,-2,-2,-6
397,9,-15,1009,-4,-2,-4
398,1,-13,1008,0,2,2
399,-3,2,991,0,0,-4
400,-1,-3,1003,0,2,-2
401,2,1,1012,-2,-2,-2
402,7,-2,1002,2,0,2
403,2,-4,1007,0,2,-4
404,-5,0,1004,2,0,0
405,2,-2,1001,-2,-2,0
406,0,1,998,-2,-2,-2
407,0,6,1009,0,0,2
408,6,-9,1008,-2,-6,0
409,0,-7,1000,0,0,0
410,-2,-3,1006,-4,-2,-2
411,1,1,1009,0,0,-4
412,-3,0,994,-2,-2,-2
413,7,2,1004,-6,-4,0
414,2,-2,1002,2,0,-4
415,-5,0,1001,-2,-2,-2
416,-3,-1,1005,-2,-4,4
417,6,-2,1012,0,0,0
418,0,-6,1005,-2,-4,-2
419,4,1,990,0,0,-2
420,1,-11,987,-2,-2,2
421,-5,2,993,0,2,4
422,-1,-2,1004,-2,-4,0
423,-3,-1,999,-2,-2,2
424,-3,-8,1003,-2,-2,0
425,4,-2,1007,-2,-2,-6
426,-4,-3,1006,-6,-2,0
427,4,-7,1005,2,0,0
428,0,-13,990,2,0,0
429,9,-13,988,0,0,0
430,2,-2,1011,-4,-2,0
431,-1,-3,1012,0,2,-2
432,3,-7,983,0,0,2
433,5,-7,989,-2,-2,0
434,-8,-11,1006,-2,-6,-2
435,6,2,992,0,0,-4
436,4,-4,1010,-2,-2,2
437,1,-2,1002,0,0,-2
438,-2,-6,1014,-2,-2,0
439,-2,-4,1004,0,0,-4
440,3,-3,1002,0,0,-2
441,0,-5,1003,-4,-2,0
442,-3,-11,1002,0,0,-4
443,-1,-6,993,0,0,-2
444,-3,0,1006,2,0,-4
445,-4,-8,993,-2,-2,-4
446,3,-6,1016,-1,-3,-2
447,13,-9,1001,1,3,-4
448,13,-4,1007,-1,-3,2
449,6,1,996,1,5,-2
450,0,-6,1002,-1,-3,0
451,4,-1,1004,5,1,-4
452,1,-10,1003,5,1,-2
453,6,6,1007,1,1,-2
454,2,-7,1001,1,1,0
455,5,-6,999,-1,-3,-2
456,7,3,1002,-3,-5,0
457,9,-3,995,-1,-1,-4
458,13,-7,999,1,3,-2
459,4,-8,1003,3,3,-4
460,-6,-4,1006,-1,-1,2
461,-3,-9,1000,-3,-3,-2
462,-8,-5,1008,1,-1,-4
463,1,-5,1011,-1,-3,0
464,0,-6,1003,1,-1,-2
465,15,-13,998,1,-1,4
466,-3,-13,1003,-1,1,2
467,0,-2,989,-1,-1,-2
468,0,7,994,1,1,0
469,6,-9,1005,-1,-1,0
470,0,-2,1013,1,5,-2
471,-6,-6,993,1,1,-2
472,1,7,1004,-1,-1,-4
473,4,-11,1010,-1,-1,-2
474,4,2,1008,-3,-3,2
475,6,-4,1002,1,1,-4
476,13,-9,1005,-1,-1,0
477,4,6,1004,-1,-1,0
478,6,-5,990,1,1,0
479,1,-4,997,-1,-1,0
480,-3,7,1003,-1,-3,2
481,-3,-1,991,1,1,0
482,-2,-3,1006,1,3,-6
483,2,-11,1011,1,1,-2
484,4,-1,1001,5,1,-4
485,0,-4,993,-1,-3,-2
486,2,1,1008,1,3,2
487,6,-5,994,3,1,0
488,1,3,1000,-1,-1,2
489,-9,2,992,-1,-3,-2
490,5,-8,1004,3,1,-2
491,-1,-7,991,-1,-1,-2
492,4,-9,995,3,5,0
493,-4,-4,1000,3,1,2
494,-3,0,1006,3,1,4
495,2,-5,1013,1,1,2
496,9,-2,1002,1,1,0
497,-3,-14,997,1,3,-2
498,2,1,1014,-1,-3,-2
499,-6,-7,1004,-3,-1,0
500,6,-6,1006,-1,-3,0
501,1,-9,1006,-1,-1,-2
502,0,1,1002,3,3,-4
503,-3,-17,1010,-3,-1,0
504,2,-5,998,3,3,0
505,-7,4,993,-1,-1,-2
506,-2,-3,1003,-1,-3,0
507,-3,-2,999,1,1,2
508,-2,-2,1003,-3,-1,0
509,0,13,1007,-1,-1,2
510,-1,-7,1002,-1,-3,0
511,5,-1,1016,1,3,-2
512,-3,-3,1002,-1,-1,0
513,-4,3,1011,1,1,0
514,7,-3,1007,-1,-5,2
515,1,-4,1003,1,1,0
516,-4,4,1006,1,1,2
517,-1,-5,1004,-1,-1,4
518,0,7,1001,1,1,0
519,-6,-2,1018,-1,-1,0
520,-10,0,995,-1,-1,0
521,5,-5,1003,-1,-3,0
522,2,-8,1012,-1,-3,-2
523,4,2,998,3,1,2
524,9,-1,994,3,3,-4
525,5,6,1020,-1,-3,-6
526,4,-2,1007,-1,-1,2
527,4,-9,1009,1,-1,-2
528,-6,-7,999,-1,-3,-4
529,1,0,1017,-1,-1,-4
530,-3,-6,999,-3,-1,-2
531,3,4,1007,-1,-5,2
532,-6,2,1017,-1,-1,-2
533,2,1,1004,1,-3,-6
534,3,0,1005,1,3,-2
535,0,0,1007,-1,-1,-2
536,-8,0,1012,1,-3,0
537,-1,-13,1022,3,1,2
538,0,-1,1002,-1,-3,2
539,-3,1,1006,1,1,-2
540,5,0,1013,1,1,-2
541,-1,-9,1004,-3,-1,-4
542,-6,-6,1014,3,1,-2
543,0,-6,990,-1,-3,2
544,-3,-3,993,-1,1,-2
545,2,-1,991,0,-1,-2
546,-1,-9,1007,0,1,-2
547,2,-2,1012,0,-1,0
548,-4,-5,1012,0,3,0
549,-4,-3,1012,2,1,-6
550,3,0,1018,-1,-1,-4
551,-6,-2,1013,-1,-1,0
552,2,5,988,0,3,2
553,-6,-6,993,4,5,0
554,6,4,999,-1,-1,0
555,6,-11,1005,0,3,-2
556,7,0,996,0,1,2
557,3,-9,1005,0,3,-2
558,-9,-2,1009,-1,-3,2
559,4,4,991,-3,-1,0
560,-8,-1,1002,0,1,-2
561,-1,-5,1013,0,1,-2
562,4,4,1010,0,1,0
563,1,1,1002,-3,-1,-4
564,-3,0,995,-1,-1,2
565,-1,-2,995,2,3,-6
566,-4,-2,1007,0,3,0
567,-5,3,1004,-1,1,2
568,-3,-6,998,-1,-1,-2
569,-2,1,1006,-1,-1,0
570,-2,5,996,2,1,-4
571,4,-8,998,-3,1,-6
572,6,-6,1000,0,1,-4
573,-4,4,997,2,1,-2
574,5,-9,1004,0,3,-4
575,-2,0,999,-1,-1,-2
576,2,-5,1000,2,3,0
577,13,-5,996,-1,-1,0
578,-2,2,1010,-1,-1,2
579,8,4,1004,-5,-3,-2
580,0,8,994,0,1,2
581,-5,-5,1008,2,1,0
582,4,-4,1001,2,3,-2
583,-6,-10,1001,-1,-1,0
584,5,-4,1004,-1,-3,0
585,7,-7,994,0,1,0
586,4,-6,1002,0,3,-4
587,2,6,1001,0,3,0
588,0,2,999,0,3,0
589,5,-5,1015,-3,-3,2
590,5,3,997,0,3,0
591,5,-9,1008,0,3,0
592,3,-7,1005,-1,-1,-2
593,12,0,1004,0,-5,-2
594,-4,-5,1000,-1,-1,-2
595,4,-2,993,0,1,-2
596,0,2,1009,-1,-1,-2
597,-3,-5,992,-1,-1,-2
598,-4,-6,1013,0,1,2
599,0,-6,993,0,1,-2
600,8,2,998,-1,-1,2
601,2,-2,1003,0,1,-4
602,2,-4,998,-3,-1,-4
603,-1,-12,1004,0,3,0
604,8,3,1003,0,3,-2
605,-8,-5,996,-1,-1,2
606,0,-9,1006,2,1,0
607,-3,0,1003,-1,-1,-2
608,0,-2,1000,0,3,-6
609,-4,-9,992,0,1,0
610,-5,2,1012,0,0,-1
611,-2,1,1004,0,0,-1
612,6,-12,993,2,2,0
613,-3,-5,1002,-4,-4,0
614,2,-7,997,2,-4,-3
615,1,-1,1006,-4,-2,-3
616,-4,4,999,-2,-4,0
617,2,-3,999,0,0,-1
618,1,-2,1009,0,2,-1
619,5,-2,1004,-2,-4,-1
620,7,-4,985,-2,-2,4
621,0,0,1002,-2,-2,-1
622,-1,-5,1018,2,2,-3
623,2,3,1006,2,-2,0
624,-3,-3,994,-2,-2,-1
625,-8,1,1004,0,2,0
626,-2,-3,1008,-2,-2,-1
627,6,3,1009,-2,-4,0
628,5,-2,999,0,0,0
629,-2,-4,993,-2,-2,-1
630,3,-4,1002,-2,-6,0
631,1,-1,1012,0,2,2
632,4,-5,995,0,0,0
633,9,1,993,0,0,-1
634,-8,0,1014,-2,-2,-3
635,-6,-4,994,-2,-2,-3
636,7,1,983,-2,-6,0
637,7,-3,992,0,0,-3
638,11,0,998,2,2,0
639,2,-1,1006,0,2,2
640,5,-6,1014,2,0,-3
641,0,-11,986,-2,-4,-3
642,-6,-2,1003,0,-2,-1
643,-4,-10,1001,2,0,2
644,0,-4,998,-2,-4,-3
645,-2,-1,993,0,0,-5
646,-8,1,999,0,2,0
647,-1,-3,1011,4,0,-1
648,-2,-9,1000,-2,-2,-3
649,3,-7,1010,-2,-4,-1
650,0,-6,986,0,-6,-1
651,2,-5,995,-2,-4,-3
652,4,5,992,0,4,2
653,-1,-8,994,-2,-4,-1
654,-5,1,1006,0,0,0
655,1,-6,998,2,-2,-3
656,-6,2,1014,0,2,-1
657,-1,-6,995,-2,-2,4
658,5,-5,989,2,4,0
659,1,1,1002,-6,-2,2
660,1,-4,1009,0,0,0
661,3,-7,1008,-2,-4,0
662,-5,-1,1007,-2,-2,0
663,-4,-4,1009,-2,-4,0
664,-1,2,1007,0,0,0
665,0,7,1001,2,-2,2
666,5,-13,986,0,-2,0
667,1,1,990,-2,-6,2
668,2,-12,996,0,2,-1
669,-1,-1,993,-2,-2,0
670,3,-6,1006,0,0,0
671,2,-6,1006,-4,-6,2
672,-1,1,998,0,4,0
673,2,-1,1010,0,2,-3
674,-1,12,985,0,0,-3
675,0,-3,1001,2,2,-1
676,1,-3,996,2,0,0
677,-1,-8,1006,-2,-4,0
678,0,1,1008,-2,-2,-3
679,5,1,1002,-2,-2,0
680,4,-3,1001,-2,-4,-1
681,-6,-2,1006,0,0,-1
682,1,2,1016,0,-2,2
683,-2,3,1003,-2,-2,-3
684,8,-5,1015,-2,-4,-1
685,2,-2,1000,2,0,0
686,-9,3,1000,0,0,0
687,0,5,1006,-2,-4,0
688,0,-7,1007,-2,-4,-1
689,-6,3,998,4,0,-1
690,6,2,1010,-4,-4,0
691,5,-6,1000,-2,-2,-1
692,0,-3,999,-2,-4,0
693,7,-10,1012,0,0,-1
694,2,-2,996,-2,-2,-1
695,-3,0,994,-2,-4,-1
696,-2,-7,988,-2,-2,-1
697,6,-11,994,0,2,0
698,-2,7,1001,2,0,-1
699,3,2,1003,2,0,-1
700,6,1,1006,0,2,4
701,1,-4,1000,-2,-4,0
702,9,-11,1002,-2,-2,-3
703,-1,1,1008,-2,-4,-1
704,-3,0,993,4,-2,-1
705,5,-6,1012,0,0,-1
706,1,-2,990,-2,-4,2
707,8,-3,994,-2,-2,-1
708,4,5,1009,-4,-6,-1
709,0,2,1004,-2,-4,-1
710,-3,-7,983,-2,-6,0
711,-7,1,1012,-2,-2,-1
712,-3,0,993,0,2,-1
713,-1,1,1006,-2,-2,-1
714,-1,-5,1001,-2,-2,0
715,-4,0,994,-2,-4,0
716,1,8,1007,0,0,-1
717,-1,-1,1000,0,4,0
718,5,-6,1003,-6,-2,0
719,1,-10,1003,-2,0,0
720,-4,-8,1001,-2,-2,-1
721,1,1,1001,-4,-2,0
722,-7,2,992,-2,-2,-1
723,-5,-2,999,-2,-2,-1
724,-1,-4,1001,2,-2,0
725,0,2,1002,-2,-4,-3
726,10,6,1011,-2,-6,2
727,2,-3,997,2,0,2
728,0,-6,997,0,2,-1
729,-2,-3,998,0,0,4
730,2,-5,987,-2,-2,2
731,4,-9,1002,-2,-2,-3
732,11,-8,1012,0,2,-1
733,1,-1,1001,2,2,-3
734,4,-1,1009,-2,-6,-5
735,8,-11,993,-2,-2,2
736,-2,-3,1008,-2,-4,-3
737,-11,3,1003,0,-2,-1
738,1,-2,998,-2,-4,-1
739,5,-5,1001,0,0,-3
740,4,7,996,0,2,0
741,-5,-10,1001,-2,-2,-1
742,-2,-4,1008,0,0,0
743,-4,-1,1004,-2,-4,-1
744,-2,-7,996,0,0,-3
745,8,3,992,0,0,-3
746,-7,2,997,-2,-6,0
747,-6,-11,1016,-2,-2,-3
748,1,-3,1000,0,0,0
749,2,-7,1001,-2,-2,0
750,-2,-5,1003,0,0,0
751,4,6,1004,2,0,2
752,13,5,987,-2,-2,2
753,11,-6,1003,0,2,0
754,1,0,1000,-2,-2,0
755,-1,0,1000,0,0,0
756,3,-2,1004,2,0,0
757,1,-9,1005,-2,0,-3
758,6,2,994,2,0,-1
759,4,-2,1004,-4,-2,-1
760,8,0,1009,-2,-4,0
761,1,-5,999,-2,-2,0
762,-6,-2,993,0,0,2
763,4,3,1002,-2,-4,-1
764,9,-8,995,-2,-2,-3
765,1,7,996,-2,0,0
766,-2,-4,1002,0,2,-1
767,6,-3,1003,-4,-4,-1
768,8,-1,984,-2,-2,0
769,-2,2,999,2,0,2
770,10,3,1008,0,-2,2
771,2,-3,996,0,0,2
772,1,-6,982,0,0,-1
773,6,2,1001,0,-4,0
774,-1,-3,1007,-2,-2,-1
775,-3,-2,1013,0,0,-1
776,5,0,1006,0,2,0
777,-1,-10,997,0,0,-3
778,-2,-4,1012,-2,-2,2
779,0,-1,1005,0,2,2
780,1,-1,1003,-4,-2,-1
781,2,-2,997,-2,-2,-3
782,8,1,1005,0,2,-3
783,-8,-7,1000,0,0,4
784,-2,-1,1002,0,0,-1
785,0,-2,1007,-4,-2,-3
786,6,-7,1005,-2,-4,0
787,0,-2,1008,0,0,2
788,7,-5,995,-2,-2,-3
789,-5,-7,1012,0,0,2
790,1,2,999,-2,-2,0
791,1,-3,1001,-2,-4,0
792,-3,2,1006,-2,-2,0
793,1,0,998,-2,-4,-3
794,6,-1,1005,2,2,0
795,2,3,998,0,-2,-1
796,2,-8,996,0,0,-5
797,7,-7,996,-2,-2,0
798,7,-2,988,-2,-2,-1
799,5,-9,998,-2,-4,-1
800,5,-1,999,2,0,-3
801,-1,-4,1012,2,2,-1
802,1,-3,991,-2,-2,0
803,4,-2,1002,2,2,0
804,13,-4,999,-2,-4,-1
805,-5,7,998,2,0,-1
806,-3,2,1007,-4,-6,2
807,2,1,1007,-2,-2,4
808,4,0,1004,-2,-2,-1
809,0,-3,993,-2,-2,-1
810,4,-2,1001,2,2,-1
811,0,-6,996,0,0,-3
812,1,-2,1003,-2,-2,2
813,-12,-4,1002,-2,-2,2
814,10,-3,998,0,0,6
815,-3,-2,1013,2,0,0
816,8,-3,997,-2,-2,-3
817,3,-6,1013,0,0,2
818,1,-5,990,-2,-2,0
819,0,1,1008,2,0,-1
820,0,0,1005,-2,-2,-1
821,-7,-6,1011,0,2,0
822,1,-2,994,2,4,4
823,-3,-12,991,0,0,-5
824,-1,-4,1000,0,0,-1
825,2,-8,1006,4,0,2
826,-1,1,1010,0,2,0
827,3,-7,994,-2,-2,-1
828,2,5,1004,-2,-2,-3
829,-2,-6,1001,-2,-2,-3
830,9,-1,993,-2,-4,-1
831,1,-6,998,2,0,0
832,1,0,988,2,0,2
833,3,-7,1006,-2,-2,0
834,3,-6,1001,-2,-2,-1
835,5,-8,997,-2,-4,0
836,-4,-4,997,0,0,0
837,-4,-7,1005,-2,-4,0
838,0,-5,1009,2,2,0
839,14,-4,1007,2,0,2
840,-10,5,993,0,0,-1
841,-3,-5,996,0,2,0
842,0,-6,998,2,0,0
843,-7,-6,1012,4,0,0
844,9,1,1000,-2,-6,-3
845,1,-5,995,-2,-6,-1
846,-7,3,1002,2,0,-3
847,-4,-2,1000,-2,-2,0
848,6,-1,988,0,0,4
849,1,-1,995,2,4,2
850,5,6,1011,-2,-8,-1
851,3,6,998,-4,-2,-1
852,-3,1,1011,-2,-2,0
853,0,2,996,0,-2,-3
854,7,5,989,0,0,-3
855,4,-4,996,0,-2,-1
856,5,1,1003,-2,-2,0
857,5,0,997,0,0,4
858,2,-7,1003,-2,-4,2
859,-2,1,986,-2,-4,2
860,0,-14,993,-2,-2,2
861,7,-11,1002,-2,-2,-1
862,-1,-3,1015,0,0,-1
863,3,-5,999,0,0,-3
864,-4,-15,1006,-2,-2,0
865,-8,-6,995,-2,-4,0
866,6,5,998,2,0,-1
867,4,1,1004,0,0,0
868,3,4,1014,0,0,0
869,5,-2,998,-2,-2,0
870,8,-3,993,-4,-4,2
871,5,-6,1001,-2,-4,0
872,8,-6,1005,-4,-2,-3
873,7,-5,985,-2,-2,0
874,1,-14,1003,0,-4,-3
875,10,-2,1010,-2,-4,0
876,3,-1,1000,-4,-2,0
877,3,1,990,-2,-4,-1
878,2,-5,1000,0,0,-1
879,-8,2,1005,-2,-2,-1
880,1,-2,992,0,0,-1
881,2,-1,1004,2,0,4
882,1,-5,1011,2,0,2
883,2,-5,991,-2,-2,0
884,5,-1,1003,-2,-2,-3
885,2,2,999,-4,-4,0
886,6,-15,1011,0,0,0
887,-1,4,1006,-2,-4,0
888,4,-2,999,-2,-6,0
889,4,-8,998,2,0,0
890,6,-7,994,-2,-2,-1
891,1,9,1008,-2,-4,-3
892,0,-4,1000,-4,-4,0
893,-3,-5,999,-2,-6,0
894,2,-5,997,-2,-4,4
895,2,-5,1006,2,2,-1
896,5,-3,1013,2,0,0
897,0,-10,1008,-2,-2,-1
898,-4,-5,996,0,0,-3
899,-4,-7,1005,-2,-2,-3
900,14,-9,992,0,0,0
901,2,-4,1017,-2,-4,-3
902,1,-3,1011,0,0,0
903,5,-5,996,0,4,2
904,0,-9,1008,-2,-2,-1
905,8,-5,996,0,2,-1
906,-6,-8,1005,-2,-4,0
907,1,3,1017,-2,-2,4
908,9,-5,1004,0,-2,-1
909,-3,0,992,0,0,-1
910,9,-2,994,0,-2,-3
911,13,1,987,4,0,-1
912,-2,-15,993,-2,-2,2
913,-4,1,1011,0,0,2
914,0,-6,1011,0,2,0
915,8,-8,1007,-2,-2,-3
916,2,-4,995,0,0,0
917,-8,1,1008,-2,0,-3
918,0,-6,1001,-2,-2,-1
919,6,-3,1004,-2,-2,-1
920,4,-5,1005,-2,0,-1
921,2,0,994,0,0,0
922,7,-4,1009,0,0,-1
923,5,1,1003,-2,-2,6
924,-2,1,990,-2,-2,-1
925,3,5,1005,2,2,0
926,-3,-8,1000,-2,-4,0
927,-6,0,1009,0,2,0
928,-1,-6,987,0,0,-1
929,-1,-8,1004,0,2,-1
930,1,-5,1006,2,2,0
931,5,0,1005,0,0,0
932,8,0,995,0,0,-1
933,4,2,1011,0,0,0
934,-6,-6,1003,2,2,-1
935,-2,-3,1001,-2,-2,-1
936,2,-4,1004,0,0,-1
937,1,5,999,0,0,0
938,4,-17,1001,0,0,-1
939,9,4,1003,0,-2,2
940,9,-3,989,-2,-2,6
941,4,-2,988,-2,-4,-1
942,13,1,1001,0,-2,-1
943,-1,-7,1006,0,0,-1
944,-1,-7,992,2,2,-3
945,9,2,987,-6,-2,-3
946,1,-6,1001,-2,-4,-3
947,5,-9,987,0,2,-1
948,2,-7,991,0,0,0
949,0,-9,996,0,2,-1
950,9,-4,1001,2,0,-5
951,5,2,990,-2,-4,0
952,-4,-2,1004,0,0,0
953,0,-5,1012,2,0,0
954,-8,-1,1003,2,0,0
955,7,-5,992,-2,-2,-3
956,3,-8,996,-2,-4,0
957,3,3,1014,-2,-4,0
958,10,1,1007,0,2,-3
959,4,-4,1004,0,0,0
960,1,0,1002,0,2,-3
961,1,-8,996,0,2,-1
962,-1,-6,998,0,2,-1
963,1,-6,993,-4,-4,-3
964,-4,2,995,-4,-6,-3
965,2,-14,1005,0,2,-1
966,2,-5,1009,0,0,-1
967,11,-4,989,0,-2,-1
968,5,4,1002,-2,-2,1
969,4,-5,992,-2,-2,-1
970,6,-3,997,-2,-2,3
971,0,-5,999,-4,-4,-1
972,-2,-4,1003,2,2,-3
973,-2,0,997,0,0,-1
974,5,3,1001,2,0,3
975,-1,-5,1002,2,2,-1
976,1,-8,1016,-2,-2,1
977,1,-18,1005,-4,-4,1
978,8,-11,995,-2,-4,1
979,0,-11,1007,0,0,-1
980,-3,-3,1000,-2,-2,-1
981,-7,8,1000,0,2,1
982,-4,-6,990,2,0,1
983,2,-3,1016,-2,-2,1
984,-2,-2,1004,0,0,3
985,10,-4,998,-2,-2,-3
986,5,-6,1006,0,0,-1
987,-2,1,1008,0,0,-1
988,6,3,1009,0,2,1
989,6,3,1003,-2,-6,1
990,-1,0,997,0,0,-3
991,5,-7,1005,0,0,-1
992,8,-6,998,-4,-4,3
993,6,-2,996,-2,-4,-1
994,-1,-2,1010,0,0,1
995,-1,0,1006,-2,-4,-1
996,-6,5,1004,-2,-2,3
997,-4,1,1009,-2,-4,-1
998,-4,0,1006,-2,-2,-1
999,5,-2,1008,0,-2,1
1000,1,-8,1006,0,0,-1
1001,-3,-7,1002,-4,-4,1
1002,10,4,1001,-2,-2,-1
1003,1,-5,1009,0,0,-3
1004,5,1,1002,2,2,-3
1005,4,3,1002,0,-2,-3
1006,1,7,995,6,0,-3
1007,-3,-9,1001,0,4,3
1008,-1,-4,996,2,0,1
1009,2,4,1019,-2,-4,-5
1010,1,6,1004,0,0,-1
1011,7,-2,1002,2,0,-5
1012,1,3,1001,-2,-2,1
1013,-4,-6,1002,-4,-2,-1
1014,-2,-4,995,-2,0,-3
1015,0,-3,1002,2,2,3
1016,3,7,1005,2,4,-1
1017,4,-6,1013,0,0,-1
1018,10,-3,1001,-4,-4,1
1019,12,-8,1007,-2,-2,1
1020,-2,0,997,-2,-2,-1
1021,0,4,990,0,0,3
1022,0,-2,999,-4,-2,-1
1023,10,-4,991,-2,-4,-3
1024,4,7,992,2,0,1
1025,-9,-3,996,-4,-2,3
1026,-3,3,996,-2,-2,-3
1027,-3,-3,1006,0,2,-3
1028,-1,-2,985,-2,-2,-3
1029,-2,-5,993,-2,0,1
1030,4,-10,1008,0,0,-1
1031,4,-3,1004,-2,-4,1
1032,9,0,999,0,0,3
1033,1,-6,1004,0,0,1
1034,1,-4,1005,-2,-6,5
1035,10,-3,1000,2,2,-3
1036,-6,-5,1004,0,0,-1
1037,-1,5,1007,-2,-4,-1
1038,-4,2,1005,-2,-2,-3
1039,0,-4,998,0,0,-1
1040,5,-2,1003,0,-4,-1
1041,1,2,1008,0,0,-1
1042,-2,-6,995,0,0,1
1043,4,5,992,0,0,1
1044,8,-7,1005,2,0,-3
1045,-2,3,992,-2,-2,1
1046,-2,4,999,0,0,1
1047,1,-1,991,-2,-2,1
1048,2,-2,1004,-2,-4,1
1049,-2,-4,999,-2,-4,-1
1050,5,-2,1000,-2,-2,5
1051,-13,2,1007,2,2,1
1052,-5,-3,1006,2,2,-1
1053,5,0,1000,2,2,-1
1054,12,-6,1010,0,0,1
1055,-1,0,999,4,2,-1
1056,7,-7,996,4,0,1
1057,2,-4,1005,-2,-2,1
1058,-4,2,999,-4,0,1
1059,5,-5,1007,-2,-2,-1
1060,-2,-10,997,-2,-2,3
1061,-1,-5,994,2,0,-1
1062,0,-2,994,-2,-4,1
1063,-4,-3,1007,-2,-4,-1
1064,2,-2,990,-2,-4,-1
1065,13,4,994,-2,-2,-3
1066,-3,-1,1009,0,2,3
1067,-1,1,1005,0,0,1
1068,-15,-4,988,0,0,3
1069,1,5,1008,0,-2,5
1070,2,-2,995,2,2,1
1071,1,4,1014,-2,-2,3
1072,-1,1,1005,-4,-2,1
1073,-8,-1,1010,-2,0,-1
1074,0,-9,1018,0,0,1
1075,1,-4,1002,-2,-2,1
1076,-2,4,998,-2,-2,1
1077,2,4,1009,-2,-2,3
1078,-2,-7,1009,-2,-2,-3
1079,4,-3,1005,-2,-4,-1
1080,-2,-8,1001,2,0,1
1081,9,-8,1005,-4,-4,-1
1082,-4,8,1014,0,2,1
1083,-1,3,1004,0,-2,-3
1084,7,-3,1001,-2,-4,1
1085,-7,-3,988,-2,-6,1
1086,9,0,1005,2,2,-1
1087,-1,0,1001,0,0,3
1088,-1,0,999,-2,-2,1
1089,7,-3,1016,2,0,3
1090,1,-12,1008,-2,-2,1
1091,-3,-5,1002,-2,-2,-3
1092,13,-3,1004,0,-2,-1
1093,6,-2,999,2,0,-1
1094,5,-12,1007,-2,0,-1
1095,1,-2,1003,0,2,-1
1096,-1,-9,1008,-2,-2,1
1097,1,-4,992,-2,-2,-1
1098,1,-7,1000,0,-4,3
1099,6,-1,1017,-2,-6,-1
1100,4,-1,1006,0,2,-1
1101,-4,-5,1000,0,0,3
1102,0,1,1009,0,0,-3
1103,5,-2,996,0,0,1
1104,7,-2,999,0,2,3
1105,-3,1,1009,0,4,1
1106,9,3,995,0,0,-1
1107,2,-2,998,-2,-4,3
1108,7,3,1008,4,2,3
1109,2,1,1003,0,0,1
1110,1,5,1009,-2,-2,-1
1111,-2,1,1008,0,0,-1
1112,-4,1,999,0,0,1
1113,-2,-2,990,4,0,-1
1114,5,-2,1005,0,-2,-1
1115,7,4,997,-2,-4,-1
1116,-5,-4,993,-4,-2,1
1117,-4,-2,993,-4,-4,3
1118,5,2,997,0,0,1
1119,0,-2,1005,-2,-2,-3
1120,2,1,1010,4,0,1
1121,0,0,999,2,0,1
1122,-1,3,1008,-2,-2,1
1123,-1,5,991,4,-2,-3
1124,1,0,993,0,0,3
1125,2,-3,998,4,0,-3
1126,0,-4,1016,-2,-2,-1
1127,1,4,999,0,2,1
1128,-5,-4,993,2,-2,3
1129,2,0,1007,-2,-2,3
1130,-6,-6,998,-2,-4,-1
1131,4,4,1012,0,0,1
1132,-1,-3,1000,-2,-4,1
1133,0,0,1014,-4,-4,-3
1134,4,0,1010,0,0,-1
1135,5,-5,1007,0,0,-3
1136,1,-6,984,2,0,-5
1137,3,-6,1001,0,0,-3
1138,-2,0,995,0,2,-1
1139,2,-4,993,-2,-2,5
1140,2,-4,1004,0,0,1
1141,-6,6,998,0,0,-1
1142,5,-4,1017,2,2,1
1143,1,-4,1021,2,2,1
1144,6,-4,996,-2,-2,1
1145,3,-7,1001,-2,-4,-1
1146,6,-4,990,0,2,5
1147,-1,-4,1001,-4,-2,-1
1148,-3,-5,994,0,0,1
1149,1,-5,1007,0,4,-1
1150,2,-2,998,0,2,1
1151,4,-2,1008,0,2,-1
1152,0,-5,1003,0,2,-1
1153,-3,0,1006,-2,2,-1
1154,4,4,999,0,0,-3
1155,-3,6,1019,2,2,-1
1156,3,-3,1006,-2,-2,-1
1157,-6,5,1010,-2,-4,1
1158,-1,-9,999,0,0,-1
1159,4,-12,1006,-2,-4,-3
1160,5,-5,1007,-2,-2,1
1161,8,2,996,-2,-2,-1
1162,1,4,1000,-2,-2,3
1163,4,-6,995,-2,-2,3
1164,1,-7,1008,0,0,1
1165,1,1,1010,2,2,-1
1166,-1,0,1008,0,0,7
1167,-3,-10,1011,0,0,-1
1168,0,-6,1011,2,0,1
1169,7,5,1007,-2,-4,1
1170,4,-5,1004,-2,-4,-1
1171,4,-4,996,2,2,3
1172,-1,-3,1020,0,0,1
1173,2,-6,1000,-2,-2,1
1174,6,4,1005,-2,-2,-1
1175,1,-2,1004,2,0,1
1176,15,-6,1004,0,0,3
1177,-3,1,998,4,2,1
1178,4,5,1004,2,0,-1
1179,-10,-6,1009,-2,-2,-1
1180,-1,-4,1000,-2,-4,3
1181,-2,3,1011,0,-2,1
1182,8,-8,989,-2,-2,1
1183,7,1,1004,-2,-2,1
1184,5,-4,996,2,2,-1
1185,0,-11,1006,0,2,-1
1186,2,-7,998,0,0,1
1187,1,-7,1003,-2,-4,1
1188,2,1,1004,-2,-4,-1
1189,0,-5,995,0,2,1
1190,2,-7,1004,-2,-2,1
1191,0,-12,989,2,0,-1
1192,-4,-5,993,-4,-2,-4
1193,0,-7,1014,2,0,0
1194,-3,-4,1014,-4,-2,0
1195,5,-2,1006,0,0,0
1196,-2,-1,1001,-2,-3,0
1197,2,7,995,0,0,-2
1198,1,1,1001,0,0,2
1199,0,-11,1000,-2,-3,0
1200,-10,-5,999,-4,-3,0
1201,-6,2,998,2,0,0
1202,-4,-5,1014,6,0,0
1203,5,-3,991,0,2,-2
1204,-1,0,1005,0,-3,0
1205,7,-3,1014,2,0,0
1206,0,-4,1000,-2,-2,0
1207,7,-7,1007,0,0,-2
1208,1,2,1003,2,2,-2
1209,-1,-1,991,2,0,-4
1210,2,6,1009,2,0,0
1211,-1,1,1005,-4,-3,0
1212,-3,-7,985,0,0,-2
1213,11,-3,1003,0,-2,0
1214,-3,-3,1005,-2,-3,0
1215,2,-7,994,-4,-2,0
1216,-2,-10,1018,-2,-3,2
1217,5,-6,1012,-2,-2,2
1218,-6,-7,997,-2,-2,0
1219,3,-3,1015,0,2,2
1220,8,-1,992,-2,-2,2
1221,-1,-7,1002,0,2,-6
1222,4,-7,1008,0,2,0
1223,2,1,1003,-2,-5,-2
1224,5,1,1019,-2,-2,0
1225,1,3,1006,-2,0,0
1226,2,-6,1018,2,-2,2
1227,-2,-3,1006,0,-2,-2
1228,-3,-6,993,2,2,0
1229,3,-9,1004,0,0,-2
1230,3,-8,996,0,0,-2
1231,10,-7,992,0,0,2
1232,4,-6,998,0,0,-2
1233,-3,-13,1015,0,0,-2
1234,2,1,1008,-2,-3,-2
1235,-1,2,994,0,2,0
1236,-5,4,999,-2,0,-2
1237,-8,-5,994,0,0,2
1238,-2,-3,1007,-2,-2,0
1239,0,-9,995,2,0,0
1240,6,-10,995,0,0,-2
1241,-1,0,1012,0,0,-2
1242,11,3,1006,0,0,-2
1243,9,-6,996,-2,-2,-2
1244,5,1,994,-2,-2,-4
1245,-1,-5,1000,2,0,-4
1246,6,-4,999,2,0,0
1247,-2,-2,990,0,2,0
1248,-2,2,996,4,0,2
1249,2,-5,1002,2,0,0
1250,6,-1,1009,0,-2,-2
1251,3,-2,1012,-2,-2,0
1252,6,2,1008,0,-2,-4
1253,-11,-7,1004,2,2,-4
1254,2,-4,998,0,0,2
1255,-3,4,996,-2,-2,-2
1256,7,1,996,0,0,0
1257,1,-6,1003,0,2,0
1258,2,1,1012,0,0,0
1259,1,-7,994,-2,-3,0
1260,2,-6,1001,-2,-3,-2
1261,10,-5,1001,-2,-2,-2
1262,12,-2,995,-2,-2,2
1263,4,6,1002,2,2,-2
1264,6,-3,994,0,-2,-2
1265,7,-1,996,-2,-2,-2
1266,-5,-1,1009,0,2,-2
1267,-2,3,1018,-2,-2,-2
1268,2,7,993,0,0,-4
1269,0,-6,1001,4,2,0
1270,6,-1,1014,2,2,-2
1271,6,1,1002,2,0,-2
1272,-2,-1,1005,-2,-2,-2
1273,-3,-8,1005,2,0,0
1274,-9,-2,1012,-4,-3,-2
1275,2,-4,994,-2,-2,-2
1276,7,-9,999,0,2,0
1277,5,-4,1018,0,0,-4
1278,4,-7,998,-2,-2,2
1279,4,-11,1007,0,-2,0
1280,13,0,1000,2,2,0
1281,2,-3,1003,0,0,0
1282,9,1,998,-2,-5,0
1283,5,-8,992,0,2,-2
1284,0,-9,1006,0,0,2
1285,1,-2,1009,-2,-5,-2
1286,-7,0,1021,0,0,2
1287,6,-7,994,-2,-2,0
1288,5,-2,1006,-2,0,0
1289,-5,-3,1012,-2,-3,-2
1290,7,1,1000,-2,-3,0
1291,-8,-9,1003,4,1,0
1292,1,3,1007,0,3,0
1293,-2,-1,1000,0,1,-2
1294,-2,2,1005,-4,-1,-2
1295,7,6,1001,0,1,-2
1296,0,-2,1003,4,5,-5
1297,5,-7,995,-2,-3,0
1298,4,-2,998,0,3,2
1299,-1,-5,1007,-2,-3,0
1300,5,-7,984,-4,-3,-2
1301,-6,2,992,0,1,-3
1302,-1,-15,1011,0,3,0
1303,-1,-3,1014,4,1,-3
1304,1,-13,993,0,3,0
1305,-6,-9,1012,0,-1,-2
1306,-13,1,1008,-2,-1,0
1307,8,-4,991,-2,-1,-5
1308,2,-4,989,0,1,0
1309,-1,-5,1003,-2,-3,-2
1310,-1,-2,995,4,3,0
1311,0,-6,992,-2,-1,-2
1312,0,-2,1019,2,1,0
1313,1,-5,1010,-4,-5,-2
1314,2,-11,988,-4,-1,-2
1315,-9,-2,1005,0,1,-2
1316,5,-7,997,0,3,-2
1317,-4,-2,1007,-2,-3,-3
1318,-8,7,1002,2,5,-2
1319,8,-3,994,-4,-1,-3
1320,6,-6,975,-2,-1,-2
1321,2,-2,1002,-2,-1,0
1322,0,-13,998,-2,-3,2
1323,1,-4,1020,-2,-3,0
1324,3,-4,990,2,1,0
1325,-9,1,1006,0,3,-2
1326,-3,-6,1010,0,-1,0
1327,3,-4,1003,0,-3,4
1328,2,4,1002,0,-1,-2
1329,4,2,1004,-2,-1,0
1330,0,-2,1002,0,1,-2
1331,6,-3,1003,0,1,0
1332,8,-12,1007,2,1,0
1333,1,3,1000,0,5,-2
1334,1,-6,1002,0,1,2
1335,-2,1,1021,0,3,-2
1336,2,1,998,2,1,0
1337,6,1,1001,-4,-1,0
1338,-3,-11,1011,-6,-7,-2
1339,-2,0,986,-2,-5,-3
1340,4,-5,997,0,3,2
1341,-8,-5,1009,0,3,-2
1342,-5,2,1007,2,5,-3
1343,2,2,1008,-2,-1,-3
1344,-4,-2,1001,-2,-1,0
1345,0,-8,1002,-2,-1,-2
1346,-1,-7,1003,-2,-1,2
1347,-3,-4,1001,0,1,0
1348,-2,2,989,-2,-1,-2
1349,11,-6,996,0,1,0
1350,3,-3,1010,-2,-5,0
1351,3,-3,1010,0,1,-2
1352,7,-14,1000,0,1,-2
1353,3,-11,999,-2,-3,-3
1354,5,-1,997,-2,-1,-2
1355,-1,-5,1019,-4,-3,-2
1356,-3,-12,1014,-2,-1,-2
1357,-2,4,1006,0,3,-2
1358,4,0,1004,-4,-5,0
1359,5,-2,1013,2,1,2
1360,10,-5,1004,-2,-3,-2
1361,0,1,1009,0,1,-2
1362,-1,3,995,-2,-1,-3
1363,2,6,989,0,1,-2
1364,0,-4,998,-2,-1,-5
1365,4,0,997,0,1,-3
1366,1,-8,994,-2,-1,4
1367,2,-10,1009,0,3,2
1368,-6,1,999,0,3,-5
1369,-1,-5,994,2,3,-3
1370,4,-4,1013,2,1,0
1371,-7,-6,1010,0,1,-2
1372,6,6,999,-2,-1,-2
1373,6,-2,998,2,1,-2
1374,6,2,996,-2,-1,-2
1375,11,-2,993,-2,-3,0
1376,0,-11,994,0,3,0
1377,3,-8,992,0,1,0
1378,2,-12,994,0,-1,-2
1379,9,-2,995,-4,-1,-2
1380,-6,-7,996,-2,-1,-3
1381,-6,-2,1009,0,1,-2
1382,-1,-3,989,0,1,0
1383,2,-2,994,0,1,-2
1384,1,-5,998,2,1,2
1385,6,2,1016,0,1,0
1386,-8,-15,1005,0,1,0
1387,-1,-1,1006,-2,-5,-3
1388,3,-4,988,0,-1,0
1389,1,-4,1012,0,3,0
1390,-1,-3,1001,0,3,2
1391,-7,-2,1006,-2,-5,-2
1392,8,-7,1008,-2,-3,-2
1393,-4,0,1003,-6,-1,0
1394,-3,0,996,-4,-1,-2
1395,0,-1,997,0,1,-2
1396,1,0,999,0,1,2
1397,-7,-3,1000,2,5,-3
1398,1,0,1001,0,1,0
1399,-6,-4,998,-2,-1,-2
1400,7,-4,1005,2,1,0
1401,0,0,1007,-4,-1,0
1402,-8,-10,996,0,1,0
1403,10,-1,999,0,3,0
1404,7,0,1012,0,-1,2
1405,1,-9,1004,2,1,-3
1406,6,3,999,4,1,0
1407,-2,-4,1011,0,-1,0
1408,1,-4,1003,0,5,0
1409,2,-6,1014,-2,-1,-2
1410,2,-2,1006,0,1,0
1411,-1,-8,1024,-4,-3,0
1412,0,2,1004,4,1,-2
1413,1,3,1010,0,3,2
1414,0,-8,1000,-2,-1,-2
1415,-3,0,1006,-2,-5,-2
1416,4,-4,985,-2,-1,0
1417,0,-2,1002,2,1,4
1418,0,3,1014,2,1,0
1419,2,-4,1009,-2,-1,0
1420,1,2,1008,0,1,2
1421,1,-18,1010,-4,-3,-5
1422,0,3,1017,-2,-1,0
1423,-1,3,996,0,1,4
1424,-2,2,1008,-2,-1,-3
1425,3,-9,995,-2,-3,4
1426,9,-11,1005,0,-1,0
1427,10,-7,996,2,1,-2
1428,-1,5,1003,0,1,2
1429,1,-6,1012,-2,-3,-2
1430,5,-6,1009,-2,-3,0
1431,-7,-4,1006,0,1,-2
1432,0,-2,1003,0,3,-2
1433,-8,-5,1005,-4,-1,0
1434,6,-6,994,-2,-1,0
1435,-7,-3,994,-4,-1,-2
1436,-6,-3,1007,-2,-3,0
1437,-5,-3,1004,2,1,-2
1438,4,-9,1026,-2,-1,0
1439,0,-2,995,-2,-1,-5
1440,8,-7,1006,-2,-3,0
1441,5,-3,999,-2,-3,0
1442,3,1,991,0,3,-3
1443,0,4,1002,-2,-1,-3
1444,0,-5,1015,0,-3,-3
1445,0,8,1001,0,1,0
1446,6,-2,1004,2,1,-2
1447,9,-7,1002,0,3,-2
1448,-1,2,1000,-2,-5,0
1449,1,-4,1012,0,-1,2
1450,8,-11,1006,-2,-1,-3
1451,8,-9,1006,0,-1,-2
1452,0,-8,1004,1,3,3
1453,-7,5,1017,-1,-3,-3
1454,-3,1,998,1,-1,-1
1455,7,-3,1014,-1,-1,1
1456,1,4,1001,1,3,1
1457,2,-3,996,1,1,-1
1458,5,-2,1007,-1,-1,1
1459,4,4,1006,1,1,5
1460,-2,-3,990,-1,-3,-1
1461,8,-6,1010,-1,-1,-1
1462,0,7,1003,-3,-1,1
1463,-1,-15,993,-1,-1,1
1464,4,-5,995,-1,1,1
1465,10,-4,996,-3,-1,-1
1466,4,-3,1000,-1,-1,1
1467,12,2,1000,-1,-3,1
1468,1,-10,1004,1,1,-3
1469,-2,3,1010,-3,-3,-3
1470,-3,-10,993,-1,-3,-3
1471,5,-3,992,-1,-1,-1
1472,2,-3,1003,1,1,-1
1473,-7,-5,1005,-1,-1,-5
1474,-4,2,1003,-1,-1,3
1475,-2,-10,985,1,3,-1
1476,1,-9,998,2,3,-1
1477,-9,-6,1001,-1,-1,3
1478,-4,-6,992,1,-1,-3
1479,7,-3,1002,-1,-1,-3
1480,3,-6,991,1,3,1
1481,6,-9,997,-1,-1,-1
1482,0,3,998,1,1,1
1483,-3,-3,1008,1,1,-3
1484,3,1,1001,-1,-3,-5
1485,0,-9,995,-1,-1,1
1486,4,-2,1006,2,3,1
1487,8,-4,996,2,1,-3
1488,-2,6,1005,-1,-3,1
1489,3,-7,1005,4,3,-3
1490,-3,0,1006,-1,-1,1
1491,-3,2,1005,-1,-1,3
1492,0,-6,991,1,1,-3
1493,-6,-2,1004,-1,-1,1
1494,11,-3,998,1,1,-1
1495,4,4,1005,4,1,1
1496,-6,-9,993,-3,-1,3
1497,0,-2,1011,1,1,-1
1498,0,1,1014,-1,-1,1
1499,2,-2,999,1,1,3
1500,5,-8,1001,4,1,-1
1501,9,-9,1004,1,1,3
1502,-6,-6,1012,1,3,1
1503,9,-7,999,-1,-1,-1
1504,1,-3,1003,1,-1,-1
1505,-1,-4,1009,-1,-1,3
1506,4,3,1009,-1,-1,1
1507,0,4,1003,1,1,3
1508,2,0,995,-3,-1,3
1509,-1,-3,993,2,3,1
1510,0,5,1003,2,-1,-1
1511,9,6,1000,-1,-1,3
1512,1,-4,999,1,1,-5
1513,-4,3,992,-3,-1,-3
1514,-3,-4,998,-1,-1,-3
1515,3,-2,986,1,1,-1
1516,0,-5,1003,-1,-3,-1
1517,5,2,1005,1,-1,3
1518,-3,-8,1003,4,0,-2
1519,-1,-8,1012,0,0,2
1520,0,-2,998,2,0,-2
1521,-3,-11,993,-2,-1,-2
1522,0,2,1004,-4,-1,2
1523,5,-3,1014,-4,-5,-2
1524,10,-7,992,0,0,-2
1525,1,-2,995,-2,0,-4
1526,7,2,1007,-2,-1,-2
1527,2,0,998,-2,-1,-2
1528,0,4,1003,0,2,0
1529,2,-3,1010,0,0,2
1530,-3,-1,1003,-2,-3,4
1531,-1,2,1003,-2,-1,-2
1532,2,6,990,-2,-1,0
1533,3,3,1021,0,0,-2
1534,16,-14,989,0,2,0
1535,3,-3,993,-2,-1,0
1536,-1,-5,992,0,0,2
1537,-10,-10,998,-2,-5,0
1538,1,-5,993,0,-1,-6
1539,-1,-1,1008,0,0,0
1540,-6,9,1002,0,-1,2
1541,5,-2,1003,-2,-3,-2
1542,-3,3,1008,4,0,-2
1543,2,2,1008,-2,-1,0
1544,-4,-3,996,-2,-1,-2
1545,-2,0,1003,0,0,-4
1546,-2,0,984,0,0,0
1547,-2,-3,1009,-4,0,0
1548,9,-2,1003,-4,-3,-2
1549,5,-6,1004,-2,-5,0
1550,-1,-6,998,0,0,0
1551,-4,-8,1009,-2,-1,0
1552,-5,-4,1002,2,2,-2
1553,3,-3,1003,-4,-1,0
1554,8,-7,1011,-4,-3,0
1555,4,-9,1006,-2,-3,0
1556,-1,-2,1002,0,0,2
1557,2,0,1011,0,0,-4
1558,1,3,1012,2,0,0
1559,-8,-12,1003,0,2,2
1560,-1,-2,999,0,2,0
1561,-1,0,999,0,0,0
1562,-3,-4,1023,0,-1,-2
1563,-2,-4,990,-2,-5,-2
1564,1,-3,998,-2,-5,0
1565,1,-2,992,0,0,-2
1566,6,-4,1018,0,0,2
1567,3,-4,1011,0,4,-2
1568,-4,-2,1002,2,2,-4
1569,1,-5,1012,0,0,-2
1570,2,-5,991,-2,-1,4
1571,5,-2,1018,0,0,-2
1572,-2,4,1004,-2,-1,-4
1573,9,-9,1008,0,2,0
1574,-4,-9,988,-2,-1,-6
1575,-5,-2,1000,2,0,-2
1576,8,-4,991,6,0,-2
1577,10,-3,1003,-2,-3,-4
1578,-1,6,1006,0,0,0
1579,4,-7,991,-2,-3,0
1580,-1,-8,1001,2,2,0
1581,0,-5,1010,0,0,-2
1582,2,5,1008,-4,-1,-2
1583,1,3,1011,-2,-5,0
1584,5,-8,993,-2,-5,-1
1585,2,-2,1002,0,3,-1
1586,1,-6,1013,0,3,1
1587,2,-7,1004,-2,-3,-5
1588,3,5,999,0,1,2
1589,2,7,1003,-2,-1,-1
1590,9,1,1019,2,1,2
1591,5,-8,1012,-2,-5,-1
1592,4,-8,996,-2,-1,-1
1593,7,7,995,-2,-3,-3
1594,-7,-7,1008,0,5,-1
1595,-1,5,995,0,3,-3
1596,9,5,1003,-2,-5,1
1597,-6,-6,996,0,1,1
1598,-7,3,1005,-2,-3,1
1599,0,-11,1000,0,1,-1
1600,1,-1,1001,-2,-1,1
1601,2,-3,1005,-2,-1,1
1602,-6,-8,996,-4,-3,-1
1603,2,-1,1000,0,1,-3
1604,0,2,1003,4,1,1
1605,-1,-6,999,-2,-3,-1
1606,-3,2,991,-2,-1,-3
1607,6,-2,1004,2,1,-3
1608,-1,-2,999,0,-3,-1
1609,1,-2,1009,0,3,1
1610,4,1,994,-2,-1,-3
1611,-8,-6,999,-2,-1,-3
1612,8,-4,1002,0,1,1
1613,-1,-9,1010,4,3,-3
1614,1,-9,993,0,3,-3
1615,-5,3,999,-2,-1,-1
1616,2,-2,995,-2,-1,1
1617,4,-4,994,0,1,1
1618,-1,7,1012,2,1,-1
1619,-1,1,1004,0,1,1
1620,-6,5,1007,2,-1,2
1621,-1,1,1010,0,1,2
1622,-2,4,1005,0,1,4
1623,-4,-6,999,0,-1,-1
1624,1,0,1004,0,1,1
1625,1,-1,1001,-2,-1,1
1626,1,-3,1009,-2,-1,1
1627,5,-3,999,-2,-3,1
1628,1,3,998,0,-1,1
1629,-5,-4,1007,-6,-1,-3
1630,-3,-6,995,0,1,1
1631,-1,-6,1005,0,1,2
1632,-8,0,1000,0,1,2
1633,2,-3,1004,2,1,-1
1634,1,-3,1010,-4,-7,-1
1635,3,-7,1009,-2,-1,1
1636,6,-7,1004,0,1,1
1637,2,1,1003,0,-1,1
1638,7,1,1012,0,1,1
1639,-3,0,1013,0,3,-3
1640,0,6,1006,0,1,-1
1641,-5,-1,1007,4,1,1
1642,5,-11,1000,0,1,-1
1643,-3,-4,997,-2,-3,-3
1644,-2,1,991,0,3,-3
1645,-3,0,1003,-2,-1,1
1646,-4,-5,1007,-2,-5,1
1647,-2,-1,1006,-2,-3,-1
1648,1,-11,992,-2,-1,-3
1649,2,4,1001,-4,-1,2
1650,1,-3,1005,0,-1,2
1651,-2,-5,996,-2,-1,1
1652,6,-3,988,-2,-3,-3
1653,-6,-4,994,-2,-3,1
1654,1,-4,1003,0,5,1
1655,-2,-3,997,-6,-3,-3
1656,-4,-2,999,-2,-1,-3
1657,1,1,985,0,1,-1
1658,6,-6,1007,0,1,2
1659,4,-4,1003,-4,-1,-1
1660,1,0,1015,2,1,1
1661,6,1,1001,2,1,1
1662,3,-5,1000,0,1,1
1663,0,-11,1003,-2,1,-3
1664,7,-4,1011,-2,-1,-5
1665,7,0,995,2,3,1
1666,5,1,1006,-2,-1,1
1667,5,-3,1013,-2,-1,1
1668,-4,-16,996,-4,-1,1
1669,2,-3,1005,4,5,2
1670,5,0,1013,-2,-1,1
1671,-12,-11,1017,2,3,-1
1672,-6,3,1013,-2,-1,1
1673,-1,-1,1010,0,1,-5
1674,6,-3,1004,-2,-5,1
1675,7,2,988,0,1,-3
1676,9,7,988,-2,-3,-1
1677,8,2,1004,-2,-1,1
1678,1,-6,1001,2,1,6
1679,1,2,999,0,1,1
1680,-7,-11,990,-2,-1,1
1681,2,1,996,-2,-1,1
1682,-4,-5,993,0,1,-1
1683,-4,-4,999,-2,-1,0
1684,2,-5,996,-2,-1,0
1685,5,-11,1013,6,1,0
1686,6,-3,1000,0,1,0
1687,1,0,1001,0,1,-1
1688,-1,4,992,-2,-1,0
1689,4,2,1010,-2,-1,-1
1690,1,-6,1009,-2,-1,-1
1691,-2,-4,1002,2,1,2
1692,2,-9,1002,0,2,-1
1693,6,-4,1003,-2,-3,2
1694,2,4,996,-2,-5,-3
1695,1,1,996,-2,-5,-1
1696,6,0,1000,-2,-1,-3
1697,6,-8,996,-2,-3,-1
1698,-5,3,1002,0,1,0
1699,2,5,1007,0,1,2
1700,-3,-4,1016,0,-1,0
1701,4,0,998,-2,-3,2
1702,1,-6,991,-2,-1,-1
1703,1,3,1004,-2,-1,0
1704,3,2,994,-2,-1,0
1705,4,-5,997,2,1,-1
1706,0,3,1015,-3,-3,2
1707,-5,-8,1010,-2,-3,-3
1708,2,2,997,0,-1,2
1709,2,-11,1021,-2,-1,0
1710,2,-3,1007,-2,-1,0
1711,-3,-9,1002,0,1,0
1712,1,-4,1003,-2,-3,2
1713,6,-3,1003,-2,-1,-1
1714,-7,-2,990,-3,-1,6
1715,3,3,1004,0,1,-1
1716,-4,-3,991,0,-3,0
1717,1,-5,1001,-2,-1,-3
1718,2,0,1003,-2,-1,-3
1719,-2,4,995,0,1,-1
1720,9,2,1003,0,1,-1
1721,-1,-6,1008,0,2,0
1722,-2,0,1007,0,1,0
1723,5,-4,1000,4,1,0
1724,-1,7,1002,0,2,-1
1725,2,4,1008,-2,2,0
1726,6,1,994,0,1,-1
1727,7,9,998,0,1,2
1728,3,0,993,-2,-1,-1
1729,6,-8,1017,-3,-1,0
1730,-2,-2,993,-2,-1,-1
1731,1,0,990,-2,-1,0
1732,2,2,1013,4,2,2
1733,6,-15,991,0,-1,-1
1734,-7,-6,1004,-2,-3,-3
1735,-2,3,997,2,2,0
1736,-1,1,1002,0,1,-3
1737,-1,-2,995,-2,-1,-1
1738,6,-6,999,0,1,0
1739,4,6,991,0,1,2
1740,-2,-6,1007,0,1,2
1741,-2,2,1006,2,2,-1
1742,-2,-5,989,0,1,-1
1743,-7,-9,1013,-2,-1,0
1744,0,3,1002,-2,-1,2
1745,-2,-5,1001,-2,-1,-3
1746,1,-2,989,-2,-1,0
1747,0,0,1005,-2,-1,-1
1748,2,-7,997,0,-3,0
1749,3,-2,1007,0,1,2
1750,-2,-2,1008,0,2,-1
1751,7,8,1003,2,-1,0
1752,1,-3,1000,0,1,0
1753,0,-4,1008,2,2,2
1754,4,-2,1002,2,1,0
1755,5,-11,999,-2,-1,-1
1756,4,-3,985,4,1,-1
1757,-10,-3,999,0,1,-1
1758,1,-4,1020,-3,-1,2
1759,-6,-10,1003,-2,-1,-1
1760,0,-13,990,0,1,-1
1761,0,2,990,-3,-3,-3
1762,4,-13,1006,-2,-1,4
1763,-5,0,1012,-3,-3,0
1764,-2,0,994,-2,-1,-3
1765,2,-2,1005,0,2,0
1766,8,-9,1000,-2,-3,-1
1767,-4,-5,998,-2,1,-1
1768,9,-1,1007,0,1,2
1769,-6,-10,1010,0,1,-1
1770,7,-14,996,-2,-1,-3
1771,-6,-3,1008,-2,-1,-1
1772,4,-2,1007,0,-1,-1
1773,0,0,1012,2,1,0
1774,4,-3,999,-2,-1,-1
1775,0,-1,998,4,1,0
1776,2,1,1015,0,-1,0
1777,-1,2,1013,0,2,-3
1778,1,-6,995,-2,-5,-3
1779,-1,-8,989,-2,-1,0
1780,-1,-11,1003,0,2,-1
1781,-1,-3,993,-2,-3,0
1782,1,3,1012,0,1,0
1783,2,1,993,-2,1,0
1784,3,-11,1003,0,2,0
1785,-1,4,988,0,1,-1
1786,-3,10,1007,-3,-1,-1
1787,-6,0,1004,0,1,0
1788,1,1,996,-2,-1,2
1789,1,-4,995,0,2,-1
1790,-6,-2,1004,-2,-3,-3
1791,6,0,1012,0,-1,0
1792,-1,-7,1002,-3,-3,0
1793,0,-5,1006,-3,-5,-3
1794,4,1,995,0,4,-1
1795,8,-2,1001,-2,1,-1
1796,4,-8,995,-2,-1,0
1797,0,-9,997,2,1,2
1798,6,-4,998,2,-3,0
1799,-2,3,999,0,1,-1
1800,-6,-6,994,4,1,0
1801,-2,1,998,-2,-3,2
1802,1,-5,1005,2,1,-1
1803,2,-4,993,0,4,-3
1804,7,-3,1000,-2,-3,-1
1805,2,-5,1003,-2,-1,-3
1806,-1,-10,1003,0,4,-1
1807,7,-4,1004,-3,-3,0
1808,3,1,1018,0,2,-5
1809,4,-8,1003,2,1,-1
1810,-1,-7,1004,-2,-1,4
1811,2,-5,1015,0,1,2
1812,2,0,987,-2,-3,0
1813,0,-3,990,0,1,-1
1814,3,4,1011,0,1,-1
1815,11,-6,1002,2,4,-1
1816,-3,8,993,-2,-1,2
1817,-2,-8,1001,0,1,0
1818,-2,-8,999,-2,1,0
1819,1,-6,1000,-2,-5,0
1820,1,-4,994,-2,-1,-1
1821,3,-6,996,0,-5,-1
1822,-1,-1,1006,-3,-5,0
1823,-1,7,1008,0,1,0
1824,0,1,1011,0,1,-3
1825,7,2,1002,0,1,0
1826,1,4,1002,-2,-1,-1
1827,1,0,998,2,1,0
1828,-7,-4,1005,0,1,0
1829,-5,-4,998,4,2,-1
1830,-1,3,1014,2,2,-3
1831,-3,-1,1012,0,2,0
1832,0,0,988,2,1,-1
1833,4,-6,1014,-2,-1,-3
1834,-1,-3,1001,0,1,-1
1835,6,-4,1008,2,-3,0
1836,-2,1,1001,0,-1,-1
1837,2,2,999,-2,-1,0
1838,9,3,999,-3,1,-3
1839,5,-1,996,-2,-3,-1
1840,-5,-10,1001,2,-3,2
1841,13,7,1007,0,-5,-1
1842,-8,-1,999,-2,-1,-1
1843,1,5,1008,0,1,0
1844,4,-4,989,2,-1,-1
1845,2,1,1005,0,1,-1
1846,-4,-4,1003,0,1,-1
1847,-3,3,1005,0,1,-1
1848,2,-4,995,0,1,-1
1849,-1,-16,1000,0,1,0
1850,1,-2,1013,0,2,2
1851,4,2,999,0,2,0
1852,4,-2,988,-3,-3,2
1853,0,-6,1013,0,-3,-3
1854,4,1,1010,-1,-1,-1
1855,5,-1,990,-1,-3,0
1856,-2,-2,996,-1,-3,2
1857,2,-3,1018,0,1,-1
1858,-2,0,1003,-1,-3,-3
1859,-4,5,1003,0,-1,0
1860,0,0,990,-1,-1,4
1861,-4,-10,1000,-1,-3,-1
1862,1,-3,995,0,-1,-1
1863,-8,4,1009,0,1,-1
1864,4,-6,999,-1,-1,2
1865,8,-7,1006,2,-1,2
1866,-6,-5,996,0,3,-1
1867,12,3,994,-3,-1,-1
1868,-3,-6,992,0,3,-3
1869,6,-6,994,0,3,-3
1870,-5,-9,995,-1,-3,2
1871,-1,-8,991,0,1,2
1872,-2,-9,1008,0,1,-1
1873,5,-1,1007,-1,-1,-1
1874,1,0,1002,-3,-1,-3
1875,5,-6,995,4,4,-1
1876,5,-3,992,0,1,0
1877,4,3,1006,0,1,0
1878,8,-4,1002,-1,-3,-3
1879,1,0,1013,-3,-1,0
1880,-4,-5,985,-3,-5,0
1881,-2,5,1004,0,3,-1
1882,-4,-4,1006,-3,-1,0
1883,5,-2,996,0,-1,-1
1884,2,-4,996,-1,1,0
1885,-4,-5,999,4,3,0
1886,4,-2,1004,0,3,2
1887,8,-3,997,-3,-1,-1
1888,12,1,993,-1,-3,-1
1889,5,7,1004,-1,-1,0
1890,7,-4,991,0,1,0
1891,-1,0,1006,0,3,-1
1892,8,-2,1003,-1,-1,0
1893,-2,-1,1003,-1,-3,-1
1894,1,-4,998,4,1,-3
1895,0,4,1009,-1,-3,-1
1896,-3,-5,1008,0,1,-5
1897,-2,0,999,-1,-5,-1
1898,-4,-2,1005,-1,-1,-1
1899,-1,-8,1006,-1,-3,-1
1900,0,-5,1004,0,1,0
1901,13,2,1005,0,1,2
1902,-4,-3,1009,0,-1,0
1903,4,-3,1005,-1,-3,2
1904,2,-13,1004,0,1,0
1905,9,1,1005,2,1,0
1906,-3,-5,1016,-1,-1,0
1907,5,-2,1008,-1,-3,-1
1908,-1,-8,1013,0,1,2
1909,9,-9,994,0,-3,0
1910,-4,-9,1018,-1,-1,-1
1911,6,3,1009,0,1,-1
1912,-1,1,989,-1,-3,-1
1913,4,0,1009,0,1,-3
1914,-3,-4,995,0,1,0
1915,-5,-11,1013,0,1,-1
1916,-1,-4,995,-1,-1,-1
1917,9,0,989,-1,-1,0
1918,-4,1,1009,-1,-1,2
1919,5,2,993,0,-1,2
1920,3,-1,987,-1,1,0
1921,4,4,988,0,3,-1
1922,-10,-5,989,-7,-1,0
1923,5,-3,999,2,-3,2
1924,0,-4,1008,-1,-1,-1
1925,-2,0,999,-1,-3,0
1926,-4,-2,1006,0,1,0
1927,7,0,998,-3,-1,0
1928,-3,-3,998,0,4,0
1929,2,-7,983,-3,-3,2
1930,4,-8,992,-1,-1,-1
1931,0,-8,1012,-1,-1,-1
1932,-8,2,992,0,4,0
1933,3,-3,1012,-1,-1,-3
1934,5,1,991,2,3,0
1935,-1,-11,999,0,1,0
1936,5,2,996,0,1,-1
1937,4,-6,1008,0,3,0
1938,2,7,995,0,-1,-1
1939,6,2,1009,-1,-1,2
1940,-5,-5,987,-1,-1,0
1941,-3,4,1003,0,1,-1
1942,5,1,1001,0,3,0
1943,-2,-5,1009,0,-1,0
1944,3,10,1013,-1,-1,-1
1945,2,-7,1009,0,1,-1
1946,2,0,999,-1,-5,2
1947,0,0,998,-1,-1,0
1948,-2,-6,1002,-1,-1,0
1949,0,1,1008,0,1,2
1950,-1,-2,1001,0,-1,2
1951,0,0,1009,0,3,0
1952,8,-8,999,0,-3,2
1953,3,0,1007,0,1,-1
1954,1,2,992,-2,-3,-1
1955,-6,1,1001,0,1,-1
1956,-6,-3,1000,-2,-3,2
1957,10,-2,1003,0,2,-1
1958,4,6,989,-2,-1,0
1959,5,5,1000,0,1,-3
1960,-7,4,993,0,1,-3
1961,8,-2,1010,-2,-3,-1
1962,-3,-3,998,0,1,0
1963,2,4,997,2,2,2
1964,-2,-3,1007,0,-3,0
1965,5,-5,991,-2,-1,-3
1966,-6,-5,998,0,1,0
1967,0,-5,995,2,1,0
1968,-3,-6,1011,-2,-3,0
1969,5,-6,1000,-3,-3,0
1970,2,-2,1004,0,1,2
1971,5,-4,1012,0,1,2
1972,-1,-2,1009,-2,-5,0
1973,6,-7,1003,-2,-1,-1
1974,0,-9,1003,-2,-1,-1
1975,4,-1,991,-2,-1,2
1976,-7,-3,1007,-2,2,4
1977,7,3,987,-2,-3,-1
1978,-3,-2,1010,0,1,0
1979,9,5,1010,0,-1,0
1980,6,-3,997,0,1,0
1981,8,7,1004,2,1,-1
1982,-6,2,1004,0,1,0
1983,-2,3,991,0,-1,0
1984,-4,2,1004,-2,-1,0
1985,-6,-6,1005,2,1,-3
1986,0,4,1008,0,2,0
1987,0,1,1004,-2,1,2
1988,-3,1,1012,-2,2,0
1989,9,-5,999,-2,-1,0
1990,-2,-8,993,2,-1,-1
1991,6,-3,994,0,2,0
1992,5,-4,1000,2,1,0
1993,6,0,1001,-2,-1,2
1994,4,-4,1007,-2,-3,-1
1995,2,3,992,2,1,-3
1996,-1,-5,995,-2,-1,-1
1997,5,-2,1003,-2,-3,0
1998,-1,-6,1000,-2,1,-1
1999,3,-6,1003,0,1,2
2000,-6,-3,1009,2,1,2
2001,-1,5,1006,0,1,0
2002,1,-2,1016,-3,-1,2
2003,-6,-4,999,0,-1,0
2004,-2,0,1006,-2,-2,0
2005,2,-9,1013,-2,-2,-4
2006,2,4,1002,-2,-2,0
2007,0,-7,1005,0,2,2
2008,7,0,1009,0,0,2
2009,0,-3,993,0,2,2
2010,2,4,999,0,0,-2
2011,3,2,1003,2,0,2
2012,-3,-2,988,-2,-3,-2
2013,-1,-2,994,-2,-2,0
2014,4,0,1008,0,2,0
2015,5,2,996,0,-3,0
2016,7,-7,996,0,0,0
2017,-1,-6,995,0,0,-2
2018,-4,-3,1004,-2,-2,0
2019,-1,-11,1005,0,-2,0
2020,-2,-2,1000,0,0,-2
2021,-1,-3,1012,0,0,0
2022,-1,3,1011,2,0,0
2023,6,-3,1000,-2,-3,0
2024,7,-3,1007,-4,-2,-2
2025,-2,-3,1002,-2,4,2
2026,2,-1,997,0,2,2
2027,9,-5,1010,-2,-2,0
2028,-11,-5,1004,-2,-2,-2
2029,5,5,1006,0,2,-2
2030,1,-7,1001,0,-2,0
2031,6,-5,999,2,0,0
2032,-2,-6,1004,0,0,0
2033,6,-11,1009,0,0,-6
2034,1,1,1012,0,2,0
2035,-6,1,996,0,0,-4
2036,6,5,1011,-4,-3,-2
2037,2,-3,1015,0,2,0
2038,7,-4,995,-2,-2,0
2039,-4,-9,1006,-2,-2,-4
2040,1,-3,1001,-2,-3,-2
2041,2,-6,1005,0,2,0
2042,-5,-8,1019,-2,-3,0
2043,-2,2,1007,-2,-2,2
2044,7,1,992,0,-2,0
2045,3,-4,998,0,0,-2
2046,3,-1,1010,0,0,4
2047,9,-4,1006,-2,-3,-2
2048,4,-3,995,-2,-2,0
2049,2,-7,1008,6,2,-2
2050,1,-5,994,-4,-3,-2
2051,-2,4,1007,-2,-2,-2
2052,-3,-3,991,-2,-2,-4
2053,-1,0,1003,-2,-3,0
2054,-4,2,1002,0,-2,-2
2055,-2,-5,1006,4,0,2
2056,-5,-7,992,0,2,2
2057,4,-3,1001,2,2,2
2058,-2,-3,996,-2,-3,0
2059,5,-1,999,0,0,-4
2060,-3,7,1004,-2,-2,0
2061,2,3,990,-2,-2,-2
2062,8,-8,1008,0,2,0
2063,1,-3,992,0,2,2
2064,-5,-4,994,0,0,0
2065,8,-3,1001,0,-2,-4
2066,-4,6,1024,2,0,-4
2067,6,0,999,0,4,-4
2068,3,6,1008,0,0,-2
2069,9,-5,1008,-2,-3,-2
2070,1,0,1000,0,2,0
2071,5,2,1007,2,4,-2
2072,4,-4,1019,0,-2,0
2073,0,-1,1007,-2,-2,2
2074,9,-3,992,2,0,0
2075,6,3,1002,0,0,-2
2076,1,-4,997,0,0,0
2077,-4,-4,995,0,0,0
2078,2,-3,1014,-2,-2,2
2079,6,-5,1000,-2,-2,2
2080,-6,-6,1000,-2,0,-2
2081,1,-8,1002,-2,-2,2
2082,0,0,1003,2,2,0
2083,-1,2,1005,0,0,2
2084,0,-8,1008,-2,-2,0
2085,0,5,991,-2,-2,-2
2086,1,3,1001,2,0,-2
2087,-3,0,1001,0,2,-2
2088,-3,-7,993,2,2,0
2089,-3,-4,1010,0,0,2
2090,0,-1,1018,-2,-2,-2
2091,-1,2,1003,0,0,0
2092,-5,-8,1005,-2,-2,0
2093,4,-8,1002,2,0,-2
2094,1,-5,996,0,0,-2
2095,8,-11,1007,0,0,-2
2096,-5,2,996,-2,-3,-2
2097,6,2,1006,0,4,-3
2098,-4,-5,1008,-4,-3,-2
2099,3,-3,1013,0,-2,-2
2100,3,1,987,0,0,2
2101,-3,4,1003,2,2,2
2102,2,-14,1003,-4,-3,2
2103,-3,6,1016,0,-2,0
2104,0,-1,990,-2,-2,-3
2105,7,-9,997,-4,-3,0
2106,6,-5,994,-4,-2,-2
2107,-7,-10,1008,0,2,0
2108,-2,1,996,-2,-2,-3
2109,-4,-5,995,0,2,0
2110,7,1,1006,-2,-2,-2
2111,6,1,1013,0,0,0
2112,1,-5,1009,-2,-2,-3
2113,7,-2,999,0,0,2
2114,-7,9,1007,-2,-3,6
2115,-3,-10,996,0,2,-2
2116,6,3,1009,2,0,-3
2117,1,2,994,2,2,0
2118,0,-4,979,-2,-2,0
2119,4,-8,1010,0,2,-2
2120,6,-3,988,0,-2,0
2121,4,-5,999,0,0,-3
2122,-1,2,979,-2,-3,-2
2123,1,-4,1004,2,0,-3
2124,-3,0,994,-2,-2,-3
2125,-2,0,1008,-2,-2,-2
2126,-2,-2,1013,0,0,-5
2127,2,1,987,0,0,-2
2128,-6,-2,992,-2,-3,2
2129,-6,-7,985,0,0,0
2130,5,-1,1000,-2,-5,-2
2131,-4,-8,997,0,0,-3
2132,-13,-6,1002,-2,-2,-2
2133,-2,-7,999,-2,-3,-2
2134,-8,-9,996,0,0,-2
2135,-13,-9,997,0,0,-2
2136,5,-3,1008,-4,-3,-3
2137,5,-3,1005,0,0,-2
2138,0,-4,1006,-2,-2,0
2139,9,2,1007,-2,-3,0
2140,1,-12,1000,2,0,2
2141,11,4,1001,-2,2,0
2142,7,0,992,0,4,0
2143,-6,-11,1002,0,-3,-3
2144,10,-2,1001,2,-2,-5
2145,2,-4,999,-2,-2,0
2146,4,-2,1012,0,0,0
2147,-1,4,995,0,2,-2
2148,2,0,999,0,2,-3
2149,0,6,1003,-2,-2,0
2150,-6,-2,1021,-2,-5,0
2151,-7,2,1030,0,0,0
2152,-2,1,988,2,0,0
2153,-2,-9,1002,0,4,0
2154,6,1,1000,-2,-2,4
2155,-1,-2,995,-4,-3,4
2156,1,6,1010,-4,-2,0
2157,0,-6,1011,0,0,0
2158,-6,0,993,-2,0,-2
2159,-2,-3,995,0,0,-3
2160,-3,5,1023,0,0,-2
2161,-6,-1,1007,-2,-2,-2
2162,2,0,999,0,0,-3
2163,-5,5,994,-2,-3,0
2164,7,2,1007,0,0,0
2165,3,-1,1001,2,2,-2
2166,-2,-9,998,2,0,0
2167,1,-15,1010,0,0,-3
2168,3,-3,1009,0,0,4
2169,0,-4,1013,2,-2,-2
2170,6,-4,1003,2,2,-2
2171,2,4,999,2,0,0
2172,0,1,1014,0,0,0
2173,-5,2,988,-4,-2,0
2174,2,-7,999,0,0,0
2175,9,-9,998,-2,-2,-4
2176,-7,-4,993,-2,-6,-4
2177,2,-7,1003,0,2,-2
2178,7,4,993,0,0,2
2179,6,-4,1005,2,0,-2
2180,-1,4,1004,-2,-2,2
2181,3,-9,998,0,0,-2
2182,-7,0,1008,-2,-2,0
2183,-4,-2,995,-2,-8,0
2184,-4,4,1005,-2,0,0
2185,1,1,1010,0,2,-2
2186,-3,8,1005,-2,-2,0
2187,4,-4,1007,-2,-2,-2
2188,7,1,1013,4,0,-2
2189,2,-6,995,0,0,2
2190,0,-2,996,-2,-2,-2
2191,1,2,1004,0,0,0
2192,8,-3,1005,-2,-2,0
2193,-8,-7,1002,0,0,-2
2194,6,-5,1008,-2,-2,-2
2195,9,0,1005,0,0,2
2196,5,-3,993,0,0,-2
2197,-1,-2,1020,0,-2,-2
2198,1,2,1002,0,0,0
2199,8,-7,997,-2,-2,2
2200,2,0,988,0,0,0
2201,1,-4,1002,0,2,-4
2202,2,1,1001,-2,-2,-2
2203,-3,-13,994,0,-2,-2
2204,-1,-4,1001,2,0,0
2205,8,3,1016,2,2,0
2206,-6,5,1017,-4,-2,-2
2207,-11,-6,999,0,-4,2
2208,-1,-6,1006,4,0,0
2209,5,-8,1003,0,0,0
2210,9,-3,1016,0,0,-2
2211,-2,-6,1004,-2,-2,-2
2212,-1,-3,1007,-2,-2,-2
2213,-5,-1,1011,2,0,0
2214,7,-2,1003,-4,-4,2
2215,-2,1,1003,-2,-4,0
2216,-1,-1,989,0,2,0
2217,-1,2,1000,0,0,-4
2218,2,-12,1003,-2,-4,0
2219,3,-5,1001,-2,-2,-2
2220,6,-2,998,0,-2,-2
2221,3,3,1003,-2,-2,0
2222,8,-1,1008,0,0,-2
2223,-2,-8,995,-2,-2,-4
2224,3,1,1008,2,-2,0
2225,-1,-2,1012,0,0,2
2226,-3,1,1004,0,0,-2
2227,-3,-2,997,-2,-4,-2
2228,-3,0,999,-4,-4,-2
2229,7,-8,1006,4,2,0
2230,-4,4,1009,0,-2,-2
2231,2,4,991,4,0,-2
2232,-4,4,1016,0,0,2
2233,-7,-3,1005,-4,-2,0
2234,3,-3,1006,2,3,2
2235,-7,5,989,-2,-3,-2
2236,-7,6,999,-4,-3,-2
2237,-2,-4,995,0,1,-2
2238,-4,-4,1010,4,1,0
2239,1,1,991,2,3,-2
2240,5,-3,1000,-2,-3,0
2241,-4,-2,1004,-4,3,-2
2242,0,-15,1001,-2,1,0
2243,5,-4,995,-2,-3,-2
2244,10,-2,993,-2,-1,-4
2245,-2,3,1007,0,3,-2
2246,2,-3,1000,4,1,0
2247,7,-9,1007,-4,-1,-4
2248,-4,-3,1000,-2,-1,0
2249,-1,-7,995,-2,-1,-2
2250,1,-3,989,0,1,2
2251,-3,-3,1001,-2,-1,0
2252,-3,9,1000,0,1,2
2253,0,-8,1007,-2,-3,-2
2254,2,2,1008,0,1,0
2255,8,-5,1004,0,3,0
2256,2,-2,1002,-2,-3,0
2257,-5,-4,1001,0,1,4
2258,1,1,1004,-2,-3,-2
2259,-7,-4,1006,-2,-3,-4
2260,5,-1,1000,2,1,2
2261,1,2,1020,-2,-3,0
2262,-3,-7,1011,-2,-1,2
2263,5,-1,1004,-2,-3,0
2264,-9,-3,1010,-2,-1,-4
2265,-2,2,1001,2,1,0
2266,0,5,1013,-2,-3,-4
2267,1,-2,1001,4,3,4
2268,2,-2,1002,-2,-1,2
2269,-7,3,1003,0,3,0
2270,4,2,1000,0,1,-2
2271,5,-3,1007,0,3,6
2272,-5,-5,996,-2,-1,0
2273,-3,-7,998,-4,-1,-6
2274,11,0,1007,-2,-1,2
2275,8,3,999,2,1,-4
2276,-1,1,1003,0,1,0
2277,7,-3,1006,0,1,0
2278,7,-10,1011,-2,-1,-2
2279,2,-12,1000,0,1,-2
2280,-12,1,996,-4,-3,-2
2281,0,-8,1003,-2,-1,-2
2282,1,-5,1003,-2,-1,0
2283,-6,-9,993,0,1,-4
2284,1,0,1013,-2,-1,-2
2285,-5,-8,994,0,1,-2
2286,0,-6,1015,0,1,0
2287,-3,-5,999,-2,-1,0
2288,7,-7,999,0,1,-2
2289,1,4,1010,-2,-3,0
2290,-3,-8,999,0,-1,-4
2291,-4,0,1008,-2,-3,-4
2292,1,-5,998,-2,-3,0
2293,-3,-7,1010,0,1,-2
2294,6,-3,1003,0,1,0
2295,-3,-4,1009,-2,-1,-4
2296,-2,-2,995,0,1,-4
2297,-4,-2,1003,0,3,-2
2298,-1,-5,994,0,1,0
2299,-1,-3,1020,-2,-1,-4
2300,-3,-4,1003,0,-1,1
2301,-1,-6,1011,0,3,-1
2302,-10,4,995,-1,-3,1
2303,-1,-4,1000,-1,-3,1
2304,1,-3,994,0,3,5
2305,5,-7,1010,2,3,-1
2306,-3,-5,1007,-3,1,3
2307,2,6,996,0,1,1
2308,0,2,1001,-1,-1,-1
2309,-2,-8,1002,-1,-1,-3
2310,1,9,1008,0,3,-1
2311,1,2,992,0,1,-1
2312,0,-12,1011,0,1,-1
2313,4,-8,1004,-1,-5,-3
2314,1,-9,1006,-1,-1,1
2315,4,-8,1011,0,1,-1
2316,0,-5,1001,-3,-1,3
2317,1,-2,989,2,1,3
2318,1,-12,998,2,1,1
2319,0,1,1002,2,-1,1
2320,-1,-3,997,0,1,-1
2321,3,-7,1006,2,-1,-1
2322,1,-2,1003,-1,-3,1
2323,-3,-3,995,0,1,1
2324,3,0,1006,0,-1,-5
2325,-2,-6,1010,-1,-1,1
2326,3,-6,990,-1,3,5
2327,-2,0,1018,0,1,1
2328,-4,-3,985,-1,-1,3
2329,5,-2,999,-1,-1,3
2330,-1,-6,1001,-1,-1,-1
2331,-3,-9,1002,-5,-1,-1
2332,-1,7,999,0,1,3
2333,-2,-4,995,-1,1,-3
2334,3,-7,1013,0,1,3
2335,3,0,1004,0,1,1
2336,4,4,994,-1,-1,-1
2337,1,1,1005,2,1,3
2338,-5,-7,1001,0,-3,-3
2339,3,-1,997,-1,-3,3
2340,-3,4,1000,0,-1,1
2341,5,-3,1012,-3,-1,1
2342,5,3,1010,-1,-1,-1
2343,-5,-7,1004,2,5,-1
2344,5,1,1012,0,3,-1
2345,-1,-14,983,0,3,-3
2346,1,-1,1000,2,3,-1
2347,-3,-4,1003,0,1,1
2348,6,1,994,-1,-1,-3
2349,0,-3,996,-1,-1,-3
2350,-2,6,998,-1,-3,-3
2351,-1,2,1005,0,5,-5
2352,0,-5,988,0,1,-3
2353,9,-4,987,0,5,-1
2354,-3,10,993,-4,-1,1
2355,2,-5,1002,2,3,-3
2356,2,3,1005,0,1,1
2357,-1,5,1014,-4,-1,-3
2358,0,1,1011,-2,-3,1
2359,-2,-2,1010,0,1,1
2360,5,4,1007,0,3,-1
2361,2,-3,1005,-2,5,1
2362,0,0,998,0,1,-1
2363,4,-5,987,0,1,1
2364,0,-5,1022,-4,-1,1
2365,1,6,987,2,-1,-1
2366,-4,1,1006,-2,-1,1
2367,-2,-1,1002,0,1,-1
2368,-2,-7,989,-2,-3,1
2369,-4,-4,1002,-2,1,1
2370,-11,2,1006,-2,1,-3
2371,8,-7,1010,-2,-1,-1
2372,-3,-8,1005,-2,-3,-1
2373,-3,-7,1000,-2,-1,-1
2374,2,4,1012,-2,-3,-1
2375,1,2,994,-2,-1,3
2376,6,-1,1006,-2,-5,1
2377,-1,-2,1004,0,1,-3
2378,1,-4,992,0,1,3
2379,2,1,1004,-2,-3,-1
2380,4,-3,1000,-2,-1,1
2381,2,-3,1009,-2,-3,-1
2382,4,-1,1001,-2,-1,1
2383,-4,-8,1004,-2,-3,3
2384,1,3,995,-2,-1,-5
2385,-1,-8,1009,0,-3,-1
2386,1,-3,1000,-2,1,-1
2387,-2,-8,1001,-4,-1,-1
2388,2,1,1004,0,3,-3
2389,-7,-16,1000,-2,1,-1
2390,2,-3,1003,0,1,-1
2391,3,1,1003,-2,-1,3
2392,5,-6,999,-2,-1,-3
2393,6,-9,1006,-4,-1,-1
2394,3,-3,992,-2,-3,-3
2395,0,-4,996,-2,-1,-1
2396,-3,5,1010,0,1,3
2397,1,-6,996,-4,-1,1
2398,0,1,1001,-1,-1,-1
2399,1,0,990,5,-1,3
2400,11,-4,1000,1,3,-1
2401,-7,-4,1004,1,3,-1
2402,-3,-4,1007,5,1,3
2403,-2,4,988,-5,-4,5
2404,0,-9,1004,1,1,1
2405,-1,3,1009,-1,-1,-3
2406,4,2,987,-3,-3,-1
2407,4,-4,1001,1,1,-1
2408,-7,-3,991,-1,-3,1
2409,-7,2,1012,1,1,5
2410,-1,-1,999,1,1,-3
2411,0,-3,1005,-1,-4,1
2412,7,-4,1003,1,1,-3
2413,0,3,1004,-1,-1,1
2414,7,-5,993,3,1,1
2415,5,-4,1003,-1,-4,-1
2416,2,-2,1004,1,1,1
2417,0,-3,999,-1,-1,-1
2418,2,-8,998,1,1,1
2419,7,-9,1013,5,3,1
2420,-2,-6,1004,-1,1,1
2421,2,6,994,1,5,3
2422,-1,7,1004,-1,3,1
2423,1,7,1009,-3,-3,5
2424,10,0,1006,-1,-1,-1
2425,-7,-9,1007,-1,-1,3
2426,-7,-5,1008,1,1,1
2427,2,2,994,1,3,3
2428,1,0,1018,-1,-1,1
2429,-8,-9,993,1,-1,-1
2430,4,-2,994,-1,-1,-1
2431,0,-6,995,-5,-1,-3
2432,7,-5,1003,-1,-1,1
2433,5,-2,995,1,1,-1
2434,2,-5,994,3,1,1
2435,7,6,1010,1,1,-1
2436,6,-4,1007,3,1,1
2437,-2,-6,1008,1,3,-1
2438,-1,-2,1004,1,1,1
2439,5,-3,1010,1,1,1
2440,5,-4,1003,1,-1,1
2441,1,-7,1001,3,1,1
2442,12,-2,994,3,-1,1
2443,2,-5,996,1,1,-3
2444,0,-13,996,-1,-1,-3
2445,9,-2,1005,1,5,-1
2446,-1,-4,1002,-1,-3,-1
2447,-2,-2,1009,-1,-1,3
2448,-2,4,990,1,1,-1
2449,5,4,1012,-1,1,1
2450,-4,-3,1010,-1,-1,-5
2451,1,-2,1005,-1,-3,-3
2452,3,8,989,3,3,-1
2453,7,-2,1003,1,3,1
2454,0,-6,1003,1,3,3
2455,-9,3,988,3,1,1
2456,-3,-3,1006,-3,-1,-1
2457,1,7,1007,3,3,-3
2458,-1,6,992,-1,-1,-1
2459,5,-11,1007,-1,-4,-1
2460,2,6,1006,-3,-1,1
2461,2,4,1007,1,1,3
2462,2,1,1007,1,-1,-1
2463,2,0,1014,1,1,1
2464,-6,-3,1001,-2,-2,1
2465,-1,1,996,-4,-4,1
2466,-1,0,1008,-4,-4,1
2467,5,-7,998,-2,-4,-1
2468,-2,0,1009,-2,-2,-3
2469,8,-1,988,0,2,1
2470,4,-3,1005,-4,-4,1
2471,-10,-5,1006,-2,-2,3
2472,-2,1,994,-4,-2,-1
2473,6,1,1005,0,0,-1
2474,4,-4,1011,0,0,-1
2475,-5,-7,1005,0,2,1
2476,4,4,1002,-2,-2,3
2477,1,-1,994,-2,-6,3
2478,6,-2,1001,-2,-2,1
2479,4,3,1004,-2,-2,3
2480,-7,-3,999,0,-2,1
2481,-7,6,1003,-2,-4,-1
2482,-1,-5,1004,0,-2,-1
2483,1,-2,1015,0,0,1
2484,0,5,988,0,0,-1
2485,-2,2,1001,0,-2,1
2486,0,5,1011,-2,-2,1
2487,-1,0,995,2,0,5
2488,1,7,997,0,0,-1
2489,0,-4,999,-2,-2,-1
2490,-6,-7,998,0,-2,1
2491,-5,4,1008,-2,-2,-3
2492,1,-9,988,0,2,-1
2493,-2,-3,1009,-4,-4,-1
2494,1,2,1002,-2,-4,3
2495,-7,-3,993,4,0,5
2496,1,-2,1003,0,0,1
2497,1,0,1000,0,0,3
2498,4,-8,1002,0,2,1
2499,8,-5,1004,-2,-2,-1
2500,-4,4,990,-2,-4,3
2501,2,-7,1009,-2,-2,-1
2502,4,-3,997,2,4,-5
2503,-3,-2,1001,-2,-4,-1
2504,-9,1,1014,-2,-2,-1
2505,-9,-1,1010,-2,-4,-1
2506,9,-6,998,-2,-6,-1
2507,14,-3,1008,4,2,1
2508,-1,-2,995,0,0,3
2509,-6,3,1007,-2,-2,3
2510,-5,1,998,-2,-4,-1
2511,-2,-4,996,0,0,-1
2512,-5,1,994,-2,-2,3
2513,7,-3,1002,-2,-2,1
2514,-4,-3,997,0,0,3
2515,-4,-2,1004,-2,-2,-1
2516,0,-2,997,0,4,1
2517,-6,-8,1000,0,0,1
2518,-2,-2,994,0,0,-3
2519,4,-7,994,-2,-4,1
2520,4,0,998,2,2,-1
2521,2,-2,1002,-2,-2,1
2522,-7,-2,989,2,0,1
2523,-3,3,998,-2,-8,3
2524,-9,-3,1006,0,0,1
2525,4,-7,1010,0,0,3
2526,2,-7,1010,0,0,1
2527,9,-3,1001,0,0,1
2528,5,2,1008,-2,-2,1
2529,1,4,1014,-2,-4,1
2530,-3,0,1008,0,0,1
2531,-4,-12,1009,-4,-4,-1
2532,1,5,996,0,-2,3
2533,1,-5,1013,-2,-2,-1
2534,0,-4,1018,0,-2,-1
2535,7,-3,1000,-2,-4,1
2536,4,0,1002,2,0,3
2537,-3,-2,1006,-2,-2,1
2538,-5,-4,1010,0,0,-1
2539,13,-7,988,0,0,1
2540,9,7,1010,0,0,-1
2541,-6,5,1002,-2,-2,-1
2542,8,-4,1003,-2,-4,5
2543,-3,6,1001,2,2,-1
2544,-2,-8,1010,-2,-2,1
2545,6,-2,1022,-2,-2,3
2546,-2,2,998,-2,-2,-1
2547,2,2,1006,-2,-2,3
2548,8,-3,1011,2,0,3
2549,-7,-5,999,-2,-4,1
2550,1,3,998,0,-2,1
2551,0,-3,999,0,2,1
2552,2,-6,1006,2,2,3
2553,9,3,1016,0,0,-3
2554,5,-8,999,-2,-2,-1
2555,0,-8,1008,-2,-2,1
2556,-3,3,1006,0,2,1
2557,2,2,1013,-2,-2,5
2558,5,-7,990,-2,-4,-1
2559,1,2,1013,-2,-4,-3
2560,-3,-6,1000,-4,-2,-1
2561,-3,-2,1005,0,0,1
2562,-4,1,993,0,0,-1
2563,14,1,991,-2,-2,-1
2564,4,-1,1003,-4,-2,-1
2565,1,-8,1013,-2,-4,1
2566,2,-11,1006,0,0,-1
2567,0,-4,1006,-2,-2,3
2568,2,6,1006,0,-2,1
2569,-1,-6,987,0,0,5
2570,2,2,1006,2,2,-1
2571,7,-2,976,2,0,1
2572,-1,3,990,2,-4,1
2573,-3,3,998,0,0,-3
2574,1,-5,996,-4,-4,1
2575,-4,-3,1004,-2,0,1
2576,1,-7,1004,-4,-2,3
2577,2,-4,1017,-2,-2,1
2578,4,2,1012,-2,-2,3
2579,1,0,1001,0,0,1
2580,-1,2,993,2,0,-3
2581,5,0,1012,0,0,1
2582,2,2,1002,2,2,-1
2583,5,-3,1012,0,2,-3
2584,-2,2,1007,-2,-4,1
2585,6,-2,1005,-2,-2,-1
2586,7,-3,991,-2,-4,3
2587,1,-8,1002,0,2,5
2588,-4,-7,989,2,0,-3
2589,5,-2,1005,-2,-2,-1
2590,1,3,1006,2,-2,-1
2591,1,-6,1011,0,-2,3
2592,-3,-10,998,-2,-2,1
2593,0,-10,1004,2,0,1
2594,-6,-2,1000,0,-2,1
2595,1,-3,992,-2,-6,-1
2596,0,-2,995,-2,-2,1
2597,-1,0,1010,-2,-2,-1
2598,9,-9,1005,0,4,-1
2599,-7,0,995,-2,-4,1
2600,8,-7,997,-2,-4,-1
2601,1,-6,998,0,0,1
2602,7,-4,1004,-2,-4,3
2603,4,-7,1012,0,2,1
2604,0,-2,979,0,-2,-3
2605,-1,3,1008,-6,-2,-1
2606,1,-12,1003,0,0,-5
2607,7,-4,1011,2,0,1
2608,3,-7,996,0,0,1
2609,-2,-5,1000,-2,-2,1
2610,4,3,1007,-2,-2,-1
2611,1,0,998,0,0,-1
2612,-5,-8,999,-2,-2,1
2613,-1,-7,1001,0,0,-1
2614,2,-3,1007,-2,-2,1
2615,-3,-2,993,-2,-2,-3
2616,-1,0,997,-2,-2,-3
2617,4,-11,1009,-2,-4,-1
2618,-2,-4,1014,-2,-2,-1
2619,-10,-5,988,2,0,1
2620,-2,-3,995,0,0,1
2621,0,4,998,0,4,-1
2622,11,12,1007,-4,-2,-1
2623,-6,-3,1003,-2,-2,1
2624,-6,-4,1015,-4,-2,-3
2625,7,3,1016,-2,0,-1
2626,0,5,1004,-1,-1,-1
2627,-2,-1,999,1,1,-1
2628,6,4,1013,-3,-1,1
2629,2,-15,1003,-1,-1,1
2630,8,-4,998,1,1,1
2631,0,1,1006,-1,-7,3
2632,-3,-3,1002,3,1,1
2633,5,-4,1001,3,3,-1
2634,-5,-4,1007,-1,-1,-1
2635,-4,-2,992,-1,-1,1
2636,0,-7,1000,1,1,-1
2637,2,-2,1007,1,1,3
2638,7,3,1007,1,3,-1
2639,5,-4,1000,-3,-1,-1
2640,6,-1,1013,-1,-3,-1
2641,1,-8,1007,-1,-5,1
2642,-8,4,1009,-1,-1,1
2643,14,1,1002,3,1,3
2644,1,-6,1008,-3,-3,1
2645,4,5,1001,1,1,3
2646,-1,-7,996,-1,-1,1
2647,6,-4,987,1,1,1
2648,-5,0,998,1,1,1
2649,-3,-5,991,-1,-3,-1
2650,4,-4,1009,-1,-3,-1
2651,9,-7,1004,-1,-1,3
2652,1,-6,1008,-3,-1,-1
2653,0,-8,1015,-1,-1,3
2654,4,-4,999,1,1,-3
2655,-1,-8,998,3,1,1
2656,-2,-2,1009,-1,-1,-1
2657,6,-4,986,-1,-5,-3
2658,2,-2,1007,-1,-3,3
2659,5,-9,1000,-1,-5,1
2660,-1,-1,996,1,-1,1
2661,8,-5,1014,1,3,1
2662,7,3,996,-1,-1,-1
2663,-3,1,1003,3,3,3
2664,-4,-4,1003,-1,-1,-1
2665,-3,-4,993,-1,-1,-1
2666,-1,-4,1004,-1,1,1
2667,2,-7,996,-3,-3,1
2668,0,-7,996,1,1,-3
2669,13,-4,1003,-3,-3,-1
2670,9,-5,981,1,1,5
2671,-1,-7,1000,1,1,1
2672,-2,-5,990,1,1,1
2673,0,-8,1008,-3,-3,-1
2674,1,-7,996,1,3,-1
2675,0,-8,1006,1,3,3
2676,1,-4,995,-1,-1,-1
2677,6,-2,1002,1,-1,-1
2678,-1,0,1004,-1,-1,3
2679,-1,3,998,1,1,-1
2680,7,4,992,5,3,-3
2681,2,3,1009,1,1,-3
2682,3,-3,1009,-1,-3,1
2683,6,-3,1007,-1,-1,3
2684,-7,-4,1009,-1,-3,-3
2685,5,5,1001,-1,-1,1
2686,1,-3,1012,1,1,1
2687,-5,0,998,-1,-1,-1
2688,3,1,999,3,1,-1
2689,0,-4,1009,1,1,1
2690,6,0,1001,-1,-1,1
2691,4,0,1002,1,-3,1
2692,7,-7,1002,3,3,-5
2693,-7,-11,995,-1,-3,1
2694,1,0,995,-1,-3,-1
2695,-1,7,1004,-1,-5,3
2696,15,3,1011,-3,-1,3
2697,-1,6,1010,-3,-1,1
2698,3,-1,1001,-5,-3,-1
2699,5,1,1002,1,3,1
2700,-6,0,1004,-1,-1,1
2701,2,0,987,1,1,1
2702,1,-2,1004,1,1,-1
2703,5,-2,1000,1,1,1
2704,-1,-11,1006,-1,1,-1
2705,-2,5,996,-3,-3,-1
2706,-1,-12,1004,-1,-1,1
2707,0,-4,1004,1,1,1
2708,3,-3,1006,-1,-3,3
2709,8,-3,1008,1,1,-1
2710,2,-1,989,-1,-3,1
2711,0,1,1001,-1,-1,1
2712,0,-3,989,-1,-1,1
2713,-2,7,1000,-1,-3,-1
2714,-1,2,1007,1,-1,-1
2715,6,-5,999,-1,-1,-1
2716,0,-8,1011,-3,-1,-3
2717,4,-7,991,-1,-1,-1
2718,-2,-3,993,1,3,1
2719,-3,1,1008,1,1,-1
2720,1,-1,996,-5,-1,-1
2721,0,-2,995,1,1,-1
2722,9,-5,1003,1,1,-3
2723,6,-4,1003,-5,-3,1
2724,6,-2,986,-1,-1,-1
2725,9,2,1003,1,1,-1
2726,0,-4,1015,1,1,-5
2727,-4,-4,1001,1,3,1
2728,-4,-4,995,-3,-1,-1
2729,8,4,1002,1,1,-3
2730,-5,2,1005,1,3,3
2731,6,-1,1013,-1,-1,-1
2732,5,-5,1008,1,1,1
2733,2,2,1011,1,-1,3
2734,-9,0,994,-1,-1,3
2735,-2,-9,987,1,3,-1
2736,-2,2,1001,1,1,-1
2737,-7,-4,996,-3,-1,-3
2738,-4,3,986,-1,-3,-1
2739,-6,-5,1007,1,1,1
2740,1,-4,1002,-1,-3,1
2741,-6,6,1001,1,1,3
2742,-2,-3,1002,1,-3,1
2743,-1,4,999,3,-3,-1
2744,-4,3,991,-1,3,-1
2745,4,-7,1007,5,1,3
2746,4,-6,1009,-1,-1,-1
2747,1,-8,995,1,3,1
2748,7,4,998,-3,-1,1
2749,6,1,1012,-1,-5,-1
2750,-2,8,1004,-1,-5,-1
2751,2,-7,1006,1,3,1
2752,2,5,999,-1,-1,1
2753,8,6,996,1,-1,-1
2754,-1,-5,993,3,-1,1
2755,3,-5,1004,1,1,1
2756,0,-2,1005,1,1,5
2757,8,-3,1008,-1,-1,3
2758,-2,-5,990,-1,-1,1
2759,-4,10,994,-1,-3,-1
2760,6,1,993,1,1,-3
2761,2,-1,1006,-1,-1,-1
2762,7,-3,1003,1,1,-1
2763,-10,-9,1001,1,3,3
2764,4,7,1006,-1,-1,1
2765,1,-4,992,-1,-3,-1
2766,8,2,1003,1,3,-1
2767,5,0,1009,1,1,-1
2768,2,1,1002,-1,-1,3
2769,-2,2,1016,7,3,1
2770,0,6,1015,1,3,-1
2771,3,-8,998,-1,-1,3
2772,-8,-3,996,3,3,1
2773,5,-2,992,-3,-1,3
2774,-2,-4,996,-1,-1,-1
2775,7,-3,998,-1,-1,3
2776,8,1,1004,-1,-3,-1
2777,4,-3,1015,1,-1,1
2778,-2,-2,999,3,-1,-1
2779,2,1,999,3,1,1
2780,0,-1,1000,1,1,-1
2781,5,1,1005,3,3,1
2782,4,-8,993,1,3,1
2783,5,-5,993,-1,-3,-1
2784,5,-3,1005,-1,-3,-1
2785,-6,-4,1006,-1,-1,1
2786,10,4,998,-1,-1,1
2787,-4,0,1002,1,3,1
2788,-11,0,1030,-1,-3,1
2789,4,-8,1002,-1,1,1
2790,-6,-6,1004,1,3,-3
2791,1,-5,996,1,-1,-1
2792,1,-4,996,-1,-1,3
2793,-3,3,1002,-3,-1,1
2794,-9,1,1017,-3,-3,1
2795,7,-16,1004,3,1,3
2796,5,-5,1004,1,-1,-1
2797,-5,-13,988,-1,-1,1
2798,1,2,1000,-1,-3,1
2799,-2,1,1005,1,-1,-1
2800,-2,0,1006,-1,-3,1
2801,5,-2,1003,-1,-5,1
2802,7,3,1007,-1,-5,-3
2803,3,-12,998,-5,-1,-1
2804,13,3,988,-1,-1,-1
2805,6,-7,1007,1,1,1
2806,6,-2,1006,-3,-3,3
2807,6,-9,1004,1,1,-1
2808,2,0,1013,1,3,-1
2809,4,-3,999,-3,-1,-3
2810,1,-2,1004,1,-1,1
2811,1,-2,999,3,1,-1
2812,-3,-6,998,1,-1,-1
2813,-6,-4,999,-1,-7,-1
2814,9,-7,1003,1,1,-3
2815,-3,-8,1004,-1,-1,-3
2816,-3,-4,998,3,1,-1
2817,4,2,998,-1,-1,1
2818,0,-3,1001,1,1,-3
2819,2,-6,1015,1,1,-1
2820,7,-9,1004,-1,-3,3
2821,-2,-12,991,1,1,-1
2822,10,4,994,-1,-3,-1
2823,7,1,1001,-1,-1,1
2824,7,-4,983,1,1,-5
2825,4,8,1004,-1,-1,1
2826,-9,-3,1000,1,1,1
2827,2,-7,1012,-1,-3,-3
2828,-8,5,1005,1,1,-3
2829,-3,-2,996,1,1,-3
2830,-1,-3,1014,-1,-1,1
2831,0,0,1007,1,1,1
2832,-10,4,1000,3,1,-1
2833,2,-5,1005,-1,-1,3
2834,9,0,1007,-1,1,3
2835,-2,0,1008,-1,-3,5
2836,-3,4,1014,1,-1,3
2837,4,-13,1003,3,1,-1
2838,-3,-4,1003,1,1,1
2839,0,-8,996,1,-1,7
2840,-5,-2,995,1,1,1
2841,2,-1,1008,1,3,-1
2842,-3,-1,994,-1,-1,-1
2843,4,0,995,-1,-3,3
2844,0,-2,1004,-1,-5,3
2845,9,-6,1008,-1,-3,1
2846,0,0,1002,1,-1,-1
2847,-7,2,1008,-1,-1,1
2848,2,-5,1004,1,3,3
2849,-6,-9,993,1,3,1
2850,-2,-5,1000,-1,-1,-1
2851,-3,-2,1009,3,-1,3
2852,7,-4,998,1,1,1
2853,-1,-5,1002,-1,-1,1
2854,5,1,1007,-3,-1,1
2855,-5,-4,1002,-1,-1,-1
2856,4,-4,1000,3,1,1
2857,10,-3,1000,-1,-1,1
2858,1,-4,988,-1,-1,1
2859,-3,-4,995,-3,-3,3
2860,11,-1,1008,-1,-3,-5
2861,-4,-2,1003,1,-1,-1
2862,7,-8,1011,-1,-3,-1
2863,-2,-3,1007,1,3,3
2864,-1,-6,998,3,1,3
2865,2,-6,994,-1,-3,1
2866,-3,-2,1010,1,-1,-1
2867,9,2,988,5,1,1
2868,1,-3,1002,-1,-1,1
2869,-1,0,995,3,1,1
2870,-4,-5,1008,-1,-1,-1
2871,-2,-3,995,-1,-1,3
2872,-3,0,1010,-1,-1,-3
2873,4,-6,1007,-3,-5,-1
2874,3,-7,1007,1,3,-1
2875,1,-5,1010,1,-5,1
2876,4,-5,994,-1,-3,3
2877,-2,-6,1005,1,-1,-3
2878,-4,5,1006,-1,-7,-1
2879,-2,-7,1002,5,3,1
2880,3,8,1011,-1,-1,-1
2881,7,-5,1004,-3,-5,3
2882,3,-1,999,-1,-1,3
2883,-5,-5,1018,-1,-3,-1
2884,8,-3,1006,-1,-8,-2
2885,14,-4,1005,3,2,-2
2886,6,2,1002,-1,-2,-2
2887,-1,-9,990,1,2,2
2888,-13,1,989,1,4,-2
2889,-2,10,988,1,4,-2
2890,-2,6,1007,-1,0,-6
2891,3,5,988,3,2,2
2892,6,-7,1001,-3,-2,-2
2893,4,-6,1000,-1,-4,2
2894,-4,1,1010,-1,-2,-2
2895,-8,-5,1000,-3,0,2
2896,-2,-2,991,1,2,-2
2897,0,0,994,1,2,-2
2898,1,-11,1007,1,2,-2
2899,3,-5,1002,-1,2,0
2900,18,3,999,-1,-2,-2
2901,0,-4,1001,3,2,0
2902,6,6,1003,1,2,-2
2903,-13,-8,989,-1,0,-2
2904,5,5,1004,-3,0,0
2905,-11,0,1007,3,2,-2
2906,1,6,1013,-7,-6,-6
2907,8,-12,995,1,2,2
2908,8,0,1006,-1,-2,-4
2909,-1,2,1013,-1,-2,2
2910,-3,-7,1000,3,2,0
2911,4,2,984,-1,0,-4
2912,-3,4,995,1,0,2
2913,1,9,1002,-3,0,0
2914,12,-5,999,-1,-4,0
2915,2,1,999,-1,0,-4
2916,1,-8,997,-1,-2,-2
2917,2,-6,1019,1,2,2
2918,-9,-3,1014,3,4,-4
2919,-1,-11,999,1,0,-4
2920,2,-4,990,-1,0,-2
2921,6,0,1007,-1,-4,-2
2922,5,-3,999,-1,-2,0
2923,-3,-11,1001,-1,0,-2
2924,1,-4,991,-1,-2,-4
2925,5,-7,1003,3,2,-2
2926,4,-5,999,1,2,2
2927,9,-4,1000,1,2,0
2928,13,4,995,-1,0,0
2929,9,1,996,-1,0,0
2930,3,-1,1001,1,4,0
2931,-5,-4,994,1,4,-4
2932,6,-8,991,3,4,0
2933,-1,5,998,1,4,0
2934,0,4,995,1,2,2
2935,-7,1,990,-1,-2,0
2936,-3,-2,1011,-3,2,-4
2937,-3,-9,1010,-3,0,0
2938,8,-7,1008,1,-2,0
2939,2,0,1005,1,4,-2
2940,-2,4,989,-1,0,-2
2941,1,-5,1004,-1,0,-4
2942,-4,-5,1002,-1,0,0
2943,-8,-3,1004,1,2,0
2944,2,-6,1002,5,2,-2
2945,-3,-7,1005,-5,0,-2
2946,-9,-7,1011,-1,0,0
2947,7,5,1006,-1,0,2
2948,-8,-2,999,-1,0,-4
2949,14,6,996,1,2,-2
2950,4,2,1017,-1,-2,0
2951,-2,-8,1011,-3,-2,2
2952,-2,-8,1004,3,0,-2
2953,-6,-4,1000,-1,2,0
2954,2,3,999,-1,0,0
2955,5,7,1003,-1,0,0
2956,9,9,995,-1,0,0
2957,9,-3,1001,0,2,0
2958,1,-2,996,-1,-2,-2
2959,-2,-11,1007,-1,0,0
2960,-2,2,1005,0,0,-2
2961,-1,-7,1002,-1,-2,2
2962,4,-6,998,-1,0,-2
2963,-3,7,999,0,2,-2
2964,-2,-2,996,2,2,0
2965,7,2,1000,0,2,2
2966,3,-6,1005,-1,0,0
2967,-7,3,1003,-1,0,-2
2968,1,-9,996,-1,0,0
2969,-3,3,993,-1,2,0
2970,-1,-4,1019,0,2,0
2971,2,-6,994,-1,0,2
2972,4,-3,1012,-1,-2,-2
2973,-1,-6,1004,-1,-2,0
2974,1,-1,1005,-1,2,-2
2975,1,-15,1012,-1,0,0
2976,5,3,997,-1,-4,0
2977,8,-5,1002,0,2,-4
2978,4,-5,998,2,4,2
2979,1,-4,999,0,4,-2
2980,5,2,1002,-1,0,-4
2981,-2,-3,995,0,2,-2
2982,-5,-4,997,0,4,2
2983,-3,-1,1005,-1,-2,-6
2984,4,-9,998,-1,-6,-2
2985,0,-5,1013,0,4,2
2986,6,-1,998,0,2,-2
2987,11,-5,1011,0,4,-2
2988,1,-5,996,-1,0,0
2989,1,5,1005,4,2,-2
2990,2,6,1009,0,4,-4
2991,6,2,994,-1,0,2
2992,-1,7,1004,2,4,0
2993,-4,9,1008,4,2,-2
2994,-4,-2,999,0,2,0
2995,8,-8,1001,-1,0,2
2996,-1,-4,1006,-1,0,-4
2997,-9,-13,994,-1,0,0
2998,3,-5,999,-1,0,-2
2999,5,-5,999,-1,0,0
3000,2,0,1002,0,2,-2
3001,-8,-5,993,0,4,-2
3002,1,-2,1004,-5,0,0
3003,0,-3,1007,0,-2,-2
3004,-2,3,1001,0,2,-6
3005,4,-7,1009,2,2,0
3006,3,-4,1005,-1,-2,-2
3007,-2,0,996,-1,0,0
3008,1,-5,1012,-1,0,0
3009,4,-9,1002,0,0,-2
3010,8,3,1010,-1,-4,-2
3011,7,1,1011,-1,-2,4
3012,-7,-6,1004,-1,-4,-2
3013,9,0,1016,0,2,-4
3014,1,-6,1004,-2,-3,1
3015,0,0,1007,-2,-1,3
3016,-6,-1,996,2,3,1
3017,1,2,1010,0,3,-3
3018,-6,-3,1007,-2,-1,5
3019,-3,2,1008,-4,-1,-1
3020,3,7,995,0,3,1
3021,-4,-7,1001,-2,-1,1
3022,-5,-12,1002,0,1,5
3023,0,0,1009,0,1,-1
3024,4,-4,1012,-2,-1,1
3025,-7,0,1011,0,1,3
3026,4,-5,1017,-2,-3,1
3027,3,-6,1013,-2,-1,1
3028,-6,-6,1006,-2,-3,3
3029,7,-4,1001,-2,-1,-1
3030,-4,1,999,0,1,3
3031,0,-8,1011,-2,-1,1
3032,-1,3,1008,2,1,1
3033,0,1,1009,0,1,1
3034,0,2,1006,0,-3,-1
3035,5,-6,1002,0,5,-1
3036,-2,-5,1005,-2,-3,-3
3037,-2,-5,987,0,1,-1
3038,1,-2,1011,-2,-1,-1
3039,6,-6,1005,-2,-1,1
3040,-3,-4,1008,0,-1,-3
3041,0,1,1005,0,3,-1
3042,10,2,1009,0,-3,-1
3043,-1,-14,1008,-2,-1,-5
3044,7,-6,995,-2,-1,-1
3045,3,5,1006,0,-3,-1
3046,3,-5,994,0,1,-1
3047,-4,-3,1012,0,-3,-3
3048,-4,2,1007,2,1,-1
3049,-1,-4,1006,-2,-3,-1
3050,3,-7,989,-2,-1,-3
3051,6,6,1005,0,3,-3
3052,-2,-14,998,0,1,-1
3053,-2,-2,1009,-6,-5,-1
3054,0,-2,1012,0,1,3
3055,0,-3,1001,0,1,-1
3056,-2,-12,1007,0,1,-1
3057,-3,0,1002,0,3,-3
3058,6,2,1003,-2,-1,1
3059,-2,-5,999,-4,-3,3
3060,9,-3,1006,0,1,1
3061,-1,3,1004,0,1,-1
3062,6,-6,1000,0,1,-1
3063,6,-6,1007,0,1,1
3064,5,-2,982,0,1,-1
3065,6,-9,999,4,1,-1
3066,4,-4,1014,2,-3,1
3067,1,1,994,-2,-3,1
3068,-1,-2,1003,0,1,1
3069,0,-2,1013,0,1,1
3070,5,1,1000,-2,-3,-1
3071,2,-2,1016,-2,-1,-1
3072,0,-3,998,-2,-1,3
3073,0,-6,1015,-2,-3,-1
3074,1,-2,1002,4,3,-1
3075,0,0,1001,-4,-3,-1
3076,-7,2,995,2,-1,1
3077,-1,1,992,-2,-3,1
3078,1,-3,990,0,-3,1
3079,-4,-1,990,-2,-1,3
3080,6,1,1008,-2,-1,3
3081,10,-4,994,0,1,-3
3082,-9,-11,1004,-2,-1,1
3083,5,-5,973,2,3,1
3084,0,-1,1007,-2,-3,3
3085,5,5,1009,0,1,1
3086,2,1,983,-2,-1,3
