sequence,AccelerometerX,AccelerometerY,AccelerometerZ,GyroscopeX,GyroscopeY,GyroscopeZ
0,-13,-11,1005,-1,0,1
1,-16,1,1016,1,2,3
2,-2,-2,988,1,0,-1
3,-13,6,1027,1,2,-1
4,-3,-10,983,1,0,1
5,-3,-11,1008,-1,-2,-3
6,-21,8,1008,1,0,1
7,4,-9,994,-1,-4,3
8,-6,3,988,3,4,-1
9,-6,-8,1000,-1,-2,1
10,-8,-1,998,-1,-4,-1
11,-6,1,998,3,2,1
12,-6,-14,1009,-3,-4,-3
13,-5,-10,1012,1,0,-5
14,-1,-4,996,-1,0,-1
15,-10,-3,1002,-1,-4,-3
16,-4,1,1005,-1,0,-3
17,5,11,995,-1,0,-1
18,-1,1,1006,-1,0,3
19,-3,-13,1002,-1,0,-1
20,-5,-14,1018,-3,-2,-3
21,-7,-6,994,-1,0,-3
22,-3,2,992,1,2,5
23,-4,0,1009,-1,-4,3
24,-3,10,1008,1,4,5
25,-2,1,995,1,4,-3
26,-3,-4,1016,-1,0,-3
27,-3,-3,1007,1,2,-5
28,-9,-11,991,1,6,3
29,-1,-1,1009,-1,2,3
30,-6,7,1008,-1,0,-3
31,-1,7,993,-3,0,-5
32,3,6,1006,-1,-2,-3
33,-3,-7,1004,3,-2,-1
34,-6,-14,1010,-3,0,-3
35,0,-11,992,1,2,-3
36,-3,-7,1002,-1,-2,-3
37,-3,-5,998,1,2,-1
38,-1,-4,996,-1,0,3
39,2,-4,1011,1,2,-1
40,-11,-9,1012,-1,0,-7
41,-7,-11,1010,-1,-4,-5
42,-6,-7,1002,-1,-2,-5
43,1,0,1004,-1,0,1
44,2,0,1021,-1,0,-1
45,6,2,1022,-1,-2,-1
46,2,-2,1004,-1,0,3
47,-1,-6,1008,-5,-2,-1
48,-16,-11,1002,3,2,1
49,2,-7,1004,3,2,-1
50,2,-2,1000,-1,-4,-3
51,-3,2,1000,-1,0,-1
52,4,13,1007,1,2,-1
53,2,-2,997,-1,-2,-1
54,-3,-4,992,-1,0,-1
55,-9,-6,998,-1,0,1
56,-9,-11,1006,-1,-2,-1
57,0,-3,1007,1,2,-1
58,-3,-7,1004,1,2,-3
59,-6,4,995,-1,0,1
60,-11,5,999,-1,0,-1
61,-8,-3,1011,1,0,-3
62,-4,10,1000,-1,0,-1
63,-9,-8,1005,1,0,-1
64,-7,3,1004,1,2,-3
65,1,0,1009,-1,-4,-1
66,-9,6,1012,1,2,-1
67,5,1,1008,-1,2,-5
68,-3,-5,1005,-1,0,1
69,-2,-2,1015,-1,-2,-5
70,-7,-8,994,-1,0,-5
71,-1,-18,1011,-1,-4,3
72,0,-2,1006,-1,0,-3
73,-3,-2,1001,-1,-2,-1
74,-1,-1,1009,1,-2,-1
75,-6,-3,1003,-1,-6,-7
76,-9,-3,1003,-1,0,-3
77,-3,-5,1006,1,0,1
78,-7,-7,1000,-3,0,-3
79,7,-7,1011,1,4,3
80,6,-1,1005,-1,-6,-1
81,7,12,998,-1,-2,1
82,2,4,1000,-1,0,1
83,-14,6,1013,-1,-2,-3
84,-12,-6,1000,-1,0,-5
85,-2,-5,1004,-1,0,-3
86,0,-2,988,-3,-4,-3
87,-11,4,998,1,2,-1
88,-8,-4,1006,-1,0,-1
89,2,2,1009,3,4,-1
90,2,2,993,1,2,-3
91,-19,-7,991,1,2,-1
92,69,116,1003,36,-27,-155
93,-25,69,984,-13,-2,-1075
94,-89,79,994,1,-8,-1518
95,-344,159,988,-1,-20,-2311
96,-477,-96,886,-11,-10,-2864
97,-412,114,957,-28,-6,-1796
98,-87,-88,1048,-81,60,-1690
99,-69,14,884,-30,39,-1973
100,-55,-84,1016,7,-2,-1532
101,-161,-72,756,5,-8,-778
102,-281,-15,1075,5,23,-71
103,-53,-4,479,-20,39,394
104,-50,66,1442,1,43,607
105,164,-151,410,7,25,1415
106,110,-144,801,-1,37,1663
107,48,-57,1287,34,-12,1404
108,-181,-12,793,30,-4,1128
109,-49,-202,623,32,-16,888
110,-16,-282,784,21,2,640
111,122,-133,1669,17,4,521
112,44,-101,600,-1,27,523
113,-211,-29,825,19,-27,417
114,96,-109,988,19,6,316
115,52,-225,851,-7,8,281
116,-83,-36,1100,-11,-6,109
117,-7,19,733,-1,0,-239
118,-163,84,1361,-7,14,-468
119,274,-97,1265,-26,14,-561
120,44,46,924,-5,8,-368
121,288,-108,854,9,-6,-384
122,214,-219,1529,-1,14,-227
123,48,-43,538,-3,31,42
124,136,-196,1242,1,39,251
125,172,-27,641,-3,41,685
126,-37,51,571,7,37,798
127,83,347,1140,7,39,722
128,422,107,585,9,72,614
129,-263,283,1000,-7,23,464
130,314,74,1456,9,14,281
131,123,10,1136,25,-8,181
132,327,177,663,-9,35,-225
133,115,-272,731,1,29,-177
134,251,-54,740,1,14,9
135,220,-55,558,1,10,156
136,315,1,1418,1,4,157
137,132,2,1023,-7,-4,245
138,235,-16,1037,-1,-2,310
139,77,-21,984,1,6,400
140,54,-75,1017,-1,12,427
141,-8,3,999,-7,10,38
142,150,63,996,-7,10,50
143,284,34,1012,1,10,429
144,181,-31,1030,-1,0,173
145,95,-21,1025,3,6,83
146,82,-26,1315,1,-12,173
147,79,-54,1328,3,-8,302
148,288,42,955,1,-16,529
149,-227,-100,1256,-3,-33,587
150,144,65,961,11,-39,427
151,-98,-34,452,-9,-8,-79
152,128,-38,1040,-13,-6,-561
153,73,39,792,-9,-14,-534
154,57,110,850,-3,-45,-344
155,373,18,228,3,-78,-282
156,95,35,1042,-3,-39,7
157,234,-47,868,-1,-31,105
158,195,-83,1052,9,-27,423
159,205,46,983,-1,-31,739
160,131,-51,930,-1,-24,695
161,162,-12,1019,-3,-18,624
162,42,-82,1225,-3,4,437
163,154,-30,903,15,-18,265
164,100,-57,845,15,10,-7
165,11,-108,809,3,21,-458
166,-24,158,1184,-22,-8,-511
167,77,0,965,13,17,-309
168,249,-139,1286,11,2,-259
169,91,243,1240,-11,-39,-184
170,223,-15,846,-34,-24,-411
171,78,-283,1505,-18,-14,-305
172,216,-122,1690,-11,-10,-11
173,38,197,98,11,-74,191
174,21,-197,1534,1,-65,157
175,-32,-11,1486,-13,-45,9
176,84,101,958,46,-63,-106
177,131,83,865,-16,-6,-3
178,-45,-45,854,-5,-6,-30
179,72,-7,863,3,-8,-44
180,111,-50,1148,11,4,-239
181,-2,2,1056,7,103,-225
182,32,-31,806,28,182,-108
183,-384,-55,611,3,45,156
184,-43,100,1072,-9,27,-26
185,32,19,964,23,-4,-130
186,-229,-90,590,-59,14,-214
187,-136,-97,1081,15,27,-212
188,-254,36,1256,-15,8,-61
189,-139,-97,1146,-3,8,308
190,-327,-186,1261,28,-88,304
191,-53,-154,1157,-26,-22,306
192,19,-131,1269,-16,-119,343
193,-217,-92,1197,-38,-143,122
194,-49,23,287,-24,-65,95
195,17,-13,151,26,-110,124
196,-98,317,415,-48,-72,-32
197,-142,41,1266,-22,-70,-208
198,-207,-23,958,11,-72,-434
199,-366,-19,1320,-22,-39,-403
200,-273,-90,949,13,-43,-178
201,-333,-6,1002,-3,-33,281
202,-334,-3,965,3,-33,691
203,-342,84,1005,1,-24,601
204,-263,184,1016,-1,-10,300
205,-8,-19,996,13,-10,5
206,-504,19,1000,36,-26,-9
207,-411,-4,928,-3,15,120
208,-228,15,1112,-9,39,177
209,-264,7,1087,13,39,216
210,-293,-42,938,7,25,228
211,-244,52,802,-3,45,236
212,-350,-57,976,-18,66,226
213,-584,-44,1055,-7,88,187
214,-404,206,632,-42,76,152
215,-595,-46,293,50,74,56
216,94,138,1033,15,105,111
217,-295,28,955,36,55,1
218,-10,-178,350,17,60,181
219,-291,-56,1983,-9,113,212
220,65,33,1256,23,33,238
221,43,42,1202,-5,23,540
222,-143,-39,1026,5,-22,884
223,-255,38,1449,1,-6,1042
224,192,-76,1571,36,-4,1275
225,-131,195,1057,9,-45,1050
226,-39,77,894,1,-41,736
227,60,172,1006,-42,-113,189
228,-296,137,944,-26,-236,130
229,11,9,1098,3,-8,-110
230,-134,-73,464,-26,4,-200
231,-127,-156,841,15,39,-145
232,110,-186,1360,19,15,-184
233,191,-91,1406,11,-12,181
234,262,-120,777,-1,41,845
235,15,32,621,1,58,558
236,-169,27,658,-30,49,513
237,-55,-1,616,23,55,300
238,131,-28,1225,1,10,193
239,251,-102,1495,7,6,142
240,-182,-5,1009,19,49,-22
241,278,-40,1399,17,6,-77
242,-47,-58,1024,-20,-20,202
243,-33,-61,1054,11,-10,349
244,64,7,843,3,-16,189
245,99,8,818,1,53,357
246,304,-91,1103,-1,15,120
247,49,59,1164,26,-10,-24
248,3,165,853,1,2,183
249,189,13,1044,15,-29,126
250,70,-89,1178,-9,35,277
251,309,-119,792,23,19,296
252,247,-51,1037,-16,27,359
253,231,-67,1013,19,21,411
254,260,-38,907,-3,19,531
255,309,-40,1050,-20,25,478
256,269,17,1008,9,10,366
257,275,-60,990,-11,12,267
258,79,-72,1012,-9,6,109
259,-6,-12,1001,-9,6,7
260,567,85,980,-9,6,-255
261,408,-3,1010,-5,-16,-866
262,176,-55,909,-7,-20,-491
263,419,-143,1085,15,-26,-315
264,371,-108,1021,9,-33,-270
265,252,-8,970,-1,-26,-249
266,310,-143,923,-9,-22,-208
267,170,-58,748,-22,-33,-198
268,173,-236,1042,-16,23,-118
269,62,161,890,-18,4,-339
270,-113,169,904,-46,10,-530
271,31,9,1037,-7,-29,-550
272,213,-45,1189,-1,-16,-719
273,92,-64,1009,-11,0,-907
274,472,-160,1022,-5,15,-1052
275,122,73,1220,13,6,-1161
276,21,102,768,-16,-63,-1208
277,363,167,802,-3,-57,-1348
278,125,-77,1015,-5,-16,-1561
279,-79,53,2000,-9,-84,-1552
280,33,37,946,11,-76,-1534
281,83,-46,659,-26,-65,-1766
282,15,-31,1150,-17,-6,-1555
283,-392,89,1662,9,-4,-1184
284,-8,-120,1124,-5,-6,-1134
285,111,-178,1039,23,53,-1227
286,-161,-163,804,17,236,-919
287,-35,-9,1197,1,201,-749
288,-169,21,1035,-17,-8,-790
289,196,46,859,-15,12,-899
290,-258,79,1107,-42,12,-969
291,-29,8,939,5,-20,-479
292,-24,54,798,-24,25,-694
293,-90,26,1066,11,-26,-665
294,-79,73,1164,-1,-16,-514
295,-182,-76,260,11,-82,-438
296,-76,-256,396,-7,-106,-94
297,149,-93,1134,-36,-131,163
298,-232,-88,959,-15,-135,234
299,-21,52,1263,-1,-104,407
300,-468,162,1036,-7,-84,193
301,-215,94,1123,5,-96,36
302,-265,67,961,38,-86,-182
303,-368,84,1029,-11,-98,-555
304,-432,-7,910,-36,-24,-469
305,-391,-131,1023,-42,-27,-362
306,-408,-170,946,-5,-37,-16
307,-269,-102,1027,-1,-12,218
308,-364,24,959,-7,-6,187
309,-234,208,1009,-5,-2,150
310,-21,-6,997,1,-6,5
311,-642,49,966,3,0,339
312,-384,-42,1077,11,15,657
313,-366,-34,976,7,15,370
314,-376,-60,1057,-30,47,140
315,-385,-72,956,1,56,306
316,-360,174,1137,75,43,368
317,-269,37,801,-48,101,361
318,-195,-126,1021,-50,111,191
319,-71,-256,1841,13,90,105
320,-669,-16,1501,17,96,132
321,-334,21,1343,-5,82,165
322,-163,37,885,17,98,288
323,-196,-89,1263,1,66,611
324,67,-166,91,-1,121,1290
325,153,-296,1640,1,35,1282
326,167,135,1053,-24,53,1493
327,42,119,619,34,-43,1443
328,-166,229,546,7,14,1345
329,-10,304,769,44,-33,1398
330,-221,75,1364,9,-27,802
331,70,-152,1340,9,-26,329
332,19,-45,1146,-32,-205,255
333,-148,-249,991,-11,-188,691
334,18,-125,909,-9,-18,579
335,49,67,936,9,49,648
336,106,18,349,-3,27,392
337,20,77,671,-7,4,421
338,-218,24,1036,1,35,786
339,-120,-106,1174,17,70,308
340,164,20,1313,-18,72,-317
341,24,-86,640,9,55,-634
342,-149,-192,1420,7,31,-198
343,-61,24,1284,13,47,620
344,619,-159,1749,3,37,1191
345,-67,61,1227,-1,4,1454
346,37,79,1131,5,-10,1255
347,217,172,1104,-1,-4,714
348,304,-38,955,1,23,523
349,100,213,1028,11,6,243
350,4,214,808,15,17,265
351,166,-25,1233,23,-37,-11
352,325,184,910,-5,60,-612
353,36,91,811,-7,51,-606
354,310,-291,1255,-11,45,-563
355,359,-221,1172,-7,43,-333
356,304,-125,201,7,56,11
357,401,-15,677,1,33,474
358,320,-9,1045,1,15,583
359,407,62,974,-24,19,552
360,101,78,1099,25,-24,236
361,220,66,1038,7,-8,97
362,203,54,1126,-1,-2,-157
363,209,-92,1015,-3,2,-235
364,-1,-5,995,-1,2,-55
365,183,48,995,3,6,-12
366,314,-141,971,-7,-8,-774
367,324,1,1286,-3,-14,-999
368,231,39,1201,-7,-2,-641
369,370,-199,822,-7,6,-395
370,254,-81,986,-1,-6,-229
371,-278,-106,1210,7,-31,-75
372,91,-87,1176,15,-69,142
373,27,51,936,7,-35,314
374,106,-44,1028,-5,-35,-57
375,344,52,722,-1,-35,-313
376,195,39,864,-15,-43,-384
377,160,77,1163,-42,-41,-378
378,340,225,366,-9,23,-370
379,409,160,580,-16,2,-471
380,89,-168,915,-30,-12,-462
381,254,-149,1046,15,-14,-200
382,136,2,326,-11,31,-518
383,4,-23,877,-5,8,-628
384,212,26,1072,7,-14,-565
385,164,-22,1141,-9,-6,-565
386,217,209,-15,-11,-51,-487
387,292,-212,1645,-20,-27,-456
388,-44,195,626,-3,-49,-278
389,476,-67,1134,40,-55,-61
390,23,169,1254,3,-55,-243
391,311,37,791,44,-55,-134
392,-228,167,768,-28,-2,31
393,-180,-104,1330,-16,-14,64
394,14,-67,631,-5,-31,-362
395,-154,64,977,15,31,-706
396,-114,-254,826,9,189,-880
397,-134,-140,1085,29,176,-843
398,10,-113,1213,-14,10,-1096
399,433,131,1267,3,-14,-903
400,-342,335,903,-50,60,-911
401,-232,29,1264,-3,2,-417
402,16,107,1228,-42,51,-637
403,-97,-112,1318,9,-14,-626
404,-14,-225,1336,-18,-33,-571
405,16,76,1028,-3,-61,-678
406,-132,-13,1206,-1,-72,-553
407,-262,-50,1493,-28,-129,-266
408,-366,-8,775,-11,-94,-270
409,-21,-5,947,9,-86,247
410,-91,-51,887,3,-104,642
411,-385,82,1030,11,-78,685
412,-363,68,571,29,-68,570
413,-401,40,1044,11,-65,396
414,-432,118,1283,62,-72,138
415,-332,-25,956,9,-47,-126
416,-316,5,1007,-34,-18,-251
417,-407,-3,994,-18,-14,-159
418,-8,0,983,-9,-2,-63
419,-43,-2,993,-5,0,-1
420,-607,15,977,-1,12,368
421,-159,-134,1195,5,35,677
422,-428,-111,965,1,39,433
423,-308,-219,694,-20,53,271
424,-296,-84,1023,7,53,154
425,-389,-66,1086,-40,74,124
426,-270,-193,1215,40,55,290
427,-452,-148,846,-44,86,499
428,-69,-61,894,5,82,585
429,-168,-136,1156,40,140,710
430,-77,7,1214,42,105,978
431,-103,-3,1152,19,109,1195
432,-231,-5,946,-9,70,1009
433,147,226,981,25,74,1048
434,-300,196,857,-9,-2,950
435,-103,129,916,36,-22,691
436,281,-62,724,-3,-20,870
437,-166,12,895,17,-53,1300
438,-271,-97,961,-5,-70,1968
439,-9,-12,952,-22,-143,1450
440,-325,38,843,-32,-264,1509
441,-48,158,678,-11,-6,1216
442,-81,136,1103,-3,-4,991
443,69,205,480,7,25,759
444,541,-10,1219,11,4,206
445,3,211,1215,9,21,349
446,158,-297,1265,5,74,3
447,150,-80,1027,-71,86,-237
448,220,-285,999,-20,74,-202
449,200,-243,1077,1,23,193
450,-60,-152,575,15,41,755
451,64,64,871,11,-4,894
452,272,192,1084,-9,-29,1054
453,60,135,1024,-1,-24,831
454,-1,76,802,3,66,597
455,300,-106,843,7,29,263
456,62,101,768,15,2,19
457,287,-119,1014,29,-35,267
458,70,-9,1056,17,55,411
459,-252,-96,768,7,29,308
460,38,-37,1082,-40,68,363
461,109,-169,1248,-18,57,288
462,193,88,1188,5,62,364
463,74,-162,802,-42,43,618
464,473,-61,1640,25,-4,556
465,-89,-52,535,-5,25,529
466,392,75,972,-5,29,298
467,286,84,303,30,19,363
468,309,-31,674,15,15,228
469,186,-7,819,-3,15,79
470,314,-34,621,-5,10,93
471,249,-21,1168,1,2,404
472,276,-25,1052,3,17,679
473,215,1,989,7,6,661
474,8,0,998,1,4,304
475,6,-9,1007,1,6,3
476,385,-76,1005,1,6,-253
477,297,-21,1004,-7,6,-1268
478,228,-16,1131,-9,-8,-1368
479,386,-94,1049,1,-16,-1038
480,80,-34,1069,-1,-29,-569
481,308,-147,1090,-14,-14,-479
482,460,272,299,-42,-33,-389
483,-1,-190,1723,9,-39,1
484,60,-103,1448,25,-45,-278
485,69,-167,1231,-14,-33,-411
486,226,2,1595,17,-6,-520
487,285,338,567,-1,-49,-862
488,47,164,745,-14,-82,-876
489,349,33,1046,15,-65,-938
490,277,-79,907,-1,-49,-981
491,58,-111,901,-40,-51,-417
492,-23,-8,678,-26,25,-128
493,152,66,898,-53,0,-268
494,-129,163,760,-5,-22,-184
495,-87,-40,966,-7,25,-604
496,300,-81,982,-20,23,-956
497,419,107,1441,-1,-10,-1059
498,-49,12,774,-3,-72,-950
499,463,123,1939,-9,-63,-886
500,13,-157,345,-3,-51,-1034
501,504,153,1278,32,-82,-575
502,135,95,1173,-22,-65,-606
503,196,-103,932,21,-26,-188
504,-36,153,420,9,8,236
505,-129,-6,923,9,12,282
506,-122,-73,1155,38,121,-325
507,-137,-68,1004,31,232,-663
508,1,-65,999,-14,74,-661
509,-144,-38,1159,-14,25,-897
510,132,-42,1150,3,-10,-757
511,-263,185,873,-9,4,-626
512,-248,-12,1077,1,-20,-327
513,153,-130,1187,11,-6,-20
514,-489,-83,1258,-20,-61,-175
515,-511,-273,949,-22,-65,-145
516,-44,151,701,-16,-121,-428
517,-163,-189,1200,-28,-96,-497
518,-101,282,672,11,-113,-634
519,-274,150,1140,11,-102,-585
520,-369,112,1030,-32,-92,-764
521,-238,-43,763,-14,-76,-792
522,-521,-161,1064,21,-61,-704
523,-434,-104,987,7,-59,-530
524,-307,-26,947,-1,-59,-290
525,-491,78,980,-14,-22,-22
526,-325,44,979,-26,-8,122
527,-263,177,1027,-3,-8,58
528,-11,-5,998,1,-4,13
529,-503,27,1001,-5,4,359
530,-504,57,1006,23,17,1273
531,-420,-93,1156,122,-31,986
532,-349,6,979,-5,62,286
533,-388,58,909,-110,127,79
534,-83,77,1172,-34,74,193
535,-213,-110,940,-12,72,359
536,-194,28,1261,23,80,601
537,-103,-98,718,-10,96,626
538,-606,413,451,21,66,472
539,-388,83,519,40,82,482
540,-67,-53,601,9,88,613
541,-392,-7,1523,5,123,529
542,-32,17,270,21,60,357
543,-67,-23,1185,-14,41,943
544,-118,72,702,66,-51,1322
545,-136,62,1045,-7,2,1589
546,-165,100,1090,52,-55,1226
547,-400,106,706,-3,-51,1404
548,52,-46,763,-14,-67,540
549,56,77,976,-36,-209,331
550,-131,101,812,-16,-67,234
551,211,-103,1280,-26,25,-124
552,129,13,932,1,21,1
553,343,88,827,-5,-14,355
554,130,-169,1110,13,25,925
555,-380,-115,810,1,70,1290
556,151,107,1577,-24,86,743
557,229,-287,740,11,58,439
558,-15,-112,1070,23,-12,484
559,21,126,764,3,51,456
560,-143,142,979,15,31,161
561,-7,-38,1113,-14,-29,-346
562,75,0,979,-5,-8,-651
563,425,-94,1169,-3,-35,-766
564,141,-231,1017,-1,41,-305
565,105,-235,1117,15,4,202
566,93,171,820,29,-6,917
567,39,-51,1378,13,-31,1208
568,225,29,844,19,58,1031
569,-154,47,756,31,14,907
570,26,-37,975,-7,43,620
571,25,237,990,-1,37,239
572,146,114,1204,-20,90,-317
573,457,-45,1168,-63,70,-786
574,-140,27,2048,1,4,-971
575,468,-69,1167,5,25,-680
576,293,-166,1389,-22,41,-235
577,305,-95,634,1,14,175
578,80,-41,893,20,-6,794
579,391,-14,1114,22,8,1089
580,241,45,914,15,14,933
581,234,39,1021,9,4,839
582,100,-64,1021,1,2,597
583,-2,-4,1006,-3,15,72
584,77,5,1007,-11,23,-3
585,549,37,975,-7,10,-518
586,249,112,1017,-5,-16,-803
587,407,-137,1053,-26,-10,-507
588,31,98,859,-23,-20,-184
589,409,-130,873,-3,-26,-26
590,15,22,589,15,-47,-208
591,188,-72,978,-1,-29,-59
592,-284,-58,927,24,-33,-468
593,303,13,1087,-36,8,-186
594,149,142,1220,-19,-65,-706
595,102,155,949,-15,-31,-973
596,198,19,1000,-9,-59,-1339
597,211,292,1025,5,-65,-1323
598,38,-182,1609,-19,-4,-1155
599,330,-279,1178,-9,10,-940
600,211,-66,940,-9,-12,-626
601,-2,-50,1059,-21,-20,-305
602,428,-275,1072,1,6,-214
603,-203,-138,1201,-3,-10,-669
604,389,-6,915,22,-20,-805
605,-276,16,923,-28,-43,-1009
606,-170,-110,1092,-3,-63,-682
607,4,-185,1024,-15,-49,-891
608,71,87,583,-13,-67,-905
609,109,16,720,22,-59,-700
610,61,43,1044,-5,-67,-721
611,-79,37,886,-24,-4,-432
612,-75,-97,1124,22,15,-102
613,-153,-117,883,-13,70,-411
614,218,-85,946,19,265,-837
615,292,-55,539,19,119,-844
616,-33,-42,1199,-15,41,-719
617,-193,2,800,3,14,-634
618,85,-88,1118,-1,-33,-434
619,-153,135,814,-1,4,-182
620,-226,36,814,1,-33,81
621,-144,93,1167,-5,35,359
622,314,327,-59,3,-57,21
623,-367,-23,591,-19,-31,-194
624,-23,11,927,-3,-78,-253
625,87,111,644,-21,-82,-239
626,-140,186,422,1,-113,-118
627,-190,-35,1147,-23,-127,-110
628,-113,-82,1048,-24,-69,208
629,-297,52,1097,-36,-76,68
630,-264,-35,1366,-1,-57,157
631,-403,83,901,7,-53,66
632,-378,118,960,9,-65,202
633,-401,42,1008,-3,-41,-120
634,-371,1,1079,7,-57,-145
635,-366,6,1003,-5,-37,-184
636,-300,-9,983,-23,-18,-184
637,-274,94,1015,-5,-6,-108
638,-1,-4,1008,-1,-4,1
639,-58,-14,1007,-3,-4,1
640,-576,25,965,7,8,531
641,-323,-46,915,26,21,882
642,-237,63,999,5,41,423
643,-237,105,1116,-15,51,230
644,-220,70,850,-28,64,279
645,-49,98,1352,-30,60,48
646,-228,-58,374,-3,64,-46
647,-284,-29,1106,-9,66,179
648,-289,-86,739,-11,76,132
649,464,-104,1105,38,72,175
650,87,47,1936,36,99,281
651,-542,29,909,26,51,577
652,-219,-138,703,11,55,702
653,650,-157,1335,1,88,495
654,-220,150,738,7,47,269
655,-24,0,996,-5,49,806
656,-287,41,992,26,-24,894
657,-60,-5,1312,1,17,1181
658,-115,153,1105,5,-16,1150
659,-294,-64,1057,20,-20,991
660,-212,29,977,-15,-8,632
661,137,141,1098,11,-26,181
662,-32,0,942,-38,-250,728
663,-54,-45,1396,-17,-213,523
664,87,-23,1187,-9,43,435
665,20,-88,1349,13,31,286
666,125,151,921,-5,-12,452
667,-233,211,901,7,-6,761
668,276,-199,752,-48,49,978
669,188,-69,1123,-19,74,509
670,-45,102,427,-32,72,406
671,65,-96,1545,1,58,353
672,53,37,960,9,21,318
673,146,39,1785,26,25,560
674,281,-21,1152,13,31,493
675,116,-5,1251,-23,-12,339
676,116,-31,1012,-11,-35,306
677,148,-15,948,3,8,183
678,56,-101,949,5,51,255
679,106,-162,1123,40,19,23
680,197,21,1390,11,19,495
681,159,-104,932,17,6,708
682,159,-34,1212,-5,27,577
683,-1,198,1031,9,-16,282
684,173,-209,648,-21,21,25
685,2,8,841,-60,68,-280
686,-127,-77,632,42,29,-493
687,395,2,957,58,37,-751
688,299,178,894,-13,51,-514
689,375,-300,1685,-1,10,-59
690,46,49,1148,22,0,197
691,462,-173,1020,58,-35,269
692,175,50,753,5,15,275
693,288,-15,1059,-9,19,327
694,345,-83,998,-13,17,286
695,271,-35,1048,-5,4,226
696,26,-28,1029,-7,-2,120
697,9,1,1003,-3,2,5
698,492,60,993,-3,10,-237
699,342,7,1072,3,-6,-891
700,198,28,1050,-1,-18,-714
701,79,-94,1115,-7,-14,-503
702,220,71,958,-15,-6,-216
703,780,-190,942,-64,35,-188
704,566,143,990,-62,2,-290
705,181,-52,1462,7,-14,-48
706,139,-32,961,5,-67,-190
707,182,-65,897,-9,-37,-192
708,557,-237,1613,38,-86,-405
709,208,-103,1033,32,-14,-356
710,318,-248,786,-24,-4,-372
711,287,-25,812,3,-4,-243
712,271,-149,1088,-1,-26,-114
713,86,74,1153,-28,-22,-7
714,-77,103,1039,-11,0,-71
715,65,-132,105,7,47,-229
716,176,-35,1023,-1,8,-778
717,397,3,287,-1,-26,-870
718,148,-117,1178,-15,-47,-997
719,237,80,232,-7,-70,-1141
720,-191,-146,1236,-19,-51,-1319
721,159,-172,1024,7,-67,-1180
722,-84,-446,1176,-11,-47,-1229
723,308,-86,866,48,-59,-829
724,-135,-93,585,-34,-10,-733
725,-111,94,1072,11,8,-341
726,-71,19,962,20,35,-696
727,-89,-7,975,17,361,-1108
728,27,214,701,-9,99,-997
729,-344,-172,967,-34,4,-843
730,-52,-61,1025,-1,-10,-622
731,-115,-193,1502,-52,-37,-614
732,-70,-100,1267,11,14,-69
733,-389,141,967,-1,12,124
734,18,-77,966,-28,14,64
735,-17,79,441,17,-92,161
736,-60,-2,1038,-7,-115,-173
737,-257,64,1276,-17,-49,-61
738,-345,128,718,-32,-147,-118
739,12,117,1082,-46,-100,73
740,-515,85,898,36,-98,323
741,-373,75,929,-22,-72,333
742,-464,0,945,-42,-47,419
743,-330,265,916,-1,-45,279
744,-215,-81,546,-7,-45,257
745,-344,23,932,26,-41,114
746,-321,60,1067,3,-28,-36
747,-409,40,1008,-5,-14,-100
748,57,-25,991,-7,-4,-141
749,-12,8,1004,-1,-2,-7
750,-774,136,994,-1,2,175
751,-519,-32,913,-5,25,632
752,-214,-42,1148,-15,31,193
753,-642,-57,746,-7,37,198
754,-272,-141,1138,3,55,573
755,-87,-126,1145,-13,62,611
756,-378,314,468,32,43,556
757,-734,60,368,56,56,531
758,-402,97,17,-5,80,279
759,123,185,1985,1,60,-106
760,-223,-147,1021,20,88,-32
761,-93,23,-120,3,99,83
762,-25,-112,1479,15,45,81
763,44,4,1166,-5,47,595
764,-23,-32,719,30,-45,870
765,-278,149,1086,-3,19,1275
766,-10,53,882,32,-12,1212
767,-469,140,1071,9,-10,1075
768,154,37,978,-1,-22,495
769,244,107,930,-17,-72,185
770,276,41,1159,-42,-293,513
771,-134,-52,1380,-7,-72,468
772,264,-111,880,15,39,-214
773,-2,-16,880,-17,55,99
774,128,222,1058,1,12,66
775,-377,448,796,13,25,343
776,0,67,950,-9,53,402
777,416,-114,2048,-17,53,-55
778,2,46,1130,1,56,-233
779,192,-53,1069,36,43,-399
780,255,-195,1238,1,0,-444
781,150,-87,1258,7,66,-374
782,283,94,891,26,-4,-460
783,-9,-27,927,-13,10,-198
784,7,-179,958,-17,-45,105
785,303,-125,1052,9,23,423
786,-42,-118,1092,3,29,886
787,216,-11,1209,32,17,777
788,80,106,905,26,8,1064
789,194,-32,1187,9,14,1025
790,142,12,993,9,17,673
791,126,5,865,7,-12,364
792,419,-315,1505,21,2,255
793,146,160,1136,-73,66,19
794,206,-40,959,-38,49,15
795,152,-81,1018,67,2,214
796,365,-282,1210,-56,53,355
797,174,-58,973,67,-4,460
798,213,-9,1005,7,29,585
799,152,-39,893,-5,23,529
800,352,-39,1176,-24,23,398
801,268,25,1007,-30,19,224
802,228,-77,989,-9,4,114
803,-4,-7,1007,-24,15,17
804,34,3,1009,-17,10,3
805,528,-82,1034,-5,-2,-317
806,166,-37,993,-1,-10,-427
807,136,-43,813,19,-20,-50
808,275,-42,970,11,-24,-7
809,605,64,788,26,-59,-38
810,113,65,928,-83,-10,-55
811,201,-9,782,11,-39,-210
812,158,99,816,-32,-24,-536
813,361,-75,654,52,-59,-487
814,237,113,1095,-15,-14,-698
815,364,-12,938,-19,10,-786
816,218,-139,1036,3,-20,-749
817,243,-90,543,-3,-26,-723
818,-83,-94,1178,-26,-4,-725
819,205,-11,733,-44,-33,-909
820,111,-81,693,5,-2,-755
821,180,-114,1294,9,-8,-829
822,94,-188,962,5,-20,-1018
823,-168,-24,1037,-28,-12,-848
824,211,35,1083,-13,-69,-690
825,363,-265,646,-1,-37,-739
826,-119,-18,1561,-7,-65,-866
827,371,83,1226,13,-65,-796
828,286,108,1114,17,-70,-1093
829,318,-119,1173,30,-59,-968
830,-108,95,1272,-13,6,-745
831,-137,-94,1010,-7,37,-296
832,60,-176,667,26,103,-192
833,-193,78,1083,-7,330,-401
834,-125,35,591,-7,66,-243
835,16,185,1929,3,-24,-278
836,62,0,1044,3,-4,-380
837,-136,33,936,-56,-18,-809
838,-95,-23,1232,3,-4,-477
839,-209,-36,1052,1,4,-448
840,142,248,926,-7,-14,-653
841,-495,-566,1660,-9,-61,-600
842,-4,-93,1734,-11,-90,-532
843,-338,31,1546,-15,-113,-389
844,-142,-160,1335,1,-98,-219
845,-528,-4,537,22,-113,-102
846,244,327,-32,19,-104,-3
847,-256,127,1066,-24,-86,-184
848,-237,-18,1001,24,-90,-272
849,-539,-20,1035,15,-74,-446
850,-427,-63,1035,-19,-84,-643
851,-366,-66,947,-19,-47,-327
852,-302,43,920,-17,-37,-141
853,-374,4,1132,7,-22,150
854,-411,22,1033,-15,-10,308
855,-315,104,987,3,-4,177
856,-8,73,1016,5,4,103
857,-93,-29,993,-1,-6,11
858,-545,99,970,-1,2,536
859,-328,49,999,7,15,663
860,-263,81,1018,32,-2,290
861,-366,-19,806,-24,41,357
862,-324,-112,1115,-40,55,464
863,-119,-41,1014,38,53,193
864,-423,8,889,-17,74,286
865,-433,90,1179,-36,78,15
866,-123,53,959,-5,78,66
867,-140,175,494,11,92,232
868,42,40,744,5,98,236
869,-254,-177,783,30,76,466
870,125,-176,1160,15,70,685
871,-160,-129,1824,19,58,915
872,162,-84,1495,9,109,773
873,167,-66,1472,1,47,540
874,-15,97,1228,-11,60,915
875,253,22,1092,32,-35,849
876,-24,137,994,-5,27,919
877,363,-34,1063,9,-27,693
878,-256,-1,862,30,-26,572
879,149,-201,1150,-15,-35,286
880,106,4,1161,-15,-67,60
881,93,4,1226,-28,-278,810
882,138,41,1300,-7,-111,861
883,83,-174,1004,-23,82,874
884,171,80,966,15,68,657
885,-21,63,1038,-7,12,609
886,-85,61,974,13,6,517
887,109,-57,1010,-46,51,398
888,211,-196,1225,-23,62,-132
889,67,-193,1420,-23,66,-276
890,129,-79,1324,-19,55,-315
891,102,-171,726,11,12,-292
892,184,-177,1182,11,33,314
893,49,-41,711,5,33,466
894,-77,-30,943,-1,-8,370
895,196,-101,1011,-11,-29,529
896,-32,-3,991,-3,-8,263
897,178,-81,1168,-1,60,11
898,-18,50,866,11,43,-337
899,15,127,923,17,19,-218
900,237,-48,993,-3,23,-93
901,22,-12,663,9,8,-163
902,184,-45,1123,17,-6,-143
903,280,-66,843,32,-6,44
904,-6,-22,800,-67,72,75
905,147,-8,1104,63,19,142
906,467,-103,1738,-23,53,126
907,472,7,1153,71,15,177
908,678,223,1606,-44,53,308
909,244,-152,675,-30,14,577
910,120,31,931,3,4,640
911,204,32,921,50,-29,636
912,282,16,1044,26,-2,673
913,222,-21,996,-3,12,478
914,207,-54,1002,-15,14,263
915,18,-64,1002,-13,8,101
916,267,77,1010,-11,10,-14
917,426,-18,990,-9,-2,-257
918,184,-51,1152,-7,-14,-253
919,194,-9,872,-21,-4,-190
920,278,-123,796,-32,19,-106
921,565,130,400,-36,0,-118
922,524,160,791,-5,-8,27
923,155,59,1337,-7,-45,-100
924,68,-27,1102,-15,-49,-147
925,476,-47,1294,-9,-51,-389
926,249,56,940,24,-35,-731
927,221,-14,1114,7,-24,-686
928,138,-6,1451,-9,-14,-567
929,259,-2,976,-23,-14,-686
930,270,-63,1104,-1,-18,-684
931,57,62,774,-48,-24,-766
932,-66,91,955,-5,-14,-1009
933,362,-103,915,13,31,-1194
934,83,-127,1393,-9,-18,-1028
935,84,51,714,-21,-22,-844
936,-109,-27,951,9,-84,-635
937,200,248,483,-1,-57,-745
938,-87,130,848,-9,-49,-800
939,57,73,945,20,-67,-932
940,-221,-67,876,-1,-39,-1036
941,355,126,940,-1,-39,-852
942,144,-44,812,-17,-20,-821
943,-131,87,1246,5,10,-645
944,78,-219,927,15,131,-714
945,-49,-190,1193,19,262,-915
946,-338,-129,1505,-15,96,-788
947,-483,-151,1073,-7,-8,-581
948,407,-70,967,-26,6,-602
949,-192,-74,1039,15,-22,-534
950,-11,152,999,-13,15,-235
951,-285,163,1066,-21,74,-73
952,-2,65,758,13,-49,-452
953,-231,-60,607,5,-61,-491
954,-332,21,849,-3,-121,-387
955,118,-112,1715,-34,-86,-503
956,-332,-230,614,-13,-110,-348
957,-165,-458,1056,40,-90,322
958,-646,-390,218,3,-111,538
959,-331,-82,700,-11,-86,573
960,-285,6,1105,32,-80,599
961,-483,-26,576,3,-43,527
962,-338,-32,1082,13,-57,413
963,-501,-95,1216,-30,-65,531
964,-378,-31,1039,-1,-29,632
965,-361,13,959,7,-16,632
966,-379,132,1010,9,-14,554
967,-258,199,1027,1,-8,374
968,-186,-124,1007,-5,-2,73
969,-558,10,967,7,14,960
970,-390,-5,994,-11,21,1331
971,-529,21,1007,-7,29,822
972,-299,118,1113,22,53,357
973,-344,1,1232,7,70,-122
974,-415,20,1153,-19,72,-423
975,-344,-33,1691,-23,70,-579
976,-395,-85,1219,1,84,-559
977,-258,-228,1477,-32,101,-307
978,-276,-98,451,-50,105,-114
979,-202,-215,755,11,103,214
980,-56,-277,2048,40,66,716
981,69,-52,1683,11,103,1464
982,223,101,-87,1,55,1476
983,-115,229,1329,-5,19,1415
984,-148,212,1747,69,-70,1034
985,98,96,969,-9,-45,644
986,-279,91,1014,38,-35,1091
987,-145,-200,1121,-36,-133,902
988,161,-98,1033,-7,-143,589
989,-84,-12,773,-19,-184,1279
990,146,-5,1234,-5,-22,1607
991,188,-109,1049,-9,0,1544
992,212,4,1015,-13,6,1368
993,19,93,634,5,-22,1236
994,-6,-1,1090,11,37,1552
995,-108,-8,868,22,53,1175
996,-94,8,756,-64,64,640
997,88,-1,1011,-21,56,197
998,215,-98,1218,-7,25,292
999,-39,-125,1213,5,33,712
1000,164,-102,1265,15,41,843
1001,90,-7,975,-19,-22,675
1002,145,-4,945,-17,-10,656
1003,234,-166,1424,36,72,378
1004,-83,133,721,48,43,-177
1005,149,147,995,24,10,-309
1006,-2,112,1347,-3,17,-825
1007,61,-33,958,-36,14,-1200
1008,417,-395,1405,-19,55,-948
1009,160,-284,1175,-13,14,-428
1010,288,-268,1299,-5,56,58
1011,10,203,835,-23,82,216
1012,-29,-154,753,38,-6,380
1013,189,-4,886,59,-6,384
1014,95,195,512,18,-2,23
1015,-72,41,349,-36,39,-680
1016,349,-202,634,18,31,-583
1017,213,-222,1075,40,19,193
1018,243,-74,782,7,31,544
1019,356,36,1046,-3,10,589
1020,410,121,1080,1,2,538
1021,202,128,1170,-3,27,443
1022,352,78,971,-1,17,224
1023,319,86,998,-1,0,58
1024,-2,-8,1013,1,-2,3
1025,486,-56,1016,1,4,-130
1026,314,39,1008,-5,-6,-751
1027,342,-38,963,-1,-28,-259
1028,291,-119,929,-3,-2,183
1029,163,-26,904,-3,-14,165
1030,256,104,932,-9,-10,128
1031,271,-221,938,-58,-28,140
1032,355,94,659,1,-41,378
1033,-261,-114,478,3,-41,-44
1034,1071,135,-344,-67,31,-354
1035,304,198,1320,9,-31,-667
1036,127,-3,1001,-21,-90,-786
1037,338,109,681,-34,-59,-968
1038,157,-87,996,30,-35,-825
1039,143,11,1204,-11,-6,-553
1040,44,27,686,-11,-26,-557
1041,304,-110,1144,-50,-20,-536
1042,-114,-19,1367,-19,0,-782
1043,289,-8,487,5,-4,-958
1044,384,-124,507,-5,-31,-1385
1045,21,78,1182,-9,-59,-1401
1046,146,-61,705,5,-72,-1395
1047,-11,120,977,26,-98,-1585
1048,150,-48,881,9,-57,-1352
1049,367,35,874,28,-72,-1307
1050,-115,-76,1084,-26,-4,-1052
1051,-120,-11,742,-9,-2,-862
1052,195,-274,993,28,183,-1118
1053,-131,-5,988,26,215,-1266
1054,-9,-56,1251,-21,39,-897
1055,-197,-164,1235,7,8,-854
1056,7,-163,1030,-19,-47,-940
1057,16,-179,1267,7,29,-296
1058,-437,22,1189,-23,10,-94
1059,293,13,1184,-11,-2,152
1060,-497,-26,1438,17,-69,111
1061,-457,112,161,-19,-86,91
1062,36,-102,738,-24,-113,-89
1063,-435,13,863,-28,-121,-335
1064,-357,35,1334,7,-106,-139
1065,58,182,1513,63,-131,-180
1066,-441,-56,558,-9,-84,-380
1067,-382,-52,1143,-5,-65,-538
1068,-169,51,1058,-1,-59,-680
1069,-620,185,1375,-54,-80,-637
1070,-265,-40,955,-5,-45,-516
1071,-447,-33,1118,-5,-41,-274
1072,-588,-35,985,11,-26,-149
1073,-401,-78,1016,-11,-14,-464
1074,-122,-152,1003,-9,-8,-477
1075,-15,5,1002,1,-10,-12
1076,-786,92,1034,3,4,40
1077,-413,-77,962,-3,23,25
1078,-245,-77,1029,-15,27,-608
1079,-161,-35,1154,-3,33,-229
1080,-260,-60,1225,-3,45,83
1081,-127,9,1047,12,99,138
1082,-397,15,1254,14,51,380
1083,-423,-2,1045,-3,56,261
1084,-380,-157,958,-56,103,54
1085,-196,-5,1105,5,80,25
1086,-203,-281,499,-17,109,265
1087,-344,354,-268,38,152,464
1088,-615,174,1035,55,119,513
1089,-186,-11,1141,20,170,566
1090,246,-84,1330,16,90,558
1091,75,12,947,-7,66,679
1092,-382,-23,831,-3,-4,788
1093,244,-133,664,30,-26,798
1094,-118,216,1166,-7,-41,960
1095,-131,-96,1081,44,-14,1048
1096,96,-185,1047,-13,12,652
1097,294,-75,1071,-5,-35,407
1098,-66,133,955,-25,-252,1249
1099,-194,135,851,-7,-252,1320
1100,-187,23,983,-21,53,784
1101,338,-148,930,-13,6,113
1102,176,-50,1255,16,6,406
1103,177,-236,1160,3,15,1025
1104,127,-288,1135,12,76,1175
1105,-52,-162,1094,-3,47,1132
1106,353,-131,1939,-1,62,1359
1107,174,92,1211,34,45,1353
1108,116,90,815,24,13,1517
1109,239,-175,1798,1,62,1038
1110,-114,-22,1043,22,-8,907
1111,289,-208,926,-25,12,1167
1112,-126,-284,927,14,17,1103
1113,-57,-120,1053,14,6,950
1114,192,-18,1387,1,4,1306
1115,72,-67,1403,12,12,1513
1116,-28,-27,1234,10,0,1613
1117,55,-36,1064,10,-10,1480
1118,4,288,603,5,-12,1343
1119,100,314,634,16,10,1048
1120,178,-230,1640,3,23,769
1121,-64,-94,818,-25,49,761
1122,163,-8,1090,-33,56,659
1123,418,-129,1302,-7,23,855
1124,-3,238,42,32,41,1052
1125,247,201,1160,1,49,1181
1126,170,151,802,1,19,865
1127,135,317,494,-5,27,585
1128,103,148,1022,-5,4,450
1129,221,246,836,7,0,286
1130,203,177,900,-1,-12,87
1131,315,148,1007,7,-4,197
1132,-3,3,1007,-15,12,27
1133,361,78,1004,-15,12,-36
1134,383,204,1019,-21,6,-339
1135,224,419,921,-1,-2,-75
1136,378,266,934,-23,8,-34
1137,302,292,867,-1,-12,-143
1138,312,257,1020,-1,-2,-262
1139,544,304,511,-1,-45,-538
1140,178,120,1186,-1,-69,-528
1141,317,125,1447,14,-39,-509
1142,277,305,979,-1,-37,-503
1143,380,168,907,18,-41,-352
1144,151,342,1451,7,-39,-468
1145,110,314,867,-5,10,-624
1146,157,109,466,-11,12,-1116
1147,458,139,1397,-1,-12,-1532
1148,193,120,1240,-27,-24,-1827
1149,-77,-26,1054,-13,-8,-1952
1150,171,11,749,-17,27,-2200
1151,282,53,968,-17,6,-2104
1152,158,101,596,-5,-24,-1954
1153,85,78,1073,-21,-22,-1526
1154,-326,371,555,-17,-55,-1661
1155,-380,-24,1404,12,-51,-1747
1156,-276,-103,690,-23,-69,-2173
1157,235,123,609,3,-80,-2235
1158,57,-258,445,-7,-37,-2177
1159,190,51,1284,36,-45,-2069
1160,-71,-187,1127,-5,-8,-1682
1161,-171,-55,861,30,-2,-1196
1162,-159,-249,1219,26,-71,-1503
1163,-229,-32,761,-13,8,-1733
1164,-94,-153,856,16,209,-1524
1165,-354,-110,836,-19,86,-1626
1166,-207,-49,875,8,113,-1776
1167,-126,-177,1200,-42,58,-1952
1168,-198,-205,858,-9,66,-1796
1169,-233,-297,1329,-27,6,-1796
1170,-234,-206,1176,-44,19,-1936
1171,-243,-160,1101,-33,-28,-1579
1172,-184,-375,1094,-7,56,-1409
1173,-264,-246,1103,1,21,-1677
1174,-256,-268,1163,-1,-2,-1384
1175,-315,-225,1265,-3,-6,-1075
1176,-225,-428,917,18,-8,-522
1177,-360,-460,960,3,10,-376
1178,-380,-354,1036,1,8,-219
1179,-23,-4,1010,-3,4,-120
1180,-24,-16,1007,-1,-4,3
1181,-254,-178,1030,3,-4,394
1182,-295,-325,1010,3,2,601
1183,-215,-305,1026,-3,2,138
1184,-178,-264,1098,-25,-10,54
1185,-46,-218,1260,-11,8,304
1186,-146,-201,1059,-13,0,972
1187,-119,-258,668,-5,10,741
1188,-232,-263,890,-5,-6,1003
1189,-161,-254,1042,1,-24,966
1190,-46,-118,975,16,-14,1054
1191,-142,-168,1075,42,4,1255
1192,-147,-288,1222,30,-8,792
1193,-120,-186,1095,12,0,1056
1194,-256,-113,1054,28,19,1152
1195,-170,-273,862,16,-41,1333
1196,-85,-22,1068,20,-35,1396
1197,-144,-133,977,-3,-96,1661
1198,-299,-28,708,10,-137,1618
1199,74,-84,967,-1,-112,1616
1200,-179,-55,891,-13,-197,1509
1201,-95,54,1077,-5,-16,1249
1202,-7,-98,953,1,51,972
1203,-143,-81,1047,-15,0,1062
1204,209,-113,948,-34,0,1472
1205,-27,-51,1036,20,0,1402
1206,-183,-57,880,14,33,1556
1207,39,-47,921,-13,74,1183
1208,74,194,1095,-19,45,1101
1209,21,-188,916,-13,37,1255
1210,-4,-166,1741,1,49,765
1211,535,-182,1043,40,25,667
1212,116,17,793,8,27,1222
1213,88,126,762,12,35,1142
1214,87,-234,893,8,35,1032
1215,-130,-17,912,-11,-4,1142
1216,68,114,1404,-17,-4,1228
1217,100,340,1232,12,-6,865
1218,271,114,1015,12,15,142
1219,178,259,1252,-3,-4,-282
1220,537,97,1225,-15,-22,-233
1221,268,-447,1431,-9,13,-114
1222,214,-253,978,-1,-8,109
1223,350,-67,1242,14,10,695
1224,91,-147,874,-9,15,1366
1225,225,-19,817,1,0,1452
1226,120,203,1036,20,17,1187
1227,180,239,950,-3,33,806
1228,253,651,1792,-13,23,361
1229,89,480,1499,-19,19,-245
1230,341,297,914,-5,15,-458
1231,134,63,589,1,17,-462
1232,288,19,789,1,10,-227
1233,189,87,876,40,10,179
1234,269,90,1055,12,15,597
1235,227,195,928,-5,13,689
1236,215,164,1006,-7,8,503
1237,22,1,1011,-13,10,142
1238,-10,-85,1030,-23,13,17
1239,230,270,1011,-42,35,-55
1240,382,379,946,-29,23,-930
1241,52,339,1058,8,-24,-1335
1242,68,183,973,7,-35,-1378
1243,179,394,1197,-3,-51,-1077
1244,153,42,920,-23,-4,-594
1245,136,-78,1399,-7,-12,-296
1246,203,26,1308,1,-28,-190
1247,171,145,988,14,-14,204
1248,64,146,1010,5,-20,38
1249,161,85,999,24,-57,-231
1250,36,162,1094,-9,-33,-557
1251,27,-40,1128,3,-16,-911
1252,253,274,1605,8,-22,-1214
1253,96,318,1258,14,-16,-1313
1254,-43,-8,1617,-3,4,-1415
1255,352,217,1234,-5,-12,-1458
1256,106,-47,933,3,-16,-1540
1257,214,65,1126,-17,-28,-1411
1258,179,68,786,-3,-4,-1255
1259,-142,-227,991,-5,17,-973
1260,106,35,1129,5,6,-1053
1261,-66,137,1098,7,-14,-1094
1262,121,234,433,-7,-29,-1196
1263,50,249,1017,-13,-26,-1483
1264,66,-45,970,3,-39,-1366
1265,17,-32,1404,12,12,-1268
1266,-68,-10,1186,7,-63,-1323
1267,-105,-2,767,12,-59,-1464
1268,129,315,471,-42,-16,-1602
1269,-103,-156,1021,-23,-51,-1571
1270,103,-144,918,-58,-41,-1872
1271,11,46,1403,-1,-26,-1284
1272,21,-61,873,16,-35,-1216
1273,-105,-40,1256,28,13,-1003
1274,-132,-44,951,12,-69,-917
1275,-140,208,983,-3,-18,142
1276,-6,62,935,32,-26,1310
1277,45,16,1151,28,-31,1652
1278,99,-93,1410,-29,51,1025
1279,93,-129,916,16,2,282
1280,-142,-277,666,-32,84,-339
1281,144,-18,1190,-25,168,-647
1282,-67,-124,1078,1,107,-653
1283,-138,-149,1035,-44,17,-837
1284,-244,-289,1072,22,90,-862
1285,-120,-280,1092,-30,39,-1184
1286,-317,-465,892,-50,92,-2290
1287,-363,-325,1158,-56,76,-3026
1288,-279,-174,916,-54,45,-2565
1289,-365,-463,970,7,25,-1856
1290,-194,-371,904,-1,13,-1522
1291,-268,-303,1006,3,6,-1040
1292,-196,-24,1003,9,4,-344
1293,-2,0,1005,3,-6,-9
1294,-125,-146,1013,5,-14,17
1295,-77,-228,1007,7,-4,995
1296,-198,-401,992,5,2,1245
1297,-162,-399,1087,1,4,1060
1298,-296,-371,1073,-1,0,1040
1299,-273,-249,1014,5,-8,736
1300,-231,-213,969,-1,-2,575
1301,-247,-157,1065,16,-18,607
1302,-143,2,1081,22,-24,427
1303,-276,-295,963,32,12,284
1304,-58,-129,1067,44,-33,87
1305,-176,-228,956,30,-14,269
1306,-91,-498,873,-1,13,425
1307,-279,-371,1130,18,-2,687
1308,-12,-79,1252,18,-41,1050
1309,-121,-95,963,16,-121,1195
1310,-100,-18,698,5,-168,1415
1311,-73,-39,1015,-5,-28,1144
1312,-119,-81,542,-5,2,1400
1313,-52,48,1048,-5,-262,1673
1314,-56,25,1319,-7,74,1243
1315,200,122,1579,-7,-28,1558
1316,-66,10,531,-19,41,1734
1317,-161,2,751,3,21,1363
1318,-26,3,901,-7,21,1679
1319,-199,-211,688,-36,80,1409
1320,50,-209,1228,3,25,1351
1321,-247,-333,1277,-1,49,1521
1322,50,-147,-179,1,58,960
1323,-17,132,2038,28,23,976
1324,75,115,1471,36,8,1251
1325,162,0,1491,5,54,1144
1326,117,75,595,-13,31,1062
1327,106,12,1040,22,-35,1544
1328,-25,51,858,-1,-2,1681
1329,243,68,1116,-3,6,1671
1330,94,69,964,9,25,1622
1331,336,254,1415,-3,-14,1523
1332,32,-6,1155,-23,23,1437
1333,44,17,942,-9,2,1236
1334,6,185,1340,-11,0,1304
1335,152,232,1054,7,19,1029
1336,93,119,975,-5,-2,822
1337,118,62,828,-1,27,718
1338,-187,187,579,11,37,972
1339,146,214,1956,-32,41,1021
1340,-342,-36,760,-17,39,991
1341,211,-60,755,-7,31,1288
1342,217,354,1350,12,12,1325
1343,141,106,871,63,13,1185
1344,227,308,1082,26,29,1323
1345,392,224,1064,-5,10,966
1346,269,277,1071,-3,-2,749
1347,294,270,948,14,2,439
1348,279,237,937,-17,13,210
1349,105,-2,1009,-15,4,21
1350,6,-7,1007,-11,6,3
1351,121,91,1001,-32,21,9
1352,361,172,1015,-19,12,-296
1353,98,176,1068,9,-12,-5
1354,180,153,1075,-3,-4,11
1355,183,69,1260,-1,-6,-98
1356,181,142,1036,7,-12,-225
1357,146,118,927,11,-37,-280
1358,180,179,860,-5,-69,-405
1359,115,127,1301,-3,-14,-542
1360,351,338,1058,-5,-18,-718
1361,170,223,935,-34,-12,-635
1362,82,387,1402,20,-33,-594
1363,68,89,816,-9,-41,-788
1364,142,209,1494,-9,-28,-778
1365,338,169,1122,24,-22,-815
1366,281,-46,480,-3,-2,-1159
1367,233,-132,1142,3,-12,-1175
1368,105,101,889,3,-10,-1065
1369,314,-72,1124,-1,-18,-1061
1370,143,-104,979,16,31,-971
1371,128,-40,1107,-5,-16,-1114
1372,-11,-82,824,-5,12,-1001
1373,7,131,705,5,-24,-1194
1374,15,53,1514,1,2,-1231
1375,-100,-62,1059,-5,-35,-1106
1376,156,36,1370,-11,-41,-1553
1377,123,411,934,-3,-35,-1614
1378,116,-131,812,-1,-29,-1489
1379,-87,-143,1389,-9,-41,-1218
1380,229,-105,756,-34,-47,-1427
1381,110,79,932,3,-49,-1481
1382,-65,38,888,3,-47,-1137
1383,247,51,1023,26,-29,-1401
1384,44,80,1215,-3,8,-1219
1385,181,307,2048,10,-22,-1323
1386,4,-236,944,24,6,-1698
1387,-160,-121,1297,-21,-29,-1997
1388,58,-84,998,5,-28,-1911
1389,-18,-142,821,-1,12,-1606
1390,-94,-196,833,1,8,-1393
1391,25,-244,981,3,105,-1130
1392,-384,-289,1173,-34,123,-1274
1393,38,-15,781,32,133,-1216
1394,-105,-2,1056,-40,0,-1587
1395,-143,233,390,-3,33,-1563
1396,-132,-45,1012,-95,19,-1704
1397,-168,-503,1123,3,-6,-1450
1398,-41,-85,1021,-36,13,-1454
1399,-159,-450,738,1,51,-979
1400,-175,-384,924,-48,25,-1001
1401,-243,-202,1103,-5,23,-1007
1402,-228,-659,549,-29,37,-825
1403,-183,-331,866,1,15,-981
1404,-238,-263,953,1,-22,-852
1405,-264,-200,923,7,-14,-594
1406,-217,-323,1051,12,-4,-360
1407,-190,-275,972,1,10,-208
1408,-289,-326,988,-5,4,-317
1409,-3,-14,998,1,6,1
1410,-16,-2,1010,7,-10,-5
1411,-227,-139,1005,12,-10,17
1412,-256,-316,989,5,-4,380
1413,-222,-383,987,-3,-2,44
1414,-161,-338,1017,-11,12,-110
1415,-191,-298,882,-5,2,384
1416,-84,-188,1000,-5,25,433
1417,-193,-409,1094,-19,-10,532
1418,-166,-367,834,7,-10,390
1419,-51,-105,971,-5,-16,1060
1420,-218,-88,985,-13,13,1357
1421,-71,84,1215,14,-41,952
1422,-48,69,1250,92,-57,1450
1423,-171,-383,1166,16,-14,1193
1424,9,-98,1178,8,17,779
1425,-207,-146,684,38,-28,1210
1426,-106,-324,1367,-23,-129,1542
1427,-103,-86,944,32,-18,1128
1428,-162,-64,834,-23,-127,1427
1429,-136,-112,837,12,-131,1689
1430,-204,-153,846,-1,-141,1782
1431,-233,15,440,-1,10,1710
1432,56,-241,737,1,15,1599
1433,-70,-186,483,-13,58,1478
1434,-95,84,1450,-40,-6,1790
1435,277,236,1498,36,-6,1523
1436,21,-39,1078,-5,21,1700
1437,-47,-273,1077,-7,49,1560
1438,83,33,891,8,31,1073
1439,-172,-108,1338,-1,43,1697
1440,-120,-160,740,-27,54,1443
1441,676,-275,2048,-11,51,1400
1442,217,34,1759,-21,43,1470
1443,204,305,1178,7,15,1620
1444,230,-14,1232,-5,39,1450
1445,180,243,1010,10,23,1138
1446,246,172,1265,1,-6,1200
1447,151,309,1122,1,-18,1128
1448,-151,155,822,1,-8,732
1449,115,-27,640,5,31,868
1450,-118,72,1127,-19,0,546
1451,229,3,1072,-5,12,861
1452,-138,163,294,-19,41,814
1453,374,139,1503,-17,0,677
1454,96,190,734,1,0,1036
1455,311,174,1051,-1,8,1044
1456,168,188,1172,3,6,904
1457,321,21,943,-9,6,556
1458,126,33,1040,-7,17,550
1459,-235,73,444,8,21,855
1460,443,456,1107,8,15,904
1461,398,334,1075,8,10,724
1462,168,227,908,14,-2,706
1463,336,338,985,26,-10,376
1464,0,5,1005,-13,6,66
1465,208,148,999,-34,19,-153
1466,323,205,977,-27,6,-716
1467,250,316,1034,-9,-6,-427
1468,169,305,1001,-5,-8,-182
1469,169,-152,512,-9,-8,-169
1470,197,248,810,3,-22,-225
1471,245,-25,506,1,-12,-173
1472,192,68,1242,22,-12,-188
1473,162,212,841,5,4,-456
1474,246,294,849,-1,-12,-487
1475,175,76,1133,-1,-6,-491
1476,27,273,1133,3,-8,-604
1477,435,61,490,10,12,-745
1478,172,51,819,12,-24,-917
1479,160,-185,703,6,19,-843
1480,162,406,671,-1,-2,-870
1481,81,224,832,-7,-12,-968
1482,84,117,1126,-3,2,-614
1483,160,106,969,6,6,-737
1484,232,-288,1369,2,-24,-1134
1485,93,307,735,-1,-24,-993
1486,128,145,938,-5,-37,-1075
1487,-118,-157,1108,-25,-10,-1239
1488,-122,-309,2048,-13,-49,-1270
1489,61,-31,1374,10,-55,-1186
1490,-1,113,558,-9,-41,-1487
1491,-23,301,914,36,-41,-1468
1492,-115,-53,981,-25,-49,-1555
1493,174,166,1135,-7,-51,-1727
1494,-63,-71,1045,-15,-6,-1489
1495,94,-152,1153,-5,-10,-1891
1496,-203,-142,764,8,-16,-1876
1497,-112,-51,1062,-9,-28,-1950
1498,21,-128,1146,4,8,-1907
1499,-52,-212,1083,24,117,-1698
1500,-223,-154,842,-23,201,-1768
1501,-117,-70,1066,8,131,-1784
1502,2,-89,834,-35,27,-1901
1503,6,-6,955,-21,51,-1757
1504,-49,-113,947,-5,-22,-1706
1505,228,-29,894,-50,15,-1823
1506,-201,-41,1139,-44,62,-1462
1507,-91,-149,1001,-9,27,-1581
1508,-170,-379,1752,24,13,-1432
1509,-78,-118,217,10,21,-1380
1510,185,-667,166,12,-33,-1567
1511,180,-265,698,-5,-24,-1341
1512,-290,-248,902,-11,-37,-1159
1513,-299,-383,1630,1,-94,-1100
1514,-208,-212,1152,-3,-63,-944
1515,-339,-460,1034,-11,-72,-811
1516,-89,-185,1047,-1,-45,-608
1517,-203,-321,1072,-1,-33,-538
1518,-243,-422,1104,-5,-57,-495
1519,-282,-374,978,4,-28,-356
1520,-271,-303,1010,4,-8,-124
1521,-8,-8,1005,1,0,-14
1522,-83,-102,1006,8,2,-7
1523,-295,-354,981,4,17,97
1524,-321,-433,1011,4,29,-65
1525,-60,-52,1354,1,60,-387
1526,-211,-260,1260,2,41,-227
1527,-365,-195,1167,-7,27,81
1528,122,-299,1245,-5,54,218
1529,-78,-206,1042,16,60,263
1530,-134,-214,988,-5,68,491
1531,-413,-97,1310,8,64,699
1532,-13,-227,767,2,39,886
1533,1,27,1294,-17,10,1339
1534,-151,-214,492,-33,19,1413
1535,-208,-42,771,4,-16,1599
1536,-110,25,423,22,0,1880
1537,102,-151,1088,43,-76,1997
1538,-157,-80,1107,73,-8,2058
1539,-131,-330,992,4,11,1415
1540,6,-109,1179,57,6,1544
1541,-147,-161,795,-13,-119,2103
1542,12,206,938,-1,-72,2062
1543,240,84,1448,14,-170,2271
1544,-143,-122,907,-11,-246,2081
1545,52,-14,1130,-15,15,1988
1546,-34,-56,625,4,2,2120
1547,223,81,774,-15,74,1995
1548,-11,102,1321,-33,2,2132
1549,-166,85,1137,-7,19,2075
1550,24,-38,945,14,13,2134
1551,100,-110,877,-41,82,2130
1552,160,-12,1012,-27,47,1861
1553,-5,-41,1080,-11,37,2060
1554,-25,66,1275,-5,51,1298
1555,300,377,1117,24,33,1150
1556,56,152,762,16,13,1538
1557,20,255,670,8,45,1210
1558,323,43,1358,8,29,695
1559,164,97,1028,1,-22,560
1560,39,118,854,4,-12,700
1561,197,33,1329,12,-2,765
1562,40,123,1323,16,11,909
1563,37,-69,1166,2,6,1011
1564,92,79,967,-15,-4,1046
1565,-60,210,868,-19,23,943
1566,210,-107,928,-17,13,759
1567,51,330,1109,1,6,700
1568,354,521,1421,12,6,509
1569,108,140,992,-1,2,245
1570,264,79,1190,-9,2,156
1571,264,339,696,8,10,31
1572,-2,-25,769,12,21,240
1573,-12,-32,970,1,13,191
1574,307,196,921,2,6,91
1575,191,217,851,-11,10,224
1576,266,163,1028,-13,10,337
1577,147,-31,1008,-17,11,169
1578,48,76,1016,-37,21,3
1579,305,264,963,-15,11,-301
1580,375,289,1096,-5,2,-233
1581,200,280,935,10,-16,-69
1582,175,285,825,-3,-10,-311
1583,215,245,1208,-9,-20,-514
1584,262,23,1276,16,-33,-329
1585,221,207,1071,-1,-18,-247
1586,266,98,1064,-5,4,40
1587,388,29,869,2,-16,-190
1588,239,321,943,-3,-14,-473
1589,162,162,1426,18,-10,-479
1590,39,168,827,1,-12,-651
1591,-22,111,1049,4,19,-948
1592,-152,183,731,1,4,-1178
1593,86,201,954,-7,4,-1034
1594,47,68,1002,-9,-2,-846
1595,57,-113,1041,-5,8,-852
1596,161,-169,1258,16,2,-600
1597,247,154,1103,2,0,-401
1598,-26,-92,1224,-9,-45,-315
1599,-85,75,1210,-25,-28,-546
1600,-35,-10,1040,-15,-30,-938
1601,37,75,665,-11,-28,-757
1602,-54,-112,1545,-17,-28,-1229
1603,-255,50,1292,-1,-41,-1356
1604,-81,-71,1006,-9,-35,-1163
1605,-22,-183,1222,-23,-24,-876
1606,-8,-61,1168,28,-31,-905
1607,-188,40,684,-7,-30,-735
1608,-108,253,1366,-19,-14,-630
1609,-37,0,1128,12,2,-587
1610,-189,-6,660,10,-12,-993
1611,9,-134,1401,-3,-57,-1358
1612,-202,-162,1023,1,2,-1120
1613,-169,-196,946,1,15,-1009
1614,-120,-324,1050,-9,62,-1091
1615,-9,-133,828,-21,62,-1032
1616,-174,-94,1036,12,115,-1038
1617,-41,-11,1014,-50,144,-1010
1618,-57,80,1175,2,72,-977
1619,24,139,643,-31,33,-1096
1620,142,125,1096,-23,49,-1194
1621,-234,-168,1248,-52,21,-1499
1622,-114,66,1378,-29,-16,-1303
1623,-180,-118,905,-29,8,-1415
1624,-168,-160,993,-17,23,-1335
1625,-387,-299,765,-7,21,-981
1626,-183,-200,861,1,0,-850
1627,-274,-385,1097,14,-2,-727
1628,-278,-393,957,-17,-2,-497
1629,-220,-204,954,6,10,-495
1630,-209,-363,1005,16,11,-151
1631,-116,-378,1000,6,6,5
1632,-8,8,999,1,-4,19
1633,-76,50,1011,1,-4,290
1634,-141,-125,991,12,11,1021
1635,40,-90,982,2,0,618
1636,-118,-183,996,-3,-8,382
1637,31,-115,950,-5,-8,214
1638,-77,-255,975,-5,2,183
1639,-133,-297,986,12,10,263
1640,19,-241,1123,8,13,341
1641,-37,-226,1081,-17,0,472
1642,-142,-101,945,-19,-10,521
1643,-359,-168,634,-1,-6,450
1644,-42,-21,1049,20,4,445
1645,-156,-48,801,-1,-14,368
1646,-51,-234,1135,20,-2,607
1647,-149,-219,1118,22,2,554
1648,-7,-283,1123,24,19,378
1649,-198,-390,969,8,-8,622
1650,-51,-149,992,63,-10,564
1651,18,-57,1101,14,-2,447
1652,-95,-95,1003,14,-10,810
1653,-48,-111,916,20,-55,659
1654,123,34,1000,-5,-155,697
1655,36,-62,1110,55,-115,519
1656,85,-70,945,-7,-129,556
1657,10,-204,1024,-13,-117,515
1658,8,-142,827,8,-10,222
1659,153,74,1062,-5,-4,495
1660,17,-210,1083,-9,-67,904
1661,-93,-349,504,-5,62,878
1662,-46,-4,1153,2,29,331
1663,-1,66,1021,-5,-43,265
1664,51,10,1079,-3,27,50
1665,240,226,980,-11,10,-356
1666,187,140,1045,-3,-4,-678
1667,235,59,848,1,6,-678
1668,128,-84,999,-7,-16,-255
1669,134,-129,741,-7,2,116
1670,214,170,1078,-13,0,386
1671,200,-79,970,-1,-35,497
1672,83,25,850,6,-37,324
1673,92,232,835,1,11,-12
1674,47,206,986,4,10,-647
1675,117,353,906,-13,-2,-1298
1676,99,230,959,-3,11,-2368
1677,249,165,1118,-13,31,-3122
1678,174,72,1006,-15,41,-3514
1679,253,-11,1161,-5,62,-3384
1680,146,-113,1114,-15,109,-3118
1681,101,-139,895,-41,64,-2684
1682,234,-41,1144,14,41,-1962
1683,129,70,938,-7,41,-1565
1684,116,-37,897,-29,-2,-1520
1685,-289,120,913,-46,17,-1928
1686,100,-164,1010,-11,15,-1735
1687,164,-18,1388,0,33,-1497
1688,41,81,989,-17,-49,-1598
1689,-47,34,983,0,35,-1235
1690,-23,-206,724,-23,-6,-1161
1691,-354,131,474,8,-76,-710
1692,214,-144,1353,6,-12,-307
1693,-37,-90,1326,16,-63,255
1694,-32,-189,365,-4,-37,154
1695,14,43,435,14,-65,85
1696,119,-3,1321,63,-106,249
1697,-24,-63,1006,-9,-108,263
1698,-216,21,1275,30,-76,5
1699,-52,-27,279,28,-94,228
1700,125,-90,1535,-17,-90,232
1701,-78,-72,1019,-39,-115,640
1702,-370,45,1543,12,-88,782
1703,-128,31,745,53,-51,1021
1704,-214,233,945,-48,-63,949
1705,-305,383,747,-4,-47,888
1706,-227,229,1089,-29,-41,675
1707,-177,83,873,-41,-20,257
1708,-195,282,1059,-4,-12,-147
1709,-160,243,1196,-23,-28,-452
1710,-257,266,956,6,-10,-565
1711,-118,110,1009,-2,-10,-372
1712,-193,71,804,0,-26,-417
1713,-247,200,977,8,-16,-71
1714,-202,225,1048,0,0,232
1715,-97,365,1008,-2,-2,157
1716,-7,-1,1009,-2,-2,29
1717,-459,127,996,-9,0,-26
1718,-302,206,1023,-4,2,-3
1719,-106,145,1017,-11,25,-22
1720,-271,208,927,-11,21,-147
1721,-185,178,1069,-7,-2,-206
1722,-210,221,1073,-9,43,-91
1723,-143,86,1120,-4,10,-73
1724,-140,109,977,-2,49,-149
1725,-193,138,1125,4,51,-210
1726,-69,44,1107,20,31,-176
1727,-144,282,820,-31,64,-176
1728,-98,153,1433,16,41,-100
1729,-168,147,1693,-46,47,-200
1730,-98,-41,997,45,109,-450
1731,-224,185,867,-23,90,-266
1732,20,80,1377,4,88,-397
1733,-386,77,731,16,72,-682
1734,-189,34,783,-45,88,-854
1735,-93,175,2048,4,115,-862
1736,-32,-12,771,-21,80,-796
1737,-26,-43,1023,-2,23,-831
1738,-250,-25,971,-15,97,-835
1739,-115,62,836,-2,10,-559
1740,-114,92,883,-19,78,-497
1741,14,25,1322,-17,-14,-544
1742,-223,190,811,-7,2,-616
1743,-63,-63,926,20,-43,-446
1744,-108,3,843,16,-20,-610
1745,237,-131,880,80,-30,-436
1746,43,-121,1389,26,-149,-622
1747,-82,-76,1121,41,-240,-348
1748,-219,120,552,8,-78,-157
1749,-107,-17,741,22,35,-231
1750,-350,273,1261,-5,33,-348
1751,143,-42,977,-27,-30,-89
1752,-87,-47,14,-11,-37,105
1753,-186,-152,818,2,11,113
1754,-267,62,898,10,39,85
1755,227,263,914,12,64,288
1756,-57,-42,1111,-19,49,454
1757,-20,-132,726,-27,25,327
1758,425,-432,1539,-9,-2,179
1759,-75,-100,750,-31,-10,46
1760,153,-84,851,-2,-53,-46
1761,-171,27,1026,-5,-221,-106
1762,181,-47,1183,37,-39,83
1763,19,45,1403,-29,66,50
1764,245,-62,1173,-29,121,-53
1765,549,-99,2048,-19,52,167
1766,462,-158,1997,-15,54,171
1767,-122,121,1143,-31,80,363
1768,324,64,1696,30,51,87
1769,439,43,1343,395,-84,652
1770,270,-51,927,157,10,534
1771,147,-139,1147,6,109,185
1772,304,-156,739,-158,-264,197
1773,133,-161,887,-78,-61,195
1774,204,-203,656,-119,-108,156
1775,299,-180,1180,53,60,116
1776,147,-102,744,26,19,156
1777,347,-230,1108,-5,-2,290
1778,371,-192,1175,-9,-10,366
1779,181,-182,916,-4,-6,482
1780,234,-90,979,-9,-8,443
1781,184,48,1011,4,4,216
1782,152,-65,984,16,15,169
1783,331,-178,989,12,10,77
1784,258,-238,950,24,25,-274
1785,280,-257,1002,16,13,-122
1786,260,-249,812,6,-2,17
1787,276,-286,920,18,15,36
1788,249,-203,793,73,74,-48
1789,222,13,890,112,148,-130
1790,237,-77,995,43,58,-59
1791,117,-11,1013,10,-45,38
1792,227,-56,688,-62,-41,66
1793,393,-201,567,18,-67,150
1794,-32,241,1597,-693,234,-460
1795,425,7,1114,-17,-37,458
1796,190,-201,1037,-35,-37,318
1797,298,-180,1316,10,-67,200
1798,282,-524,509,4,-55,308
1799,46,-268,348,8,-63,224
1800,160,-219,984,-2,-84,304
1801,223,-263,787,24,90,683
1802,-74,40,1027,-5,101,335
1803,214,31,1037,8,19,450
1804,-365,70,1678,-5,29,329
1805,259,-44,1215,26,-35,624
1806,190,3,899,34,0,413
1807,-295,139,1371,12,-45,482
1808,47,-255,313,-2,-51,552
1809,219,-70,1285,4,-57,656
1810,-64,-120,958,-33,-47,669
1811,0,55,979,26,-49,882
1812,-412,138,302,16,-18,978
1813,-280,-13,1924,10,49,1277
1814,-81,-1,1049,0,39,1365
1815,-59,-22,959,-11,99,958
1816,95,-27,1092,-27,213,878
1817,-249,351,1163,2,103,925
1818,108,167,1095,-9,15,1103
1819,-109,32,1262,-72,-16,642
1820,-37,170,819,8,49,595
1821,36,-151,951,-17,-26,990
1822,-248,73,662,-2,25,931
1823,-255,64,1150,18,-20,1126
1824,-349,381,1068,-23,-43,1187
1825,187,367,1024,-2,-6,1157
1826,-149,36,1188,-2,-61,820
1827,-351,162,717,-4,-39,950
1828,-191,249,1258,-11,-61,665
1829,-183,361,1128,-2,-74,589
1830,-196,71,1033,-4,-61,607
1831,17,550,1071,6,-53,595
1832,-271,287,884,-19,-55,618
1833,-331,389,1289,-9,-10,525
1834,-318,386,1117,-7,-16,536
1835,-338,303,1250,0,-6,474
1836,-279,374,1040,-2,-6,318
1837,-14,-4,980,-7,2,31
1838,-425,181,984,-2,0,27
1839,-291,207,1002,-9,11,468
1840,-171,293,1428,-7,17,673
1841,-187,329,1103,8,25,622
1842,-230,345,853,-19,35,458
1843,-160,296,1180,14,62,261
1844,-118,342,764,4,39,263
1845,-87,286,698,18,60,130
1846,-229,232,742,22,52,70
1847,-190,227,1243,18,39,-184
1848,-528,402,675,8,54,-303
1849,-216,314,601,0,56,-188
1850,-195,158,907,-9,13,-139
1851,-278,131,664,-9,45,-280
1852,-182,91,1095,-15,21,-409
1853,-244,168,792,8,-28,-399
1854,-132,52,1408,-2,0,-366
1855,192,-189,1102,12,8,-264
1856,52,-94,1135,32,-26,-315
1857,-241,245,898,12,-4,-300
1858,34,278,965,-2,-24,-102
1859,273,-6,932,16,-22,-132
1860,42,203,965,-7,-143,-622
1861,-191,151,887,14,-203,-569
1862,92,134,1002,-4,-98,-464
1863,-68,143,1023,-4,17,-587
1864,7,36,844,-25,4,-438
1865,84,-172,1015,-43,2,-448
1866,103,-171,1056,4,33,-635
1867,17,-121,1239,18,-14,-489
1868,-128,92,792,34,41,-419
1869,187,-164,839,-31,31,44
1870,6,89,1015,20,39,-243
1871,-96,223,254,-21,23,-186
1872,14,-239,1168,-19,29,-116
1873,-129,69,789,2,6,-253
1874,89,-134,1163,4,25,-71
1875,-9,-79,946,10,39,101
1876,160,-109,1096,-4,6,197
1877,-17,13,1041,30,0,314
1878,34,-7,872,0,-41,240
1879,28,-96,1034,-9,-108,50
1880,-151,-147,385,-2,-96,128
1881,840,-2048,2048,39,41,361
1882,-30,920,-2048,231,-98,-157
1883,45,-14,599,6,31,-46
1884,86,-257,797,0,51,5
1885,150,5,829,-2,52,132
1886,115,-129,957,-9,19,132
1887,79,-195,1139,-9,13,36
1888,78,-168,899,-17,39,-198
1889,10,-183,721,-47,15,-202
1890,334,-231,535,-570,-477,99
1891,200,-381,1351,-90,-37,245
1892,193,-146,903,-9,-4,335
1893,356,-173,1216,-84,-18,382
1894,106,-211,773,-11,6,282
1895,156,-200,947,88,11,337
1896,243,-189,992,28,-4,292
1897,196,-56,1006,-7,-6,208
1898,5,7,1009,28,8,11
1899,365,-304,995,49,13,7
1900,276,-280,1054,-15,-2,-468
1901,142,-308,1053,-54,-6,-735
1902,259,-352,1100,14,15,-134
1903,235,-153,1357,-60,-20,-57
1904,144,-234,1023,63,31,19
1905,212,-181,1101,84,49,165
1906,81,60,1172,348,355,167
1907,100,-295,779,30,-4,75
1908,152,-236,1179,6,-30,62
1909,149,-69,900,14,-14,-53
1910,279,-81,277,6,-6,-53
1911,73,-192,1046,-15,-41,130
1912,-253,111,1131,-15,-16,87
1913,255,-164,-1046,-349,-57,42
1914,-271,-12,552,-76,-18,-366
1915,372,94,1302,-9,-78,749
1916,33,-82,983,-7,-24,370
1917,32,-51,902,-9,191,173
1918,-55,-192,995,-6,90,357
1919,126,-36,1117,-17,13,531
1920,-9,42,651,30,6,159
1921,163,-100,839,-4,-22,288
1922,164,-31,598,0,-51,116
1923,-156,-256,1195,-6,0,325
1924,-398,15,2048,-2,-47,206
1925,349,-187,679,18,-24,542
1926,34,-343,770,-7,-32,478
1927,-157,-365,955,-2,-39,327
1928,325,-110,1077,-19,-37,618
1929,-159,-89,548,0,10,208
1930,-59,240,781,2,37,560
1931,12,269,1312,-7,23,532
1932,110,12,882,16,-4,616
1933,3,-102,828,-4,90,407
1934,-62,152,1004,0,230,169
1935,159,301,1002,-7,146,437
1936,-78,138,818,-11,4,611
1937,225,-124,1184,12,15,954
1938,53,-78,895,14,-6,532
1939,-19,-303,1426,-27,11,363
1940,15,77,940,10,-14,659
1941,-138,152,848,-6,-8,896
1942,17,90,1283,-9,17,728
1943,-164,321,853,16,-30,825
1944,-412,118,695,-13,-41,738
1945,-30,393,1531,0,-30,673
1946,-163,-39,1008,-4,-55,724
1947,-466,244,638,-11,-73,599
1948,-210,127,1456,-52,-114,562
1949,-284,147,915,-35,-28,810
1950,-257,-23,733,-25,-67,812
1951,-419,82,989,-6,-37,931
1952,-209,311,647,-35,-49,824
1953,-263,360,904,0,-28,687
1954,-140,308,1115,18,-35,560
1955,-240,336,1015,-9,-30,439
1956,-186,344,1011,-7,-16,413
1957,-205,396,988,-2,-10,292
1958,-44,367,1005,-6,4,253
1959,-221,60,1007,-6,4,138
1960,-369,126,984,-19,15,163
1961,-331,158,899,-25,37,404
1962,-330,224,724,-15,33,318
1963,-187,396,1220,-15,37,269
1964,-221,380,795,0,29,46
1965,-369,283,863,22,51,-204
1966,-208,224,994,-19,29,-333
1967,-90,130,1043,2,93,-343
1968,-45,203,832,32,27,-458
1969,-561,227,-41,32,74,-454
1970,-25,-29,1626,24,11,-444
1971,-135,293,970,-13,95,-589
1972,-229,304,857,-6,51,-647
1973,-68,295,991,14,2,-807
1974,25,-64,1109,-6,41,-696
1975,-72,48,1007,-9,0,-956
1976,-230,278,401,2,-8,-897
1977,-126,-18,995,12,-12,-827
1978,-132,216,993,4,-4,-821
1979,-4,-32,1047,20,-6,-907
1980,-110,-9,1027,-13,-20,-1063
1981,152,-6,1179,-9,-20,-739
1982,71,-111,987,-7,-37,-688
1983,-23,-121,725,-23,-145,-1034
1984,-19,27,1028,-4,-172,-852
1985,271,-132,1287,-4,-96,-643
1986,-91,-81,1359,-4,-30,-528
1987,-1,222,1079,24,15,-538
1988,99,-175,1130,-5,21,-510
1989,-91,-128,853,-2,0,-917
1990,77,-16,1277,-33,-22,-626
1991,-84,135,944,-2,39,-540
1992,271,-119,757,0,56,-149
1993,17,-11,1469,20,17,-423
1994,108,42,1173,-11,49,-200
1995,293,-262,996,-4,37,13
1996,106,-207,1074,-39,-8,-9
1997,140,-163,971,14,21,142
1998,169,-130,1109,0,27,208
1999,278,-256,948,6,6,105
2000,101,-111,1033,0,11,56
2001,120,-248,1057,-7,-22,34
2002,58,-207,976,-15,-41,-20
2003,229,-258,1025,-9,-59,1
2004,167,-187,967,-25,-149,79
2005,277,-171,1040,-9,-22,142
2006,376,-272,1367,2,13,241
2007,102,-191,872,-2,10,228
2008,268,-214,944,0,15,79
2009,110,-104,1008,6,21,25
2010,161,-58,1063,8,29,167
2011,183,7,992,6,8,181
2012,-1,2,1020,6,6,25
2013,162,-195,1003,2,11,-18
2014,229,-213,986,-2,8,-737
2015,168,-193,1021,-9,0,-835
2016,186,-366,922,0,13,-466
2017,111,-169,1007,4,10,-239
2018,102,-113,960,14,19,79
2019,103,-304,774,0,25,75
2020,11,36,915,4,52,15
2021,196,-72,1046,0,25,187
2022,218,-29,958,-4,0,-7
2023,117,-66,1106,-2,10,-218
2024,124,-172,1028,12,10,-173
2025,232,-135,866,12,13,-20
2026,152,-193,966,-11,-6,-85
2027,-174,187,1438,-9,-20,-10
2028,117,-74,1093,6,-14,167
2029,56,6,836,-15,-33,187
2030,152,-60,1792,-9,23,128
2031,151,-190,410,-7,-30,48
2032,68,2,1041,6,-45,318
2033,-85,-29,613,-9,-37,366
2034,156,-239,1102,-7,-8,197
2035,-49,-61,865,-2,-31,79
2036,241,-154,1153,-15,-33,546
2037,91,-239,1101,-7,41,44
2038,7,4,1798,-29,-2,361
2039,185,-70,902,4,8,560
2040,126,-171,737,-15,23,585
2041,144,-192,1211,-7,-8,478
2042,-106,-122,789,4,86,322
2043,-24,-18,785,-2,174,372
2044,-139,-149,707,26,156,368
2045,-30,95,1060,0,19,572
2046,217,24,737,6,6,642
2047,89,-141,923,12,-22,284
2048,-42,-119,698,-17,27,236
2049,-40,60,965,-27,-8,265
2050,145,-99,1401,0,10,970
2051,-271,142,1096,-5,-6,431
2052,181,-105,1231,4,-4,620
2053,-194,156,965,-9,-47,632
2054,-310,51,945,-4,-14,681
2055,-203,23,1248,0,-65,597
2056,-40,-291,1232,-25,-47,497
2057,-142,111,804,-50,-96,265
2058,83,188,1698,-25,-74,534
2059,147,19,1122,-2,-84,734
2060,-21,-88,1444,-27,-74,579
2061,-122,92,755,16,-71,599
2062,-254,34,797,59,-108,751
2063,-79,208,1193,-58,-45,579
2064,-301,258,1081,-27,-96,704
2065,-353,203,1042,-5,-88,751
2066,-53,550,806,-13,-20,634
2067,-194,409,1027,0,-28,368
2068,-112,301,1072,8,-24,56
2069,-158,388,1044,0,-51,-26
2070,-228,288,920,-2,-24,60
2071,-176,266,921,-4,-2,-112
2072,-186,254,1079,-5,-6,29
2073,-156,282,1072,-7,-6,148
2074,-9,251,1014,-2,-4,191
2075,1,-6,1001,-4,-4,11
2076,-400,249,1020,-7,8,31
2077,-195,236,995,0,17,445
2078,-258,335,977,-6,6,347
2079,-182,360,866,-9,23,154
2080,-251,323,907,-4,74,46
2081,-183,103,1043,-35,37,-9
2082,-269,319,718,-9,21,-208
2083,-210,749,860,24,8,-184
2084,-69,156,1359,-6,115,-108
2085,-182,158,556,-21,92,-110
2086,141,292,1013,24,74,-147
2087,-3,305,742,-29,90,-284
2088,-46,282,995,4,43,-458
2089,-336,28,2048,37,56,-602
2090,-338,235,1281,37,58,-684
2091,-57,-163,1120,-2,68,-817
2092,-4,122,1305,30,111,-913
2093,-343,321,882,35,60,-749
2094,-245,187,920,0,109,-608
2095,-37,47,1244,22,19,-639
2096,42,129,1165,-6,45,-587
2097,7,-139,1037,-15,-10,-821
2098,-66,92,755,10,2,-747
2099,-94,143,1006,2,-14,-678
2100,-2,104,1058,16,-24,-604
2101,-361,238,1017,2,-47,-823
2102,42,16,1157,18,0,-421
2103,9,-168,996,-15,-86,-471
2104,-143,98,835,-27,-246,-671
2105,-41,172,1199,-39,-123,-395
2106,47,17,1272,-9,-6,-135
2107,-97,3,1019,22,-8,-471
2108,155,41,795,20,21,-718
2109,95,-291,943,24,2,-801
2110,-141,-87,721,24,0,-993
2111,107,-162,1417,-23,58,-157
2112,23,-2,957,-35,33,-149
2113,104,-57,1098,-2,35,-126
2114,-223,-227,933,-13,47,-102
2115,340,-191,888,-19,-18,-149
2116,135,-210,1213,-13,33,-190
2117,165,-328,1016,0,13,-163
2118,104,-186,992,-21,-14,-155
2119,143,-202,1035,-17,-51,-385
2120,84,-45,882,-9,-53,-315
2121,281,-117,945,-29,-55,-272
2122,244,-269,935,4,-22,-159
2123,262,-415,956,0,35,-143
2124,210,-179,1024,16,41,-118
2125,426,-186,1177,6,45,-165
2126,309,-312,1145,6,10,-241
2127,142,-171,1036,6,23,-266
2128,282,-261,1089,-19,19,-32
2129,161,-212,1073,-8,6,-87
2130,149,-175,1003,4,4,-102
2131,262,-150,1004,8,2,48
2132,1,-4,1000,0,-2,5
2133,64,-37,1000,2,2,1
2134,491,-277,995,-2,-4,-239
2135,62,-172,1005,-8,-14,-876
2136,235,-215,980,14,-12,-555
2137,188,-289,927,2,-22,-190
2138,122,-259,1050,-15,-16,-382
2139,331,-308,1510,-15,-18,-399
2140,267,-203,836,6,-24,-227
2141,147,-115,979,0,21,-305
2142,177,-310,1091,-6,11,-286
2143,-24,-4,1060,4,35,-120
2144,230,-91,898,6,25,169
2145,618,-340,1013,12,21,159
2146,-28,-64,1191,24,31,-387
2147,145,-34,1153,-17,-8,-243
2148,146,-197,1451,2,-6,44
2149,127,-173,1147,-6,-39,-81
2150,27,-152,1154,12,27,-100
2151,186,-485,1692,16,-51,48
2152,301,-215,1124,24,-55,308
2153,60,-293,1444,-9,-26,230
2154,-163,137,807,-17,-37,240
2155,264,-130,567,14,-37,392
2156,-197,-26,1181,6,4,19
2157,4,122,983,-9,11,343
2158,-171,-269,1207,-9,23,745
2159,-119,-128,1009,-2,23,763
2160,139,-115,1128,30,45,865
2161,-26,-149,1157,26,115,822
2162,-207,-154,874,16,113,775
2163,-77,36,1059,14,119,769
2164,-30,-14,943,-23,0,876
2165,-23,14,824,8,23,945
2166,-54,34,780,-6,11,947
2167,126,-232,678,-17,27,601
2168,-113,327,851,4,-12,751
2169,46,-196,700,10,8,1282
2170,-9,6,1151,-15,17,628
2171,23,148,491,16,10,894
2172,41,183,1298,6,-28,1324
2173,-171,219,790,0,-24,1273
2174,89,65,957,0,-57,1029
2175,-149,255,1219,-11,-59,958
2176,-120,251,847,-19,-71,1038
2177,-76,357,1014,-58,-82,829
2178,83,385,818,28,-53,687
2179,-64,351,842,-54,-61,546
2180,-85,385,1193,-8,-37,560
2181,-293,48,544,-54,-28,384
2182,61,481,772,-31,-43,255
2183,16,227,984,32,-74,472
2184,-130,234,662,33,-53,503
2185,-155,321,952,-41,-35,316
2186,-190,413,966,-13,-22,353
2187,-232,499,1011,4,-24,337
2188,-247,430,1022,-11,-22,312
2189,-278,295,1015,-21,-6,161
2190,-6,-9,1003,-66,39,19
2191,-86,145,1005,-13,2,-28
2192,-243,304,987,6,2,-120
2193,-281,416,933,-76,64,-67
2194,-215,456,758,-62,60,-71
2195,-215,373,1120,-6,41,-155
2196,-233,403,85,8,54,-251
2197,10,108,1171,32,21,-339
2198,-217,221,1067,32,47,-438
2199,-147,400,541,32,23,-421
2200,-338,345,295,4,82,-651
2201,-221,307,1418,22,47,-630
2202,-47,270,478,-8,64,-577
2203,-73,409,1122,92,51,-719
2204,-168,313,1383,22,84,-675
2205,-41,128,618,-2,88,-698
2206,-161,139,1388,-4,17,-710
2207,-132,165,1096,10,49,-833
2208,-63,247,618,-13,6,-946
2209,-127,-33,994,6,15,-884
2210,-281,87,879,2,-45,-1384
2211,-113,164,977,28,-16,-1374
2212,-288,48,961,-2,-51,-1110
2213,-76,66,907,-10,-61,-856
2214,-80,52,685,-10,-115,-770
2215,-149,80,1212,-15,-268,-1051
2216,-173,69,1138,-4,13,-757
2217,109,21,1180,-6,25,-589
2218,-12,112,1180,2,17,-686
2219,315,-300,1993,-21,17,-796
2220,6,-198,1309,-8,-14,-1276
2221,-90,209,1045,-4,66,-1194
2222,65,215,761,-15,19,-509
2223,92,21,1159,0,45,-399
2224,54,117,734,-8,51,-106
2225,228,-384,1013,16,19,-92
2226,78,-164,1004,4,35,-92
2227,252,-176,1050,8,10,29
2228,90,-162,959,-19,-47,-126
2229,270,-244,1087,-8,-53,-341
2230,304,-307,1054,-33,-65,-348
2231,16,-277,774,-8,-22,-153
2232,323,-273,954,24,37,-163
2233,-45,-303,700,10,45,-134
2234,129,-301,913,4,33,-370
2235,147,-196,670,-6,17,103
2236,243,-178,736,-11,33,241
2237,190,-239,840,10,33,189
2238,174,-337,762,8,19,154
2239,219,-265,966,-4,19,-3
2240,385,-482,1249,2,17,54
2241,263,-339,1005,-6,0,23
2242,4,4,1012,-2,-2,-1
2243,7,-16,1010,2,8,3
2244,352,-274,1023,0,0,189
2245,233,-308,963,2,-4,23
2246,143,-296,1052,-2,-10,-26
2247,228,-414,916,0,-24,230
2248,200,-409,976,-13,-6,351
2249,117,-292,995,-10,-16,570
2250,61,-242,838,4,-28,609
2251,89,-140,936,-6,-18,388
2252,30,-186,1058,8,-18,409
2253,-119,-148,775,-11,-20,378
2254,-96,-219,1051,-11,2,226
2255,180,-185,1245,-8,2,452
2256,-41,-174,975,8,17,570
2257,-91,-270,1014,14,15,562
2258,15,-405,988,22,35,740
2259,69,-332,935,14,33,812
2260,-77,-197,928,4,21,935
2261,83,-255,911,12,-20,941
2262,93,-583,-196,14,-2,859
2263,-72,-31,1228,-6,8,933
2264,75,-86,859,-10,-12,921
2265,-94,-123,933,-25,-10,1005
2266,-109,-153,971,-13,-26,1245
2267,-37,-180,1232,4,-14,1222
2268,-74,-318,1246,-8,-4,1292
2269,-29,-335,1262,4,-6,1474
2270,-216,-66,810,-31,15,1560
2271,-127,-66,1414,-15,10,1734
2272,-136,266,1120,-23,2,1874
2273,-59,107,1222,14,4,1796
2274,-35,94,452,12,0,1761
2275,-50,-21,1178,28,6,1722
2276,80,26,1011,-6,4,1716
2277,-36,102,1027,8,6,1800
2278,-44,109,1053,23,-18,2021
2279,38,64,1145,33,2,2074
2280,-38,25,894,-16,2,2019
2281,10,260,1236,16,17,2056
2282,27,159,839,10,8,2181
2283,-148,93,1314,-8,13,1962
2284,44,201,551,4,9,1880
2285,96,242,878,0,13,1900
2286,-43,361,946,8,8,1695
2287,46,482,1235,0,6,1384
2288,98,377,722,10,2,1263
2289,67,626,1080,4,6,1128
2290,127,801,1341,4,6,896
2291,211,592,954,14,2,839
2292,153,610,1067,0,2,779
2293,56,597,1074,8,-2,486
2294,145,87,1011,-4,6,376
2295,-7,7,1003,-8,2,11
2296,18,40,1011,-14,0,3
2297,86,348,978,-10,4,267
2298,83,435,1004,0,4,829
2299,43,509,1127,-2,4,464
2300,85,539,1098,2,4,839
2301,36,265,1002,2,6,218
2302,10,244,915,0,-8,48
2303,7,256,1005,-4,-4,-7
2304,83,276,977,-4,-6,-32
2305,77,525,1157,-2,0,-106
2306,-25,346,1034,-14,-8,-372
2307,204,354,997,-2,-4,-428
2308,138,393,876,2,-10,-581
2309,111,280,1243,-2,-6,-921
2310,119,174,1127,0,-8,-1274
2311,34,174,1087,-4,-18,-1723
2312,-140,112,687,2,-8,-1930
2313,110,176,1131,10,-16,-1880
2314,66,32,1150,-6,-6,-1719
2315,0,131,791,-45,-8,-1680
2316,-34,181,702,-21,-10,-1542
2317,-17,-23,1033,2,-18,-1444
2318,-25,-66,1138,-4,-18,-1337
2319,77,105,1201,-25,-2,-1206
2320,69,74,1081,-21,-6,-948
2321,60,14,1289,-2,-6,-1130
2322,32,-57,1341,0,-10,-1313
2323,-1,0,975,-2,-12,-1333
2324,94,-189,1145,-6,-12,-1399
2325,92,-12,1303,0,6,-1550
2326,-7,-248,1213,23,-12,-1419
2327,-53,-262,1344,0,2,-1630
2328,-44,-193,613,-14,-22,-1393
2329,44,-215,907,-2,-8,-1155
2330,73,-182,958,-4,-8,-1114
2331,107,119,1052,-12,0,-1171
2332,-33,-305,1343,0,11,-1116
2333,-17,-98,660,10,-16,-1012
2334,-36,-279,1153,-25,-10,-1233
2335,-66,-116,1307,-14,-14,-1229
2336,-88,-378,1211,-6,-18,-1305
2337,128,-555,1422,-14,-12,-1184
2338,-14,-489,739,-2,-4,-958
2339,-34,-200,991,-2,0,-829
2340,-89,-345,862,-16,0,-944
2341,-57,-600,1127,-4,-4,-844
2342,16,-342,1127,-2,-6,-776
2343,-25,-462,1050,2,-4,-509
2344,-18,-429,985,-4,-8,-428
2345,22,-304,964,-2,0,-348
2346,29,-428,1032,-4,-2,-151
2347,5,-6,1005,-2,0,-50
2348,-2,-3,997,0,2,-1
2349,26,-55,1000,2,0,7
2350,52,-263,1055,-2,0,-247
2351,-8,-117,1007,-8,-6,-893
2352,65,-359,940,-2,-4,-684
2353,-16,-354,993,-18,8,-676
2354,50,-354,1025,-14,-6,-389
2355,4,-392,1286,-4,2,-65
2356,-7,-461,879,0,2,-5
2357,25,-122,613,-2,-4,40
2358,-68,-193,1139,4,-4,400
2359,33,-288,1289,4,0,290
2360,36,-326,509,-16,-4,52
2361,5,-192,1136,-10,2,226
2362,-70,-230,1226,4,4,464
2363,-89,-339,936,0,2,550
2364,-68,-356,917,-4,17,693
2365,15,-506,956,-2,11,726
2366,26,-373,924,-14,13,808
2367,51,-255,1368,-25,9,917
2368,57,-250,953,6,6,652
2369,32,-103,847,4,-14,579
2370,-186,-248,777,-2,2,757
2371,38,53,1042,-18,11,749
2372,78,47,1186,-18,9,1017
2373,-40,-103,831,2,2,990
2374,56,-84,1214,-2,-2,1220
2375,41,-224,1205,4,2,1310
2376,-136,-190,1340,-4,11,1454
2377,15,-124,1152,4,21,1697
2378,13,-110,1145,0,13,1527
2379,-158,58,1162,-2,13,1408
2380,-43,-9,931,6,19,1243
2381,-109,-85,993,20,6,1072
2382,-54,217,958,-2,8,886
2383,-93,282,890,-8,19,843
2384,-193,153,1010,8,15,671
2385,-22,169,998,0,17,499
2386,47,169,699,4,13,556
2387,116,232,811,-10,17,870
2388,27,218,1197,0,0,1140
2389,-20,154,1196,12,4,1167
2390,143,358,1125,0,13,1060
2391,40,341,1049,2,2,818
2392,39,390,924,-6,2,552
2393,19,373,1060,0,11,339
2394,112,365,1076,-6,2,38
2395,43,492,938,-12,11,-194
2396,99,446,1029,4,6,-360
2397,110,356,955,0,4,-184
2398,167,443,1028,8,-4,-134
2399,141,465,1040,18,-8,56
2400,106,151,1008,22,-16,120
2401,8,0,1011,-12,8,5
2402,-3,16,1007,-39,23,5
2403,218,326,996,-39,19,36
2404,-28,235,1001,4,0,527
2405,53,291,978,0,-4,533
2406,36,381,1008,2,-2,396
2407,49,393,997,0,0,345
2408,51,398,1061,-2,-2,126
2409,54,239,972,-2,-12,-108
2410,206,228,1093,6,-10,-200
2411,83,251,1024,4,2,-233
2412,121,208,840,4,-6,-311
2413,104,148,996,2,-8,-276
2414,48,180,1078,2,-4,-395
2415,231,397,1130,-2,-4,-456
2416,59,238,1072,10,-10,-532
2417,240,-24,1557,-2,-2,-421
2418,-7,141,1061,2,-14,-368
2419,50,143,941,6,-4,-333
2420,52,317,1086,2,-8,-473
2421,43,266,958,-2,-16,-385
2422,-52,58,1249,0,-12,-700
2423,-48,112,986,-16,-10,-901
2424,174,358,1386,6,-10,-956
2425,119,225,1390,0,-12,-1057
2426,28,209,1211,-2,-28,-1401
2427,-1,-81,1237,-10,-22,-1384
2428,-112,-104,1125,-19,-18,-1548
2429,-74,-72,871,16,-14,-1421
2430,40,5,2048,2,-16,-1389
2431,-194,-185,400,2,-16,-1333
2432,4,-35,979,-19,-2,-1436
2433,44,174,1492,-4,6,-1440
2434,-104,-182,749,0,-16,-1528
2435,-2,-346,856,-10,-39,-1682
2436,39,118,631,4,0,-1587
2437,100,164,228,-19,0,-1415
2438,-54,-207,603,-14,0,-1196
2439,78,-384,991,4,-4,-1235
2440,13,-563,1187,-16,-20,-1540
2441,34,81,1000,-8,-14,-1561
2442,-12,-229,915,-2,-12,-1231
2443,-219,-617,1516,-10,-4,-1421
2444,60,-462,1358,-2,-6,-1378
2445,-1,-21,1085,-4,-12,-1067
2446,19,-174,965,-2,-10,-1051
2447,-69,-246,1041,-19,-12,-1028
2448,16,-531,783,-10,-10,-708
2449,-80,-405,1277,2,-12,-614
2450,4,-422,693,4,-4,-540
2451,22,-370,844,0,11,-305
2452,-43,-440,918,0,6,-214
2453,-20,-433,959,-8,-2,-190
2454,-54,-487,995,-10,2,-108
2455,-81,-590,943,0,-2,54
2456,-137,-328,1012,0,4,152
2457,68,-34,984,2,25,152
2458,17,-172,1004,8,-8,447
2459,38,-185,1024,0,-26,150
2460,30,-224,1024,-6,-4,-282
2461,15,-260,948,-4,4,-382
2462,17,-278,995,-6,4,-364
2463,2,-322,972,-2,0,-257
2464,51,-443,1035,-10,2,-81
2465,-34,-478,921,-4,2,122
2466,72,-466,993,0,8,386
2467,-85,-263,931,-4,11,605
2468,-11,-158,1207,-6,13,616
2469,-76,-165,1165,10,9,534
2470,-43,-366,1103,8,9,661
2471,57,-392,976,-2,-14,773
2472,-188,292,1740,-2,0,827
2473,-46,-163,1290,-4,15,929
2474,-51,-168,1129,4,21,988
2475,-142,-192,898,0,4,1079
2476,-45,-354,1302,2,33,1064
2477,-122,157,1285,0,35,1066
2478,-38,-55,1101,-10,19,1038
2479,-63,-22,906,-14,-2,1013
2480,44,-22,900,8,9,841
2481,-1,39,1173,2,-18,769
2482,-33,13,855,6,43,884
2483,93,-180,1181,-16,21,1154
2484,-132,-14,938,-4,19,1382
2485,-33,-273,1072,-8,52,1435
2486,-72,135,885,35,66,1380
2487,-16,-30,923,39,29,1466
2488,-100,16,883,-21,0,1304
2489,-24,138,910,-19,-37,1152
2490,-42,220,1038,-6,50,812
2491,92,146,1069,14,62,634
2492,56,80,1070,10,31,767
2493,19,255,1212,-17,19,878
2494,117,-169,1033,-8,11,1052
2495,5,-23,975,-2,15,1234
2496,15,-111,874,12,49,1534
2497,-39,-91,672,12,19,1773
2498,72,179,996,-2,0,1870
2499,65,51,1122,-4,-26,1890
2500,-59,275,1065,-17,-2,1796
2501,-28,305,1141,14,23,1859
2502,-9,254,762,6,13,1702
2503,126,356,821,6,27,1329
2504,181,314,1201,-8,-10,1173
2505,83,300,949,4,21,980
2506,172,459,1150,0,17,919
2507,104,670,1097,0,13,775
2508,82,466,1000,-6,-8,714
2509,167,675,1066,0,2,419
2510,159,700,981,12,11,290
2511,-30,484,990,2,15,113
2512,348,188,996,-10,33,-24
2513,115,242,962,-4,8,-509
2514,109,309,1003,-2,-8,-188
2515,76,290,1023,-12,-8,87
2516,7,202,996,0,-10,232
2517,27,225,1045,4,2,210
2518,51,306,984,2,0,99
2519,155,315,825,2,-16,-7
2520,51,197,1043,6,-20,-249
2521,234,407,1013,0,-24,-540
2522,1,324,896,8,-14,-698
2523,122,355,1036,2,-2,-643
2524,-13,302,918,2,4,-735
2525,132,355,1092,0,11,-938
2526,18,378,878,-10,4,-1225
2527,33,244,1138,8,-4,-1440
2528,39,227,1239,4,6,-1616
2529,73,244,717,10,19,-1708
2530,14,162,1117,-2,-12,-1768
2531,52,92,1001,-14,-14,-1790
2532,-106,188,941,-10,0,-1803
2533,-33,252,844,4,-22,-1829
2534,82,-120,801,2,-22,-1860
2535,27,243,1158,-6,27,-1866
2536,-67,87,1231,-16,-12,-1940
2537,-49,107,873,2,-4,-2096
2538,55,-110,1070,24,0,-1946
2539,-79,40,921,-6,4,-1866
2540,-41,-102,1135,-25,-10,-1835
2541,40,-139,804,2,-18,-1684
2542,-120,-154,1005,20,-4,-1620
2543,88,-226,1392,6,19,-1624
2544,-217,-8,774,-12,15,-1665
2545,-53,-145,1028,-4,-6,-1540
2546,-166,-178,915,4,-39,-1563
2547,66,-173,1003,2,-26,-1507
2548,-88,-111,803,4,-22,-1348
2549,-89,38,815,-6,-4,-1192
2550,-45,-120,906,2,4,-1163
2551,-89,22,873,-16,-28,-1118
2552,-40,-135,819,2,6,-1122
2553,-30,-67,1051,14,-43,-1149
2554,59,-8,946,4,-22,-1300
2555,102,-166,919,-2,-12,-1274
2556,126,-86,783,-25,0,-1221
2557,-8,-360,958,-45,27,-1094
2558,8,-414,1105,-17,47,-1067
2559,-43,-326,1092,-8,58,-1020
2560,-49,-274,891,-37,52,-1026
2561,-11,-249,937,-8,50,-1036
2562,-24,-354,758,-39,4,-1208
2563,76,-375,1183,-10,21,-1288
2564,144,-325,1071,-12,9,-999
2565,48,-291,1018,-25,-12,-690
2566,75,-475,1188,-12,-4,-759
2567,61,-381,1033,-8,8,-895
2568,40,-507,1132,-6,0,-671
2569,135,-305,984,-12,-8,-503
2570,18,-225,1131,-4,-4,-409
2571,117,-264,1039,-2,-10,-464
2572,163,-314,804,-2,-4,-481
2573,14,-332,953,2,-14,-542
2574,77,-388,1158,8,-14,-423
2575,34,-301,1079,14,0,-311
2576,-31,-529,998,-8,-30,-178
2577,95,-435,1155,4,2,-67
2578,-40,-363,970,16,0,173
2579,-64,-377,1058,-29,0,134
2580,34,-337,897,8,-6,146
2581,-193,-439,1017,45,33,552
2582,-67,-289,661,0,17,490
2583,-101,-220,1470,18,6,769
2584,153,-397,741,57,-28,851
2585,-26,-239,1297,12,8,710
2586,-38,-522,1107,-8,15,806
2587,-111,-99,813,35,-4,949
2588,1,-251,1006,6,-16,1505
2589,-129,-218,1075,-15,-18,1566
2590,-115,-224,1107,-19,-6,1620
2591,2,-202,985,-19,19,1538
2592,14,124,924,14,6,1775
2593,-231,56,1297,-2,-16,1876
2594,-163,-16,979,14,-6,1884
2595,-109,-40,868,12,-10,1716
2596,-56,72,1030,-2,21,1536
2597,-27,169,1300,18,0,1714
2598,19,-18,1010,14,-37,2095
2599,70,-150,1052,-14,-20,2031
2600,15,35,954,-12,19,2202
2601,-62,46,1072,8,6,2339
2602,-20,314,1086,12,21,2329
2603,-255,153,1176,10,6,2281
2604,-104,158,1059,-25,13,2036
2605,-160,-23,1122,-17,-6,2105
2606,-43,207,1446,-4,9,2019
2607,-33,97,1230,2,2,2062
2608,-126,-12,932,2,-18,2048
2609,116,290,1093,-10,-10,2075
2610,28,184,884,-10,-49,2286
2611,99,251,951,2,-49,2159
2612,68,111,1121,8,-6,1978
2613,151,307,1045,-2,-14,1816
2614,160,458,1037,6,39,1673
2615,132,416,796,-12,-4,1628
2616,128,428,1062,4,-20,1503
2617,120,259,972,-10,2,1359
2618,79,286,976,-10,-14,1161
2619,132,445,1091,8,-8,1161
2620,310,378,1051,-6,-12,1115
2621,222,414,1074,-4,-10,986
2622,117,379,890,-6,-30,964
2623,189,426,1042,2,0,943
2624,202,386,1000,-2,2,765
2625,230,140,968,-6,0,790
2626,52,116,996,-4,0,443
2627,59,251,994,8,11,359
2628,121,418,945,0,8,470
2629,127,413,983,2,8,503
2630,96,595,882,6,11,529
2631,99,305,817,8,6,378
2632,168,117,1109,10,6,468
2633,-5,142,930,0,-6,589
2634,72,278,1064,4,-4,720
2635,95,230,1033,4,-2,824
2636,123,415,1036,10,2,759
2637,113,605,1022,-8,-18,472
2638,-133,250,1037,-2,-20,214
2639,47,219,973,-10,-2,-231
2640,28,253,1073,-6,0,-602
2641,15,234,957,-2,4,-676
2642,124,-38,1414,-6,-14,-692
2643,-6,-30,1419,4,-18,-817
2644,5,263,1265,4,-16,-952
2645,-89,-12,1080,-4,-8,-1141
2646,73,124,1087,-12,-14,-1426
2647,34,204,1003,-21,-10,-1436
2648,-4,232,1114,10,-28,-1331
2649,0,86,1131,14,-26,-1688
2650,-11,-137,1134,8,-16,-1692
2651,-95,60,892,-10,0,-1452
2652,3,-98,989,-17,0,-1253
2653,-14,-111,738,12,-16,-1364
2654,-76,96,1152,6,-16,-1305
2655,0,-150,1099,-23,-4,-964
2656,-63,-18,755,-15,-8,-1055
2657,51,-75,999,-10,17,-1173
2658,6,-50,1042,-4,9,-1192
2659,62,-155,1096,4,-14,-1514
2660,-25,34,1020,6,2,-1581
2661,50,-127,1058,-29,-6,-1503
2662,65,-130,1044,-8,-16,-1563
2663,2,-227,996,-4,2,-1426
2664,81,-296,839,8,-6,-1425
2665,-66,-175,926,0,2,-1153
2666,-56,-159,1003,-12,-6,-919
2667,-71,-279,999,-41,13,-907
2668,-17,-414,791,0,2,-923
2669,106,-375,883,8,-8,-942
2670,-79,-230,778,-2,-10,-909
2671,109,-430,1009,-8,6,-899
2672,147,-496,1178,-8,9,-737
2673,129,-365,1143,-8,4,-581
2674,43,-341,1007,-2,0,-255
2675,53,-312,950,-2,-4,-157
2676,33,-313,1008,-2,0,-251
2677,51,-173,1015,-4,4,-321
2678,97,-98,1013,6,2,-202
2679,108,-84,1045,0,-6,-385
2680,28,-108,1014,-2,-8,-536
2681,218,-282,939,-2,-10,-526
2682,113,-294,1082,-2,-8,-587
2683,154,-383,1221,2,-12,-559
2684,89,-363,1073,-21,-18,-430
2685,57,-354,966,-6,2,-538
2686,69,-235,840,-2,-16,-483
2687,66,-93,964,-16,-28,-341
2688,144,-231,885,0,-16,-331
2689,-23,-182,1085,2,6,-456
2690,-29,-197,1105,0,-4,-272
2691,51,-372,1008,10,11,-169
2692,-153,-199,1398,-14,-8,48
2693,32,-191,896,-12,11,261
2694,-120,-157,1173,4,8,286
2695,-29,-334,889,-2,8,402
2696,-113,-395,1029,24,0,499
2697,-51,-558,628,-14,29,609
2698,106,-391,1206,0,68,599
2699,-62,-96,998,6,60,814
2700,-107,-264,1200,2,93,775
2701,-78,-161,1023,8,111,689
2702,-70,-151,916,8,21,872
2703,-95,-263,998,24,4,954
2704,-35,-113,1046,8,0,1294
2705,-113,-46,892,-12,45,1415
2706,-104,32,895,-16,9,1523
2707,-160,-86,1128,-19,11,1577
2708,-118,249,1383,27,2,1288
2709,-86,159,959,14,21,1402
2710,-95,94,1169,-2,-2,1089
2711,-378,-44,753,-6,-10,1161
2712,-58,150,467,-8,9,1325
2713,-41,-24,962,6,15,1659
2714,-69,-81,773,10,-10,1824
2715,-247,85,896,-2,-2,1906
2716,61,90,432,-8,17,1896
2717,-177,263,831,0,19,1767
2718,147,335,1101,16,-4,1531
2719,-15,306,1447,25,19,1031
2720,161,430,1051,8,-30,802
2721,120,387,1032,-18,-35,874
2722,110,207,934,-8,-32,995
2723,140,263,1097,-2,-6,986
2724,379,357,854,-8,17,1122
2725,95,512,1020,0,-4,1216
2726,94,423,1004,-2,-4,1177
2727,171,485,990,4,4,988
2728,138,509,986,8,11,749
2729,267,348,994,-2,-12,499
2730,28,-13,1001,-6,-16,298
2731,85,349,996,2,31,-34
2732,188,383,982,4,15,99
2733,112,410,956,-4,-6,120
2734,118,333,1032,-2,-2,134
2735,100,218,954,-2,-6,11
2736,6,41,1190,-2,-10,11
2737,29,162,1101,4,-8,36
2738,113,261,1196,2,-2,113
2739,4,351,1185,2,-14,44
2740,111,186,1093,-2,-18,40
2741,115,235,1005,10,19,-219
2742,169,342,985,2,-22,-309
2743,13,225,978,-8,4,-300
2744,69,155,1030,-8,-18,-499
2745,81,99,1035,0,-2,-550
2746,19,36,865,-4,-4,-659
2747,-10,169,1126,-6,-16,-729
2748,-48,112,920,4,-30,-632
2749,-196,63,1101,18,15,-528
2750,-132,153,1342,-4,4,-729
2751,-66,152,953,-27,-20,-831
2752,-17,216,918,-16,-33,-782
2753,-17,235,891,-14,-71,-839
2754,-142,280,978,6,-45,-885
2755,-32,92,1032,2,-24,-1007
2756,-92,0,1121,-10,-26,-1016
2757,-47,-63,1166,-6,-8,-1055
2758,-80,220,1090,-10,-30,-1130
2759,-62,198,928,2,-18,-1175
2760,52,-13,990,0,-22,-1171
2761,-38,47,988,20,-10,-1114
2762,-71,88,785,-19,-6,-1155
2763,-17,37,1226,-12,-32,-1231
2764,-127,105,891,-2,27,-1260
2765,-123,79,1041,0,19,-1368
2766,90,62,1050,29,-16,-1337
2767,94,-215,1127,-8,-24,-1335
2768,-77,-153,1067,-10,-20,-1385
2769,84,-186,1151,2,2,-1010
2770,-2,-71,1244,-2,-4,-885
2771,-50,-95,874,-2,-4,-905
2772,136,-86,751,16,-22,-1126
2773,-8,-244,662,-2,-20,-1173
2774,161,-129,352,-2,-14,-907
2775,-2,-74,954,4,-2,-1134
2776,101,-638,771,-25,-28,-1237
2777,1,-219,1073,-10,-12,-1280
2778,82,-224,996,-10,-16,-1415
2779,109,-191,1175,17,-30,-1274
2780,36,-294,877,-6,9,-1102
2781,110,-223,997,13,-10,-1182
2782,55,-231,1054,2,-2,-1106
2783,91,-280,1116,6,9,-1048
2784,23,-320,1087,2,17,-1098
2785,43,-263,901,-2,15,-960
2786,30,-259,1014,-14,11,-901
2787,49,-390,1017,0,17,-862
2788,10,-438,1075,2,0,-1001
2789,9,-381,1019,-8,7,-923
2790,55,-479,1079,0,-2,-747
2791,16,-393,990,-2,-6,-618
2792,-39,-292,984,-2,7,-462
2793,13,-13,999,-2,0,-38
2794,131,-257,1008,0,-4,-104
2795,22,-173,989,4,-10,-534
2796,118,-291,1017,-6,-8,-678
2797,101,-442,1019,-6,-14,-682
2798,-27,-299,931,-12,-22,-475
2799,100,-421,1012,-22,-16,-233
2800,-53,-326,781,-14,-12,-16
2801,16,-197,1079,-8,-8,36
2802,34,-191,1126,-2,-20,171
2803,-4,-272,863,2,-18,154
2804,132,-482,957,-2,4,171
2805,-132,161,1529,-2,-26,300
2806,-113,-284,702,-4,-6,325
2807,-25,62,1013,-28,25,335
2808,6,-525,1206,8,19,562
2809,-101,-124,1784,8,11,636
2810,188,-407,1073,-18,27,911
2811,109,-468,550,0,11,1187
2812,-110,-109,1084,-22,17,1212
2813,-196,118,700,6,25,1232
2814,-197,-52,991,15,21,1202
2815,-49,-114,907,-6,19,1097
2816,-134,295,957,-2,0,1122
2817,-14,-39,1518,8,11,1359
2818,-51,-419,783,4,0,1480
2819,-113,-57,1322,2,25,1413
2820,152,-42,804,4,6,1544
2821,63,32,876,-8,15,1618
2822,-41,108,1089,-10,7,1626
2823,12,27,1162,-2,-32,1671
2824,19,174,937,2,-20,1474
2825,-55,13,1186,6,0,1546
2826,-83,-127,982,-2,2,1585
2827,-97,-102,755,-10,11,1554
2828,-46,-116,1136,-2,39,1409
2829,19,45,992,-6,88,1331
2830,42,-5,815,10,-14,1632
2831,-5,307,859,0,4,1409
2832,-355,208,1138,-16,-2,1365
2833,21,111,1256,-2,11,1263
2834,87,161,878,-8,6,1158
2835,118,104,1152,12,50,886
2836,21,181,1287,10,9,911
2837,-27,83,906,0,-6,952
2838,-27,104,911,8,35,1079
2839,-62,149,940,-4,27,1261
2840,78,99,1137,0,2,1261
2841,34,281,998,4,45,1105
2842,85,394,969,-2,-16,1046
2843,-29,305,962,4,-2,816
2844,85,359,1027,-2,0,396
2845,23,428,980,-2,-2,-7
2846,59,461,1084,-2,0,-200
2847,151,386,1042,-6,-14,-362
2848,93,296,999,-4,-10,-481
2849,141,309,1040,-2,-12,-385
2850,149,311,980,-4,-8,-128
2851,118,310,995,4,2,158
2852,-6,0,1014,0,2,56
2853,145,60,1007,-2,6,11
2854,275,262,1018,4,9,531
2855,83,441,976,0,11,495
2856,75,318,944,4,4,697
2857,99,415,920,0,4,335
2858,91,435,946,-2,-2,216
2859,103,346,1130,4,2,181
2860,31,193,1130,4,-6,9
2861,2,216,1100,-2,-2,-79
2862,59,290,916,0,4,-216
2863,45,253,943,-2,-2,-196
2864,87,324,851,8,9,-50
2865,-59,353,1021,-2,-22,-298
2866,29,292,1046,0,-14,-538
2867,-38,205,974,10,4,-698
2868,-18,139,890,-2,-24,-842
2869,5,135,931,0,-8,-1036
2870,-8,30,1051,-14,-8,-1239
2871,-83,197,849,-24,-20,-1376
2872,-137,153,1018,6,-24,-1243
2873,57,40,1206,6,-22,-1133
2874,-136,168,962,-6,-26,-1284
2875,-70,-41,796,-10,-14,-1356
2876,-141,-19,872,-4,-6,-1178
2877,-144,192,940,-6,-18,-1251
2878,74,-53,1090,12,7,-1216
2879,-50,-140,1410,8,-10,-1251
2880,-278,87,1088,18,-26,-1217
2881,-1,-306,1285,10,-2,-1145
2882,-125,-3,438,-18,-8,-1376
2883,-87,-5,1241,-14,2,-1100
2884,-25,77,935,-8,-8,-1032
2885,83,49,919,20,-24,-1307
2886,-47,7,1090,12,-14,-1296
2887,21,-150,992,-18,-18,-1055
2888,23,-109,647,-8,-12,-1165
2889,9,41,1337,20,-12,-1255
2890,61,185,875,12,-22,-1159
2891,61,-104,886,4,8,-1081
2892,56,-317,1106,20,-18,-1362
2893,41,-76,1024,-14,-14,-1358
2894,85,-260,1002,-29,0,-1245
2895,82,-246,946,10,-24,-1259
2896,22,-208,907,21,-39,-1331
2897,83,-193,1107,-12,0,-1303
2898,78,-217,1186,-10,-4,-1100
2899,108,-180,1505,41,-26,-1192
2900,100,-321,1042,4,-10,-1231
2901,68,-276,879,25,-8,-1188
2902,137,-297,537,12,0,-866
2903,66,-342,1211,-12,15,-772
2904,8,-366,981,-49,39,-850
2905,3,-352,1171,-4,8,-731
2906,-12,-396,1044,-4,8,-663
2907,-2,-437,1141,-2,11,-546
2908,-9,-490,1014,-4,8,-368
2909,-53,-457,985,-10,0,-403
2910,17,22,983,-4,-2,-268
2911,-4,-15,1001,4,-4,-3
2912,117,-294,1011,10,-6,-57
2913,78,-258,1017,-2,-2,-458
2914,85,-518,948,-2,-8,-536
2915,111,-484,984,-4,-6,-262
2916,102,-279,1046,-8,-8,89
2917,66,-250,1166,-12,-12,144
2918,-33,-254,1043,-14,-18,243
2919,69,-421,1198,-16,-26,304
2920,25,-314,879,-12,-10,361
2921,-1,-391,1034,-2,-4,560
2922,87,-406,1111,-6,-2,628
2923,48,-331,1151,-31,19,648
2924,-15,-255,899,6,-8,851
2925,-61,-385,1007,-31,19,933
2926,79,-524,1165,-49,33,1042
2927,23,-100,1095,21,11,1226
2928,77,-83,1237,37,21,1464
2929,147,-215,1245,2,-4,1603
2930,11,-489,754,0,0,1320
2931,-113,-283,1071,-10,15,1386
2932,-33,-57,886,-8,6,1304
2933,-215,127,1123,-14,0,1572
2934,-168,-289,901,8,15,1529
2935,-40,-51,1159,18,13,1677
2936,-22,-401,701,6,31,1714
2937,-196,-33,1340,-6,25,1622
2938,-98,-64,1999,4,-10,1939
2939,-54,3,930,10,-4,1904
2940,-142,26,684,0,-2,1728
2941,-31,-35,877,10,-8,1589
2942,-3,39,1047,-12,19,1685
2943,6,172,1224,0,15,1866
2944,-2,172,995,10,-2,2033
2945,-162,25,813,6,-6,2171
2946,70,184,1126,2,21,2017
2947,-49,40,1011,-6,25,2113
2948,217,225,1055,-6,11,2163
2949,120,23,928,20,9,2304
2950,34,103,1013,4,11,2167
2951,-28,12,892,8,19,2033
2952,94,340,1187,0,25,1919
2953,169,70,949,-10,17,1757
2954,20,310,1105,-4,19,1714
2955,158,331,986,10,15,1636
2956,29,443,1045,2,13,1314
2957,43,299,1069,-2,13,1204
2958,137,427,1049,10,8,986
2959,123,539,1204,16,4,521
2960,191,571,944,-14,-2,62
2961,190,601,972,-4,4,-372
2962,266,441,1031,-2,-4,-723
2963,229,268,1023,0,2,-831
2964,192,86,1007,-12,0,-485
2965,93,-14,1004,-4,2,-108
2966,-12,94,1005,-12,2,-12
2967,141,308,999,-12,8,58
2968,137,522,994,-6,-4,304
2969,62,377,1024,8,2,263
2970,88,368,897,0,-4,-147
2971,-6,343,840,6,-4,-467
2972,140,243,944,-2,-6,-544
2973,167,251,1108,6,-2,-509
2974,112,196,852,-8,-4,-510
2975,92,370,996,-20,0,-483
2976,200,206,1026,-14,-4,-659
2977,22,284,978,-12,-16,-624
2978,47,258,1013,0,-4,-589
2979,-159,455,1322,10,-18,-721
2980,51,111,926,-2,-16,-893
2981,-10,123,1035,-6,-6,-1223
2982,13,369,802,-2,-8,-1327
2983,17,172,1063,-8,-16,-1329
2984,-39,243,1301,-21,-12,-1432
2985,-80,312,670,0,-14,-1538
2986,23,69,970,-14,-16,-1514
2987,-41,160,975,-8,-22,-1665
2988,28,102,1040,-18,-6,-1626
2989,59,92,922,-6,8,-1538
2990,24,-52,988,8,-10,-1450
2991,73,-220,1298,4,-18,-1526
2992,53,-102,1335,-14,-20,-1399
2993,-70,-69,1175,-14,-12,-1395
2994,2,31,895,-18,13,-1356
2995,3,-39,1035,14,-2,-1309
2996,-53,-83,1024,14,4,-1217
2997,-69,-162,1144,-4,-26,-1221
2998,-89,-96,846,-14,-10,-1280
2999,-104,-245,963,-4,-6,-1161
3000,-17,-189,1532,0,-22,-1155
3001,-71,-72,1323,-4,-4,-1112
3002,-93,-273,764,6,-6,-960
3003,-7,-154,1046,-19,2,-1016
3004,-3,-229,1108,-23,8,-798
3005,-32,-130,1089,-14,-2,-686
3006,-57,-209,1082,16,-14,-807
3007,82,-54,356,14,0,-858
3008,-64,-201,906,-8,4,-723
3009,-79,-191,682,10,6,-731
3010,290,-118,1457,6,23,-675
3011,44,-305,928,16,2,-598
3012,54,-340,762,29,11,-641
3013,90,-459,1061,-2,17,-497
3014,44,-420,1122,-2,4,-569
3015,40,-463,1057,2,4,-389
3016,55,-480,1037,-8,9,-399
3017,-23,-375,930,-4,4,-327
3018,92,-367,1002,-8,-4,-176
3019,-11,-15,1002,12,-14,-9
3020,-2,-6,1005,25,-18,3
3021,117,-324,999,14,-10,-16
3022,127,-278,991,2,-6,-520
3023,116,-404,919,-2,-10,-784
3024,107,-452,1039,-21,0,-563
3025,25,-612,1008,-23,-2,-294
3026,-48,-349,748,-25,-4,167
3027,66,-153,988,-4,-26,158
3028,-161,-202,611,-23,-16,146
3029,5,-91,1036,-19,-16,70
3030,169,-206,907,-35,-2,154
3031,60,-220,620,-27,-2,255
3032,107,-325,1340,-2,-4,355
3033,10,-132,1028,0,8,493
3034,-84,-255,1201,-37,-2,697
3035,-4,-202,1020,-25,11,630
3036,9,-31,1179,29,4,691
3037,-23,-220,1187,12,-10,1130
3038,57,-120,1289,-10,11,939
3039,-154,-135,745,-10,-6,1025
3040,-41,-118,1279,-16,0,1034
3041,-83,-61,933,12,6,954
3042,-114,-145,1303,-8,2,988
3043,-3,-103,1052,-6,9,896
3044,-136,-8,1059,22,9,1097
3045,-229,1,989,10,19,1085
3046,-102,-86,1216,-2,-2,988
3047,-118,40,1078,-2,-12,1072
3048,-4,142,1136,6,0,1085
3049,-71,-42,1041,2,8,927
3050,-53,84,923,-14,8,784
3051,90,-177,1222,14,13,886
3052,-204,-60,706,-23,11,1120
3053,25,-178,1027,-23,9,1474
3054,-101,-48,836,8,23,1868
3055,-105,2,772,4,17,1886
3056,-67,53,1156,-6,25,1831
3057,59,73,1317,-12,17,1810
3058,-21,246,1283,-6,11,1728
3059,5,155,1008,8,31,1382
3060,59,251,1027,0,15,1056
3061,211,111,1275,4,13,1158
3062,8,52,1081,6,15,1382
3063,62,242,1227,6,11,1390
3064,74,255,1137,0,11,1529
3065,162,400,1114,6,9,1097
3066,81,285,948,8,8,1398
3067,26,470,788,23,-2,816
3068,130,519,985,25,-16,509
3069,118,529,1316,2,-4,99
3070,167,542,1205,8,2,-161
3071,188,501,1061,10,-6,21
3072,165,439,995,10,4,58
3073,9,309,999,0,2,161
3074,22,8,1005,-25,19,9
3075,342,259,982,-21,9,150
3076,113,292,981,0,-6,427
3077,101,325,1043,-2,0,730
3078,66,418,1146,0,6,710
3079,86,395,952,-2,2,175
3080,5,357,1128,-16,-4,-380
3081,47,466,857,-12,-10,-522
3082,15,294,972,-2,-8,-479
3083,35,147,1055,-8,-10,-698
3084,121,295,1066,-16,-4,-837
3085,29,362,966,4,-10,-716
3086,24,337,1091,-2,-2,-788
3087,72,161,1398,6,-16,-1028
3088,21,342,1076,-12,-14,-1147
3089,-36,300,1214,-10,-14,-1409
3090,-48,24,1409,-18,-8,-1632
3091,99,173,1147,-12,-18,-1716
3092,39,343,-165,16,-12,-1673
3093,98,27,1007,-4,-16,-1782
3094,-51,-13,942,0,-12,-1985
3095,39,281,1419,-20,-2,-1903
3096,-135,241,1211,-6,-18,-1739
3097,-58,87,1069,-2,-18,-1643
3098,35,96,771,-8,-18,-1634
3099,1,145,875,-2,-12,-1571
3100,91,61,1193,-6,-4,-1618
3101,-32,33,987,-4,8,-1382
3102,50,-132,1191,14,-8,-1432
3103,-25,-193,1087,-16,-14,-1469
3104,-103,15,737,-23,-18,-1550
3105,-76,-37,1106,-4,-22,-1550
3106,25,10,1118,-8,-28,-1602
3107,-36,-94,943,-2,-12,-1770
3108,-10,-284,1224,2,-10,-1807
3109,-40,-237,1056,-8,-8,-1827
3110,-23,-206,968,-18,4,-1743
3111,116,-156,920,-27,-20,-1592
3112,-27,-217,904,-22,0,-1585
3113,-51,-204,1208,-6,-12,-1563
3114,-75,-327,906,18,-26,-1065
3115,31,-73,706,2,-10,-1089
3116,123,-198,1115,-2,-4,-1001
3117,-86,-186,970,25,-35,-1012
3118,106,-263,868,-2,0,-983
3119,44,-340,1178,4,13,-930
3120,14,-154,1093,12,9,-917
3121,35,-320,1315,6,8,-854
3122,67,-299,1162,-2,8,-854
3123,-41,-355,1141,-10,15,-794
3124,-12,-459,1012,-16,11,-669
3125,73,-400,913,-8,8,-503
3126,-46,-548,1016,-6,-2,-577
3127,-9,-6,1011,-2,0,-385
3128,-2,3,1009,10,-4,-5
3129,-13,-16,949,31,-28,-20
3130,-13,-360,1004,4,-6,-55
3131,15,-342,1025,-14,0,-594
3132,12,-334,988,-14,-2,-800
3133,75,-451,1050,-12,-4,-239
3134,17,-478,809,-18,0,29
3135,72,-566,1005,-16,-2,226
3136,-8,-201,1142,-14,-8,347
3137,10,-260,1180,-10,-10,583
3138,-21,-282,1117,-6,-12,615
3139,-44,-180,1108,0,-16,644
3140,-137,-330,750,-2,2,661
3141,-162,-83,782,-22,27,728
3142,44,-158,1054,6,4,878
3143,-33,-293,1029,-29,13,1081
3144,-87,-166,748,-27,25,1089
3145,44,-225,1186,0,13,1441
3146,-59,-156,1015,-4,21,1531
3147,-47,-83,967,29,-2,1501
3148,-84,-21,1056,23,11,1583
3149,-70,-119,1134,19,13,1482
3150,126,-212,1186,-20,23,1368
3151,51,-118,1034,8,13,1327
3152,81,-204,1052,-4,21,1521
3153,5,-43,1553,-16,17,1540
3154,-48,-195,890,6,21,1861
3155,2,0,903,14,17,1824
3156,-2,207,1073,-14,17,1906
3157,-38,0,899,-22,9,1939
3158,26,36,1114,-4,13,1743
3159,-64,78,932,-14,17,1720
3160,66,160,1147,-10,15,1546
3161,85,151,996,0,29,1550
3162,-101,69,874,-2,4,1741
3163,17,156,827,-2,15,1618
3164,33,271,1329,-6,0,1765
3165,0,244,979,0,13,1814
3166,61,143,1398,-4,9,1706
3167,26,274,1122,-25,23,1562
3168,-33,288,860,6,8,1404
3169,0,114,1060,-37,31,1249
3170,42,165,1044,12,6,1228
3171,51,56,858,-10,11,1259
3172,79,53,857,6,4,1431
3173,99,68,956,6,8,1392
3174,72,196,1141,10,15,1351
3175,-39,224,970,0,13,1357
3176,160,298,1128,-2,9,1267
3177,182,367,1002,-8,11,960
3178,132,499,920,19,6,769
3179,197,463,1049,21,-2,687
3180,174,516,1025,35,-20,427
3181,159,649,998,31,-22,140
3182,11,541,986,14,-14,1
3183,368,55,1015,-84,54,-1
3184,252,233,1002,-29,9,-294
3185,151,311,985,-12,-4,60
3186,125,319,1022,-6,-4,296
3187,201,434,1040,-2,-6,402
3188,30,348,1258,-2,-10,136
3189,183,470,1236,-2,-12,58
3190,126,501,1003,-4,-12,-216
3191,65,488,1048,8,-18,-430
3192,43,253,950,12,-18,-559
3193,94,389,972,-2,-18,-690
3194,-23,424,969,0,-16,-876
3195,55,428,1146,2,-8,-1010
3196,45,328,942,-10,2,-1067
3197,-32,392,920,-6,-16,-1378
3198,48,260,1182,4,-28,-1690
3199,53,228,879,-2,-14,-1788
3200,14,110,1097,-2,-18,-1831
3201,38,130,1095,-16,-2,-1825
3202,-11,167,914,-8,-4,-1764
3203,-95,56,932,8,-16,-1759
3204,-134,88,751,-31,-10,-1985
3205,-245,133,975,-4,-20,-1895
3206,-132,-36,1172,-4,4,-1878
3207,34,-88,1111,-12,-2,-1971
3208,-84,62,1022,-8,-10,-2038
3209,-135,-63,826,-29,-14,-1969
3210,-112,-72,1115,-2,-18,-1848
3211,-55,-226,1232,8,-24,-1698
3212,-51,-130,1227,-14,4,-1702
3213,18,97,878,12,-18,-1530
3214,-10,-238,1214,16,-6,-1512
3215,38,-262,1166,-31,4,-1497
3216,-11,-219,733,-16,-20,-1452
3217,-60,5,1001,12,-12,-1458
3218,-49,-67,737,23,-12,-1387
3219,-43,-190,873,41,-20,-1237
3220,21,-212,791,45,17,-1190
3221,67,-388,863,14,17,-1147
3222,-33,-270,1004,-23,29,-1419
3223,27,-451,1012,-10,23,-1200
3224,-8,-311,826,-12,23,-1065
3225,43,-464,1052,8,-10,-952
3226,-10,-384,889,-55,0,-866
3227,2,-398,1029,-45,15,-805
3228,59,-398,1108,-29,0,-712
3229,46,-350,908,-14,-6,-669
3230,107,-334,940,-10,4,-591
3231,119,-517,1167,0,0,-380
3232,96,-523,1032,-2,-2,-350
3233,62,-407,970,-2,0,-303
3234,-13,-349,1009,-4,-6,-301
3235,57,-31,1007,8,4,-71
3236,108,-224,987,2,0,-120
3237,125,-330,1013,2,-8,-389
3238,-4,-293,1082,2,-18,-300
3239,128,-299,1059,6,8,-237
3240,2,-260,963,8,-2,-38
3241,20,-243,790,-4,-8,-69
3242,115,-393,1124,23,-14,152
3243,-44,-208,1052,31,-10,202
3244,21,-278,926,-4,2,277
3245,-20,-120,1093,51,-34,322
3246,6,-224,968,-12,-8,460
3247,-19,-333,992,-63,17,458
3248,-9,-189,1270,14,4,325
3249,42,-336,1015,0,-12,615
3250,-16,-291,1157,-12,-16,894
3251,-64,-212,989,-43,-18,913
3252,92,-273,1131,-12,2,1095
3253,-69,-248,1051,-23,25,982
3254,-125,-244,808,-4,-22,1161
3255,-46,-219,1058,-20,0,1197
3256,35,-153,1056,-35,27,1089
3257,20,-94,1031,-4,11,1236
3258,-32,-188,1090,25,-12,1306
3259,-51,-69,1001,31,0,1325
3260,26,-192,870,14,9,1445
3261,52,-104,1133,-22,15,1120
3262,15,-264,1072,2,13,1427
3263,-127,-234,933,0,19,1365
3264,-63,39,1027,-2,17,1474
3265,-188,83,1010,8,31,1501
3266,-125,-88,1394,0,23,1433
3267,-85,-45,855,-2,-6,1597
3268,41,-283,1190,6,4,1636
3269,79,-41,1777,-2,15,1450
3270,-75,1,1037,0,17,1365
3271,0,-14,988,-10,11,1433
3272,-45,-72,757,0,6,1556
3273,-68,187,1016,4,2,1470
3274,45,223,1195,-14,21,1126
3275,-37,35,716,-14,25,730
3276,-9,416,889,-6,11,363
3277,109,409,1031,0,9,152
3278,16,358,1034,18,0,29
3279,119,229,1041,25,11,9
3280,145,109,1184,-14,9,52
3281,82,34,1245,-12,11,409
3282,208,138,1156,-10,13,919
3283,120,167,1082,8,7,1185
3284,144,280,1261,15,2,1450
3285,65,505,964,17,6,1409
3286,86,392,859,17,-4,1294
3287,84,541,903,6,-4,986
3288,130,572,1042,13,-8,810
3289,167,482,1054,-2,0,646
3290,123,616,1088,-6,6,390
3291,107,492,999,0,2,421
3292,145,551,988,4,2,470
3293,3,-8,996,-35,19,77
3294,299,363,993,-71,37,-5
3295,121,409,987,-2,-2,574
3296,43,389,1040,9,-12,927
3297,-3,516,1033,4,0,538
3298,92,410,1081,8,-2,212
3299,-18,555,949,0,4,-454
3300,53,488,962,0,-8,-833
3301,94,427,1020,2,-10,-1079
3302,59,367,1068,-18,-8,-1374
3303,66,233,906,-22,-2,-1333
3304,31,281,964,-18,-2,-1342
3305,23,266,1036,-18,-10,-1360
3306,19,225,1000,11,-14,-1362
3307,7,213,1180,-6,-10,-1385
3308,28,211,867,-2,-4,-1255
3309,-20,210,955,-20,-14,-1106
3310,-19,197,1097,-24,-2,-1022
3311,-12,358,1110,2,-8,-1147
3312,49,153,924,6,-12,-1217
3313,26,170,1132,13,-14,-1339
3314,-43,54,781,-2,-12,-1489
3315,79,144,711,-12,2,-1569
3316,83,-123,1064,11,-10,-1616
3317,-35,-43,1112,8,2,-1786
3318,121,-126,504,-24,-28,-1526
3319,-25,-191,837,0,-10,-1292
3320,0,-87,936,11,-6,-1286
3321,-55,-65,627,8,-2,-1139
3322,101,-27,1343,23,-12,-874
3323,104,-26,1029,-12,-18,-1210
3324,-94,-209,886,-22,-16,-1383
3325,-15,-95,558,6,-39,-1458
3326,62,-34,1338,-2,-8,-1503
3327,-66,-321,1044,-10,0,-1467
3328,-16,-378,888,-6,-6,-1551
3329,121,-470,963,-26,-10,-1579
3330,5,-152,847,-35,-10,-1493
3331,52,-492,877,8,-18,-1387
3332,6,-339,1512,0,-10,-1288
3333,-52,-404,894,6,-14,-1130
3334,15,-519,1090,13,-8,-958
3335,63,-263,885,19,0,-827
3336,-3,-267,982,19,-4,-864
3337,-22,-335,989,-2,6,-839
3338,8,-337,983,-2,7,-362
3339,0,-310,1051,-32,33,-245
3340,140,-578,1035,-4,2,-173
3341,-45,-427,1008,17,0,1007
3342,-11,-278,1046,15,-12,341
3343,20,-207,1002,-2,-4,255
3344,-55,-138,1010,2,0,720
3345,4,-3,998,-6,0,140
3346,-187,155,1039,2,2,306
3347,1,5,1005,0,2,25
3348,-1,-4,995,-2,-4,-3
3349,8,-3,992,-2,-2,-1
3350,10,1,1003,-4,-2,-3
3351,-3,-12,1009,-2,2,-3
3352,-2,-8,1003,-2,0,1
3353,6,-3,1004,2,4,-5
3354,0,5,1006,2,-2,-3
3355,-7,1,1006,-2,-6,1
3356,6,-9,998,-4,-2,3
3357,-7,1,1005,0,2,-5
3358,0,-2,988,-2,0,-3
3359,-1,3,1015,-2,-4,-3
3360,1,-8,1013,0,2,-1
3361,-9,-5,998,-4,-2,1
3362,-9,-4,1004,-8,-2,-7
3363,-4,3,1010,-2,-2,1
3364,-3,-5,1009,-2,2,-3
3365,-10,-2,999,0,2,-3
3366,-9,2,1004,-2,-2,3
3367,-1,0,1012,0,2,-5
3368,-6,0,993,0,6,-3
3369,-9,-6,1008,4,2,1
3370,10,-7,988,2,2,-1
3371,-6,-3,997,-2,0,-1
3372,-8,-3,994,2,2,1
3373,-1,-4,986,-4,-4,-1
3374,-5,-7,999,2,2,-3
3375,-10,-2,991,-2,0,-1
3376,1,-2,1009,0,2,3
3377,-3,3,1013,-2,0,-1
3378,4,-3,1015,0,2,1
3379,1,-1,1014,0,0,1
3380,-6,-3,1007,-2,-2,-5
3381,-3,-2,998,2,2,1
3382,1,0,1006,-2,0,-1
3383,4,-4,1007,-4,-2,-1
3384,-1,-8,1011,0,0,1
3385,-3,5,997,-4,2,1
3386,-5,3,995,0,2,-3
3387,1,1,1004,0,2,-3
3388,0,1,1005,-2,0,1
3389,-5,-15,1004,-4,0,-3
3390,-8,-11,997,0,2,-3
3391,-6,-5,990,-2,-4,-1
3392,2,6,1012,0,4,-1
3393,-1,4,1020,-2,0,1
3394,0,-2,999,0,2,1
3395,21,-2,993,-2,-4,-1
3396,-3,-11,1000,-4,0,-1
3397,-3,-6,1014,0,0,1
3398,-12,1,1006,0,2,5
3399,-3,-3,994,0,2,-1
3400,-7,-3,1009,-2,0,-5
3401,-2,4,998,0,2,-3
3402,1,-5,994,-4,0,-1
3403,-1,0,993,-4,-2,1
3404,1,-8,993,0,2,-1
3405,-9,0,996,-2,2,1
3406,-2,3,1005,-1,-5,-3
3407,5,-7,1004,1,1,-3
3408,5,8,993,-1,-1,-1
3409,2,-2,994,-1,-1,-3
3410,-1,-4,988,3,1,-3
3411,5,-10,1005,1,1,-5
3412,-3,-7,1005,1,5,-1
3413,-2,-7,1012,-5,-1,1
3414,-9,-6,1005,-5,-1,1
3415,-3,-6,1004,-1,-3,-5
3416,-10,3,1007,-1,-1,-1
3417,0,-7,1001,-1,-5,-5
3418,-7,-2,1011,3,3,-1
3419,-3,3,999,1,1,-3
3420,0,-3,1009,1,1,-3
3421,-3,2,1005,-1,-3,-5
3422,-3,-11,1003,-1,-3,-3
3423,-7,1,1003,1,3,-1
3424,-3,-5,1002,1,1,-5
3425,0,-15,1003,-1,-3,-3
3426,-2,-5,1007,-1,-1,-1
3427,-7,2,999,-1,-1,-1
3428,1,2,1014,-3,-1,-3
3429,-5,-3,999,-1,-3,-3
3430,-4,-5,1002,1,1,-3
3431,-6,1,1019,-3,-1,-1
3432,0,0,1017,1,1,3
3433,-3,-1,1002,-1,-1,1
3434,-2,-3,994,-1,-1,1
3435,6,-1,999,-1,-3,-1
3436,-12,2,1000,1,5,-1
3437,-3,8,1003,-3,-3,-1
3438,-1,-2,1004,1,1,-1
3439,-7,-2,1012,-3,-1,-1
3440,1,3,1009,-1,-5,1
3441,-3,1,1001,-1,-3,-1
3442,-3,-1,1012,-1,-1,-1
3443,-4,-4,992,-1,1,-3
3444,-10,0,994,-1,-3,1
3445,-4,3,996,-1,-3,-3
3446,-3,-6,1006,3,3,-1
3447,-6,0,1000,-1,-1,-1
3448,-5,4,1006,1,1,-1
3449,-8,6,1015,-1,-3,3
3450,-6,-6,1012,-3,-3,-1
3451,-9,-3,1010,1,-3,-5
3452,-2,2,1003,-1,-1,-3
3453,0,-9,1003,-1,-1,1
3454,2,-3,1007,-1,-3,-3
3455,-5,-2,992,1,1,1
3456,-4,-9,1011,3,3,-1
3457,-5,0,1002,-1,-1,-3
3458,-4,6,992,-1,-1,1
3459,-6,0,994,-1,-3,-1
3460,2,0,1011,1,3,-1
3461,-7,3,1006,-1,-1,-1
3462,-6,-8,1015,1,1,-5
