AccelerometerX,AccelerometerY,AccelerometerZ,GyroscopeX,GyroscopeY,GyroscopeZ
-566,110,925,226,2540,1804
-494,95,888,263,2267,1763
-450,93,848,187,2367,1651
-450,115,845,64,2439,1460
-484,133,864,-63,2206,1149
-497,148,864,-18,1755,805
-506,161,808,77,1218,448
-515,158,791,31,708,98
-535,166,788,-245,316,-181
-547,145,828,-458,-180,-427
-550,108,884,-610,-512,-560
-534,75,932,-657,-760,-620
-472,45,925,-487,-870,-644
-458,52,892,-303,-725,-636
-462,80,892,-243,-688,-673
-458,80,902,-163,-932,-855
-454,95,897,-98,-1268,-1030
-449,89,871,-8,-1548,-1214
-471,89,862,-3,-1893,-1456
-519,115,868,-61,-2329,-1718
-583,102,910,-42,-3089,-2017
-588,78,915,-32,-3796,-2101
-559,77,888,15,-3958,-1982
-453,44,880,-122,-3716,-1700
-406,43,908,-401,-2989,-1314
-391,51,937,-555,-2167,-956
-411,56,932,-624,-1585,-712
-398,97,897,-567,-1157,-519
-405,96,892,-622,-1221,-529
-363,82,920,-794,-1448,-587
-347,67,920,-876,-1442,-620
-359,57,917,-905,-1327,-632
-395,32,929,-925,-1391,-611
-375,-13,925,-960,-1352,-450
-366,-50,974,-1010,-1044,-161
-373,-92,1022,-1040,-710,132
-341,-115,1071,-993,-444,493
-284,-110,1078,-673,-321,778
-259,-83,1023,-255,-473,843
-276,-67,997,15,-987,667
-266,-56,977,15,-1538,429
-239,-67,948,-65,-1889,192
-206,-57,944,-173,-2061,-38
-177,-65,972,-417,-2270,-304
-138,-69,977,-639,-2706,-669
-149,-66,962,-712,-2911,-913
-148,-59,919,-698,-3155,-1126
-128,-47,941,-967,-3714,-1364
-156,-23,974,-1387,-4464,-1570
-59,-84,923,-2374,-5860,-1409
-31,-158,975,-2175,-5639,-1390
14,-147,1002,-1948,-5032,-1355
-20,-72,1036,-1967,-4428,-1154
104,-106,1088,-2089,-4731,-1296
265,-63,1004,-1632,-5577,-2056
105,-98,708,-823,-5161,-2607
-63,-22,732,-897,-3128,-2347
-110,-117,1025,-1407,-3167,-1902
-91,-127,984,-1551,-3016,-1570
16,-171,971,-1536,-2083,-882
92,-230,961,-1448,-1022,-329
51,-345,1045,-1829,-448,-93
6,-362,1071,-2784,-432,-202
117,-319,1062,-3505,-362,-142
138,-336,985,-3370,242,-161
50,-311,1107,-2811,759,-5
40,-349,1082,-1796,1517,448
101,-374,1086,-1184,1825,843
253,-404,1104,-491,2036,1136
258,-509,1075,234,2286,1559
301,-536,1093,835,2462,1794
165,-454,1141,1038,1997,1688
55,-372,1146,1415,1995,1985
-30,303,1209,1087,1712,2399
-20,-303,1031,-1313,220,3669
207,-522,1088,-2991,-1114,3770
-53,-573,1055,-2678,-928,4325
-516,-608,905,-1341,156,4038
-386,-363,889,1425,484,3300
198,64,1015,2591,743,1735
609,-376,984,-192,1236,-851
265,-420,927,-1755,1476,-404
8,-286,1102,-2604,638,723
12,-380,1072,-2805,-710,923
2,-498,970,-2942,-1760,751
-74,-554,894,-2829,-2282,491
-38,-600,792,-2214,-2217,286
-115,-441,603,-704,-1075,-187
3,-462,913,1408,1003,-857
-60,-390,1032,1404,1642,-1103
-127,-347,1030,1372,1833,-1704
-126,-448,961,822,2154,-2226
7,-490,853,-276,2271,-2255
-22,-468,835,-872,2009,-2122
-56,-459,828,-1276,1718,-1919
-17,-478,925,-1387,1318,-1519
-31,-453,837,-1499,909,-1314
-46,-458,841,-1575,611,-1599
64,-450,682,-1473,691,-1732
95,-470,622,-1175,677,-1724
79,-471,585,-534,609,-1706
77,-345,698,722,310,-1773
56,-250,727,972,367,-1896
78,-372,806,808,353,-2027
18,-259,757,1294,-14,-2142
17,-225,903,1017,-249,-3005
56,-544,981,-104,417,-3386
125,-445,896,-1387,1146,-2831
149,-203,912,-1762,919,-2732
115,-208,845,-1614,652,-2499
95,-300,846,-1700,611,-1972
37,-327,809,-1249,952,-1423
95,-325,748,-555,1351,-1140
131,-267,782,-116,1775,-1068
82,-245,788,64,2236,-1423
16,-476,853,-34,2615,-1782
-39,-406,916,183,2781,-1446
-40,-300,925,650,2962,-1226
-106,-420,993,527,2939,-1630
-154,-551,1041,890,3013,-1847
-146,-418,1097,1493,2947,-1685
-144,-347,1030,1501,2882,-1472
-135,-490,982,1361,2925,-1275
-282,-539,1160,1286,2626,-892
-198,-514,1072,1380,1900,-661
-209,-506,1095,1234,1724,-525
-185,-510,1160,1195,1572,-491
-208,-497,1150,1015,1275,-405
-239,-452,1153,681,947,-216
-229,-445,1133,288,734,95
-184,-432,1135,111,673,370
-172,-432,1122,77,529,581
-187,-437,1156,214,316,761
-176,-441,1133,458,46,913
-222,-451,1144,531,-339,973
-253,-450,1113,296,-667,968
-270,-415,1110,-91,-819,1034
-228,-403,1059,-542,-800,1138
-243,-387,1042,-805,-657,1296
-194,-310,1017,-780,-403,1606
-87,-284,912,-594,-315,1688
-194,-351,958,-438,-116,1807
-115,-339,963,-559,-135,1505
-101,-198,1000,-46,-192,688
-150,-341,881,1040,-26,-279
-90,-332,905,1355,-12,-234
-61,-338,903,1273,-79,-212
-72,-310,896,1310,-262,-216
-73,-327,880,1200,-255,-79
-94,-317,850,1056,-182,61
-127,-349,840,1140,-71,73
-140,-367,938,1226,-73,-71
-187,-356,963,1021,-30,-314
-181,-357,967,683,27,-550
-141,-338,973,441,-3,-775
-144,-323,949,408,-212,-984
-101,-271,930,656,-467,-1087
-88,-244,930,925,-737,-1214
-70,-205,906,1173,-991,-1079
-101,-165,900,1472,-1007,-989
-97,-179,918,1564,-817,-923
-110,-194,913,1628,-479,-958
-111,-251,912,1636,-130,-974
-108,-235,901,1564,120,-986
-124,-217,904,1423,324,-1058
-148,-261,941,1325,425,-1155
-147,-237,949,1284,458,-1132
-113,-244,998,1212,509,-1222
-116,-230,972,1146,462,-1224
-89,-182,972,1013,359,-1083
-107,-125,955,810,359,-751
-104,-123,907,730,583,-226
-98,-135,958,1179,882,298
-128,-159,1006,1931,1113,518
-138,-158,1092,2189,1206,518
-214,-209,1123,1808,1017,628
-239,-192,1139,1406,947,848
-240,-72,1131,855,857,1294
-225,-294,1121,620,642,1587
-203,-118,1082,615,337,1522
-224,-161,1071,439,242,1653
-223,-146,1070,382,259,1835
-235,-186,1074,296,251,2022
-243,-208,1097,-55,261,2147
-246,-208,1089,-594,255,2171
-261,-207,1075,-1157,306,2194
-255,-170,972,-1639,493,2290
-233,-245,965,-1217,947,2098
-247,-175,939,-1604,1132,2477
-186,-186,920,-1352,874,2102
-203,-188,961,-825,904,1940
-232,-206,984,-579,742,1764
-220,-199,978,-518,552,1489
-228,-208,974,-536,437,1134
-233,-203,958,-507,390,833
-210,-184,963,-321,390,595
-229,-189,967,-77,374,413
-232,-192,978,238,251,317
-254,-177,1000,546,72,134
-243,-179,1000,716,-81,-13
-240,-155,974,728,-159,-79
-246,-131,978,685,-186,-105
-243,-131,968,607,-182,-114
-256,-127,971,476,-94,-97
-242,-139,974,339,-3,-165
-245,-138,988,222,40,-265
-246,-129,972,177,21,-312
-245,-138,974,152,-10,-335
-254,-128,946,130,33,-374
-238,-106,967,93,142,-372
-233,-115,975,27,204,-277
-230,-131,984,-48,193,-202
-239,-139,981,-81,181,-195
-243,-129,958,-145,228,-177
-254,-135,960,-118,283,-152
-254,-131,965,-83,327,-173
-253,-141,971,-96,408,-204
-259,-168,955,-137,525,-257
-256,-166,910,-212,706,-310
-260,-172,911,-282,1005,-378
-266,-177,933,-350,1386,-378
-294,-163,955,-348,1765,-374
-287,-157,1015,-161,2177,-413
-328,-116,1092,81,2480,-433
-371,-65,1162,187,2630,-366
-366,-26,1251,296,2552,-224
-414,-22,1306,421,2267,-93
-429,-33,1303,345,1908,-42
-486,-142,1277,165,1941,-171
-562,-189,1291,-305,2355,-595
-637,-200,1335,-1178,3218,-1185
-680,-182,1473,-1934,4177,-1540
-708,-154,1647,-2296,4585,-1646
-767,-120,1815,-2005,4427,-1548
-821,-128,2003,-1319,3769,-1216
-884,-118,2048,-350,2773,-851
-948,-115,2048,597,1577,-542
-1001,-95,2048,1343,269,-251
-1048,-103,2048,1732,-1122,65
-1064,-148,2048,1841,-2589,413
-1063,-205,2048,1757,-4108,632
-1071,-274,2048,1585,-5573,682
-1063,-343,2048,1347,-6856,671
-1080,-373,1870,1009,-7926,665
-1022,-448,1607,742,-8735,610
-1034,-511,1414,531,-9362,595
-981,-541,1199,361,-9848,468
-950,-585,997,199,-10280,309
-883,-567,805,62,-10647,116
-826,-556,640,29,-11030,-11
-750,-534,444,156,-11339,-77
-678,-517,283,495,-11563,-155
-582,-482,154,1021,-11675,-257
-482,-449,31,1624,-11645,-388
-368,-395,-64,1972,-11366,-523
-266,-311,-165,1976,-10727,-677
-149,-254,-266,1669,-9827,-732
-35,-158,-353,1310,-8690,-730
80,-65,-388,976,-7442,-646
178,21,-422,743,-6202,-476
248,87,-427,652,-5030,-236
298,126,-399,699,-3977,28
320,174,-374,745,-3061,270
342,178,-360,792,-2344,434
349,160,-351,820,-1796,468
366,165,-326,818,-1372,350
371,155,-334,745,-1001,139
377,169,-327,718,-600,-42
388,179,-331,722,-192,-165
382,191,-321,765,206,-265
390,251,-298,845,646,-286
401,298,-246,892,1060,-163
408,317,-223,865,1435,83
411,317,-213,822,1814,391
410,284,-177,740,2187,714
366,229,-155,722,2579,944
306,188,-132,810,2972,1093
259,143,-118,872,3372,1200
227,91,-82,833,3771,1233
186,73,-51,771,4210,1192
141,77,3,736,4687,1157
111,77,47,738,5175,1194
80,98,82,765,5632,1360
50,88,193,865,6058,1575
-10,62,249,964,6339,1761
-90,48,339,952,6540,1837
-133,65,386,896,6831,1821
-159,46,457,738,7138,1827
-183,21,552,687,7480,1870
-269,23,643,870,7777,1905
-365,11,719,997,7988,2071
-476,-37,840,1017,8150,2329
-597,-86,995,1105,8286,2501
-677,-121,1246,1181,8357,2438
-749,-141,1593,1396,8374,2200
-799,-166,1903,1439,8029,1874
-835,-173,2048,1218,7404,1505
-862,-151,2048,1025,6740,1063
-891,-75,2048,882,5984,673
-867,46,2048,531,5074,589
-835,77,2048,-157,4054,696
-816,48,2048,-1057,2943,747
-792,-20,2048,-1971,1964,581
-738,-91,2048,-2829,1226,243
-671,-153,2048,-3538,585,-93
-609,-208,2048,-3903,-75,-411
-558,-246,2048,-3891,-727,-706
-509,-288,1815,-3594,-1272,-923
-441,-295,1579,-3171,-1757,-1023
-392,-297,1414,-2833,-2180,-917
-354,-310,1266,-2716,-2546,-665
-302,-352,1116,-2776,-2815,-384
-263,-364,981,-2815,-3008,-290
-221,-397,838,-2764,-3079,-329
-205,-388,705,-2550,-3016,-478
-128,-380,542,-2034,-2708,-638
-154,-380,553,-1178,-1882,-568
-104,-343,523,-651,-1333,-650
-61,-316,526,-161,-923,-732
-55,-254,559,243,-454,-743
6,-243,581,708,46,-595
-50,-166,658,1327,558,-450
-49,-161,751,1501,468,-400
-68,-153,815,1503,132,-493
-81,-128,835,1376,-175,-689
-95,-89,818,988,-370,-921
-95,-30,837,689,-231,-1052
-62,-23,852,552,-87,-1073
-57,-13,834,841,218,-1099
-56,33,854,1064,439,-980
-64,30,880,1161,478,-792
-65,59,920,1341,599,-544
-82,60,1006,1370,640,-337
-88,48,1052,1327,511,-224
-106,48,1095,1167,281,-173
-138,36,1086,861,19,-169
-158,33,1068,454,-212,-157
-152,5,1041,179,-247,-138
-141,-22,1053,-26,-229,-109
-110,-57,1001,-42,-42,-95
-161,-52,1054,177,376,-79
-185,-76,1032,367,433,-25
-195,-87,1025,394,452,-25
-230,-96,1049,572,542,-83
-291,-125,1040,654,706,-163
-281,-140,1130,745,544,-179
-300,-162,1030,777,570,-304
-294,-172,1024,605,103,-349
-283,-187,1042,169,-108,-454
-292,-187,982,-108,-34,-591
-253,-174,984,-622,-48,-593
-218,-168,969,-967,89,-577
-192,-158,980,-987,212,-612
-163,-148,994,-897,191,-632
-165,-136,996,-786,128,-603
-163,-119,999,-702,48,-497
-154,-137,984,-616,-63,-378
-141,-160,964,-467,-124,-286
-160,-159,969,-401,-141,-245
-147,-155,980,-430,-143,-214
-160,-163,965,-510,-112,-226
-161,-157,961,-559,-55,-265
-156,-161,991,-546,13,-275
-163,-164,991,-528,-7,-263
-175,-180,987,-479,-3,-257
-182,-184,979,-403,23,-245
-181,-196,975,-305,64,-245
-196,-205,992,-253,115,-284
-193,-211,1001,-196,138,-355
-190,-211,1008,-126,134,-433
-194,-188,1013,-124,132,-530
-195,-167,1013,-153,142,-577
-173,-154,1011,-141,179,-585
-187,-155,1011,-96,161,-550
-193,-155,1020,7,124,-466
-188,-147,1016,134,66,-370
-178,-156,1012,263,-3,-306
-182,-160,1011,335,-63,-284
-188,-177,1019,263,-63,-296
-204,-167,1010,138,-5,-329
-191,-185,1017,40,66,-392
-202,-172,997,-42,103,-448
-212,-184,998,-55,101,-486
-197,-174,1009,11,58,-486
-194,-172,1014,93,-22,-466
-194,-149,984,183,-87,-441
-205,-147,988,245,-94,-411
-148,-109,996,253,-75,-374
-207,-172,998,171,-104,-337
-201,-161,982,222,-36,-357
-201,-184,983,118,-5,-388
-175,-157,984,31,75,-425
-188,-185,1005,-48,79,-419
-184,-167,988,72,138,-427
-198,-164,978,128,144,-419
-200,-161,981,120,204,-362
-193,-181,1007,42,167,-382
-200,-163,1002,33,177,-409
-208,-167,1026,-38,179,-386
-181,-175,1017,-108,138,-390
-201,-182,999,-120,56,-364
-179,-175,990,-155,-50,-345
-185,-177,995,-149,-65,-337
-185,-177,980,-92,-20,-333
-174,-168,1008,-44,46,-329
-186,-149,996,13,113,-292
-196,-172,1002,1,95,-210
-188,-164,1003,64,62,-253
-193,-133,1039,144,-30,-304
-157,-117,1019,136,-141,-331
-168,-129,1021,93,-198,-312
-187,-125,1032,40,-221,-306
-168,-129,1011,33,-231,-255
-161,-141,1006,11,-247,-228
-174,-160,982,-18,-251,-245
-171,-165,995,-50,-210,-263
-181,-152,1000,-40,-110,-267
-170,-152,1007,-42,-63,-257
-168,-171,1014,-24,-30,-206
-159,-178,1020,-32,-36,-202
-171,-184,1007,-24,-22,-251
-175,-184,1002,-5,-18,-314
-170,-185,999,34,-22,-364
-165,-173,1007,101,-32,-413
-174,-160,1026,212,-55,-448
-174,-159,1010,284,-89,-452
-168,-167,1024,284,-112,-493
-167,-144,1013,228,-165,-546
-174,-153,1007,228,-153,-583
-166,-131,988,169,-102,-601
-170,-124,1011,171,-61,-581
-168,-126,1000,202,-38,-568
-158,-135,1011,210,-36,-571
-163,-127,1006,232,-51,-566
-157,-133,1018,206,-69,-568
-164,-142,1006,189,-118,-605
-160,-129,1014,64,-176,-661
-172,-129,1001,-36,-194,-685
-178,-109,996,-89,-196,-716
-163,-118,1001,-151,-151,-652
-169,-145,1003,3,34,-693
-128,-90,959,199,220,-609
-160,-119,1003,91,150,-509
-170,-138,973,142,120,-497
-180,-149,962,240,206,-493
-196,-134,965,333,370,-548
-181,-141,992,343,355,-431
-147,-155,1039,269,183,-382
-165,-157,1030,218,-108,-409
-176,-152,1003,134,-335,-446
-168,-142,971,36,-413,-448
-158,-136,961,-36,-335,-398
-160,-140,970,-153,-206,-341
-160,-147,957,-231,-89,-312
-150,-152,972,-243,27,-282
-152,-151,994,-143,158,-267
-141,-152,991,-53,226,-243
-151,-138,1003,3,202,-228
-161,-133,995,85,158,-222
-159,-126,980,150,163,-159
-157,-145,963,191,245,-75
-186,-153,970,238,380,-27
-173,-149,952,240,490,36
-167,-140,1001,163,507,89
-177,-144,1017,113,437,79
-187,-143,1024,105,337,22
-180,-136,1028,87,210,3
-181,-144,1033,79,83,-7
-181,-129,1016,89,-51,-27
-185,-131,994,107,-133,-29
-180,-131,991,126,-145,-9
-183,-128,1002,103,-110,18
-172,-128,1003,29,-57,11
-157,-118,1012,-26,9,-19
-153,-129,1006,-53,60,-73
-158,-118,991,-102,97,-103
-166,-129,996,-139,130,-89
-156,-129,996,-120,169,-73
-157,-112,998,-73,179,-46
-149,-107,1017,-26,161,-3
-156,-108,1012,23,134,52
-155,-121,1010,44,105,124
-157,-137,1007,52,70,180
-177,-136,992,31,17,192
-181,-122,1001,13,19,175
-189,-151,989,-30,54,126
-188,-146,988,-34,101,61
-182,-152,1000,-3,158,22
-168,-142,1022,-10,120,-34
-178,-136,1014,25,107,57
-183,-154,1017,68,134,91
-182,-149,1014,91,126,73
-181,-154,1026,89,81,61
-187,-148,1022,79,58,46
-181,-156,1014,79,58,36
-182,-156,1017,87,38,13
-189,-156,995,89,36,-17
-186,-148,1006,89,72,-27
-187,-142,980,74,115,-50
-179,-138,974,118,216,-36
-171,-139,985,132,251,16
-173,-132,993,228,245,59
-166,-136,985,277,228,96
-174,-134,987,327,216,120
-175,-141,985,361,234,126
-164,-150,964,327,277,122
-166,-147,979,238,333,95
-180,-159,969,189,388,61
-178,-144,981,165,437,28
-159,-142,961,130,484,11
-185,-131,975,103,529,-25
-175,-157,981,107,605,-1
-172,-149,983,132,693,-7
-167,-146,990,206,775,-7
-174,-124,1001,331,900,-21
-160,-87,1032,540,1075,-21
-176,-61,1063,775,1249,-42
-214,-39,1095,954,1484,-70
-260,-29,1131,1064,1857,-109
-320,-60,1189,845,2406,-228
-375,-46,1255,460,3169,-511
-430,-20,1344,56,3978,-741
-504,18,1469,-178,4626,-950
-557,58,1608,-182,4925,-1091
-613,89,1670,-38,4964,-1128
-663,132,1760,72,4874,-1105
-707,183,1797,238,4825,-991
-750,243,1862,324,4669,-759
-801,337,1922,497,4411,-366
-886,416,2014,870,4036,223
-977,388,2048,1286,3404,987
-1053,370,2048,1804,2324,1665
-1126,270,2048,2128,863,2317
-1183,169,2048,2124,-917,2768
-1250,78,2048,1816,-2788,3026
-1278,-5,2048,1511,-4510,3153
-1308,-76,2047,1339,-6075,3210
-1301,-147,1862,1218,-7397,3173
-1251,-227,1674,943,-8415,3022
-1194,-277,1434,292,-9216,2759
-1102,-326,1202,-503,-9782,2343
-970,-343,974,-1282,-10258,1798
-841,-296,744,-1975,-10721,1210
-728,-234,509,-2421,-11241,772
-612,-188,284,-2520,-11823,499
-520,-161,53,-2319,-12341,372
-455,-177,-166,-1870,-12591,382
-388,-183,-333,-1274,-12577,466
-335,-212,-471,-729,-12231,544
-273,-219,-594,-317,-11417,614
-221,-222,-675,-87,-10132,596
-159,-221,-689,56,-8546,561
-106,-200,-665,159,-6921,501
-69,-167,-599,245,-5481,425
-27,-132,-558,271,-4389,356
-11,-104,-507,314,-3581,268
17,-66,-479,388,-2936,175
65,-17,-505,521,-2376,116
99,23,-493,759,-1864,118
142,23,-522,995,-1305,116
180,39,-547,1202,-639,126
196,52,-517,1367,128,112
222,94,-483,1499,923,44
247,133,-406,1583,1634,-27
244,155,-344,1523,2214,-44
217,164,-264,1415,2714,14
199,146,-222,1230,3165,136
184,122,-209,1044,3572,227
158,107,-196,923,3972,278
124,108,-166,933,4488,345
87,88,-94,954,5122,458
67,88,-26,927,5769,534
68,91,108,943,6341,536
24,160,226,1152,6726,596
-12,220,372,1661,7031,874
-48,224,473,2101,7222,1231
-107,207,575,2099,7476,1581
-176,172,724,1781,8011,1749
-254,158,928,1376,8724,1723
-315,125,1169,1124,9484,1698
-371,65,1441,939,9900,1696
-468,22,1787,835,9906,1569
-572,10,2048,665,9396,1221
-658,21,2048,281,8558,829
-695,26,2048,-288,7617,595
-716,10,2048,-932,6617,507
-726,-17,2048,-1417,5609,497
-715,-43,2048,-1555,4691,561
-713,-106,2048,-1440,3775,636
-710,-158,2048,-1419,2783,657
-713,-180,2048,-1548,1878,559
-661,-192,2048,-1673,1152,438
-607,-183,2048,-1727,507,325
-569,-168,1980,-1747,-30,212
-522,-160,1828,-1774,-411,141
-478,-141,1679,-1772,-676,147
-430,-130,1546,-1663,-874,169
-387,-120,1418,-1507,-1032,208
-373,-125,1328,-1337,-1120,276
-352,-145,1219,-1173,-1178,319
-336,-141,1143,-1040,-1194,284
-322,-132,1066,-868,-1173,210
-310,-136,981,-714,-1108,159
-300,-104,936,-602,-969,130
-258,-86,919,-407,-839,118
-261,-52,890,-128,-776,128
-235,-25,905,193,-809,175
-223,-32,890,472,-934,233
-218,-35,900,552,-1069,245
-218,-33,870,507,-1094,231
-213,-26,844,327,-997,128
-199,-10,843,130,-815,5
-172,20,851,48,-647,-73
-165,27,847,56,-538,-99
-173,36,861,101,-462,-118
-177,34,845,132,-354,-134
-196,35,871,144,-175,-138
-189,31,913,148,-7,-140
-189,41,928,117,91,-148
-174,35,950,48,103,-148
-193,32,971,-89,81,-165
-197,14,964,-266,68,-218
-211,2,974,-444,70,-296
-220,-4,963,-604,101,-370
-227,-7,978,-710,144,-402
-218,9,975,-714,165,-372
-223,-10,991,-602,138,-259
-218,-13,991,-425,99,-138
-229,-17,996,-296,87,-38
-225,-33,1006,-200,72,61
-235,-41,1024,-135,-1,118
-252,-66,1029,-91,-61,108
-258,-72,1026,-96,-71,11
-262,-84,1030,-225,-59,-97
-256,-92,1004,-383,-44,-212
-246,-79,988,-499,-30,-316
-236,-52,994,-518,9,-362
-272,-34,981,-380,83,-323
-232,-29,980,-214,171,-241
-224,-30,981,-67,191,-154
-229,-40,993,1,128,-89
-230,-44,995,3,66,-34
-241,-52,985,11,-10,-9
-241,-38,1035,44,-104,22
-233,-50,1013,89,-249,20
-236,-45,997,117,-397,7
-232,-62,987,99,-458,-30
-254,-65,998,31,-460,-77
-245,-69,984,-77,-407,-154
-241,-69,965,-196,-303,-237
-233,-56,994,-309,-202,-265
-236,-54,999,-337,-147,-247
-217,-50,1001,-305,-135,-196
-208,-55,990,-216,-163,-142
-208,-82,1009,-147,-206,-112
-215,-83,991,-147,-223,-116
-213,-87,991,-196,-194,-144
-225,-93,982,-210,-143,-161
-218,-88,996,-194,-108,-152
-216,-82,987,-188,-71,-120
-209,-93,996,-149,-57,-71
-210,-89,1000,-118,-61,-32
-215,-106,991,-100,-61,-19
-221,-109,996,-96,-38,-34
-215,-108,1000,-114,-20,-50
-209,-111,978,-106,-30,-64
-210,-107,989,-63,-36,-66
-198,-110,987,-18,-38,-79
-205,-104,993,-1,-32,-109
-208,-91,1007,11,-5,-120
-214,-102,984,-7,31,-132
-218,-110,997,-10,64,-128
-219,-120,987,-5,89,-130
-218,-130,995,-32,126,-155
-224,-127,991,-53,140,-200
-215,-111,998,-32,140,-241
-204,-117,1003,11,115,-263
-210,-96,1004,44,93,-265
-212,-107,1004,85,70,-243
-205,-116,997,91,85,-228
-213,-126,993,72,111,-226
-223,-135,985,7,107,-255
-215,-132,984,-12,95,-286
-216,-128,995,29,87,-331
-215,-129,993,66,60,-361
-223,-132,987,56,44,-380
-229,-133,991,40,38,-392
-214,-138,977,9,36,-415
-228,-132,977,-34,46,-435
-213,-140,955,-24,60,-439
-221,-148,974,29,62,-445
-224,-138,980,99,81,-462
-219,-131,976,156,101,-489
-229,-119,994,158,105,-530
-221,-132,995,128,107,-570
-223,-119,998,75,91,-597
-216,-115,994,21,66,-626
-210,-103,1007,3,75,-636
-210,-89,1006,19,93,-607
-219,-92,1015,79,93,-570
-226,-91,1012,118,89,-548
-219,-77,1010,120,93,-552
-231,-89,1033,79,103,-564
-235,-71,1066,46,111,-579
-222,-53,1087,-1,105,-562
-214,-58,1068,-94,79,-534
-215,-53,1059,-124,52,-501
-213,-81,1054,-100,27,-443
-222,-88,1042,-53,25,-388
-226,-105,1028,-67,7,-335
-223,-113,1001,-50,-22,-331
-237,-106,1007,-42,-12,-366
-240,-100,1009,-71,34,-396
-221,-118,1016,-120,93,-405
-221,-112,1002,-141,99,-411
-217,-116,994,-151,48,-405
-225,-129,988,-175,-32,-407
-230,-131,998,-157,-91,-423
-221,-139,985,-122,-106,-443
-226,-136,1005,-114,-112,-468
-234,-135,994,-114,-102,-480
-238,-131,988,-116,-110,-501
-236,-135,981,-104,-98,-511
-233,-138,989,-114,-85,-530
-240,-148,983,-137,-65,-570
-227,-140,984,-147,-46,-612
-218,-150,979,-161,-30,-630
-221,-149,987,-149,-28,-650
-223,-143,961,-96,-38,-648
-216,-158,979,-46,-48,-648
-229,-156,962,-14,-46,-655
-228,-149,976,-20,-50,-695
-223,-153,975,-14,-28,-730
-231,-145,990,-20,25,-761
-226,-141,991,-67,93,-794
-221,-141,984,-132,128,-820
-224,-142,1009,-180,85,-831
-215,-148,990,-200,27,-849
-224,-123,983,-206,-34,-855
-221,-126,988,-196,-34,-835
-221,-118,946,-184,9,-784
-222,-98,942,-200,50,-642
-231,-134,918,-282,126,-507
-214,-160,988,-342,245,-429
-204,-154,964,-214,187,-517
-209,-115,983,-155,161,-568
-218,-118,969,-157,122,-568
-205,-108,990,-67,91,-560
-206,-120,990,-10,60,-529
-206,-122,970,-42,50,-532
-212,-122,982,-48,79,-568
-210,-110,979,-38,115,-591
-206,-110,1015,-16,148,-583
-207,-106,987,15,132,-571
-226,-111,996,46,89,-538
-229,-108,998,75,36,-507
-229,-120,1011,140,29,-511
-216,-114,992,169,19,-507
-218,-118,979,158,15,-489
-215,-106,983,148,1,-456
-229,-123,1005,234,93,-376
-202,-136,989,238,79,-364
-220,-130,984,320,206,-370
-222,-113,1021,288,140,-370
-210,-111,999,232,48,-394
-199,-119,983,271,33,-364
-207,-110,991,322,17,-314
-193,-108,976,355,42,-286
-213,-127,984,318,99,-263
-225,-114,980,304,146,-271
-220,-119,1000,292,197,-277
-221,-120,1011,273,197,-279
-219,-122,1014,275,173,-271
-217,-118,1013,253,144,-261
-230,-118,1014,234,105,-267
-216,-117,997,214,111,-277
-233,-118,1013,185,117,-279
-223,-122,1013,179,111,-277
-227,-119,1015,169,91,-265
-232,-125,1008,138,66,-251
-239,-112,989,113,42,-261
-232,-126,1009,81,19,-265
-223,-124,995,60,-1,-251
-227,-117,990,66,-5,-249
-228,-125,1007,60,13,-251
-233,-131,1000,64,25,-251
-230,-129,1007,9,19,-282
-232,-116,994,-100,11,-318
-236,-126,975,-143,-7,-327
-220,-108,969,-116,-24,-302
-205,-116,965,-63,-32,-263
-222,-114,961,-34,-16,-224
-215,-115,958,-26,40,-208
-219,-124,959,-38,134,-216
-215,-131,973,-63,195,-191
-227,-134,967,-94,216,-169
-227,-127,981,-77,185,-144
-225,-131,982,-83,165,-71
-214,-138,975,-75,167,-27
-223,-143,983,-50,163,-21
-228,-152,988,-38,152,-46
-232,-147,980,-48,163,-73
-232,-151,1004,-106,193,-109
-228,-142,997,-130,222,-157
-242,-147,984,-118,230,-159
-221,-136,977,-87,243,-128
-222,-146,995,-42,247,-128
-224,-156,988,-10,210,-126
-220,-133,991,5,177,-97
-210,-149,977,27,156,-122
-217,-144,974,70,122,-112
-214,-146,985,124,136,-56
-216,-156,977,154,187,-27
-237,-155,957,136,265,-25
-233,-156,970,140,372,-44
-226,-151,998,138,472,-77
-219,-146,1013,154,480,-150
-221,-131,1017,146,394,-183
-233,-147,1017,152,255,-173
-235,-147,1003,138,140,-161
-237,-134,975,181,77,-239
-259,-160,957,183,109,-212
-259,-151,957,212,202,-202
-248,-151,980,218,253,-206
-262,-147,991,187,308,-195
-254,-131,967,163,372,-181
-251,-142,978,146,437,-111
-256,-169,975,165,427,-105
-243,-95,959,245,413,-89
-251,-126,974,259,447,63
-235,-118,965,327,490,147
-249,-113,958,392,560,186
-240,-108,981,466,656,233
-265,-101,967,542,763,298
-258,-105,1016,695,872,350
-276,-100,1068,814,941,325
-304,-67,1108,833,1040,263
-326,-36,1134,769,1163,255
-339,-24,1203,718,1290,294
-359,-2,1282,747,1376,360
-380,24,1335,843,1421,417
-405,59,1423,984,1400,430
-426,90,1555,1038,1339,471
-461,102,1650,986,1253,503
-487,93,1696,804,1159,489
-518,85,1765,556,1042,427
-530,88,1811,327,876,339
-527,97,1849,210,620,290
-523,111,1886,261,263,325
-511,138,1952,454,-192,395
-516,178,1983,640,-635,471
-500,208,2042,658,-1022,604
-502,236,2048,527,-1469,770
-495,246,2048,333,-2030,948
-471,247,2015,173,-2669,1151
-461,209,1927,60,-3370,1440
-482,168,1824,17,-4124,1721
-514,97,1680,52,-4846,2007
-547,28,1535,64,-5481,2249
-597,-74,1404,-1,-6106,2442
-614,-178,1239,-141,-6630,2491
-590,-267,1057,-407,-6964,2323
-523,-338,897,-739,-7143,1970
-451,-333,749,-1083,-7253,1536
-399,-314,561,-1434,-7368,1114
-327,-273,424,-1637,-7399,807
-275,-239,273,-1577,-7350,639
-222,-212,137,-1333,-7163,595
-197,-184,12,-967,-6823,618
-142,-164,-69,-555,-6303,696
-123,-144,-128,-137,-5659,821
-101,-177,-140,199,-4893,987
-103,-156,-112,484,-4016,975
-96,-144,-87,695,-3178,917
-104,-126,-12,796,-2458,763
-107,-83,45,863,-1907,579
-104,-36,94,849,-1542,376
-108,35,118,743,-1288,249
-81,70,121,634,-1053,253
-41,91,132,605,-878,339
1,103,127,710,-758,419
22,108,93,898,-591,479
36,85,83,1011,-313,528
44,64,107,1029,11,530
77,50,93,909,380,448
105,36,115,714,798,304
128,34,143,495,1181,155
136,38,171,355,1509,38
125,44,155,329,1816,14
118,53,186,484,2093,63
111,82,225,728,2341,196
89,77,259,1007,2521,376
82,79,318,1243,2697,528
71,69,364,1374,2909,608
58,43,392,1359,3177,665
35,53,457,1284,3505,639
8,50,491,1224,3773,528
3,77,545,1130,4015,413
0,119,617,990,4277,378
-8,154,674,847,4509,397
12,164,726,663,4786,473
-7,150,801,466,5056,616
-10,162,866,462,5294,788
-34,166,967,515,5406,962
-85,150,1030,550,5382,1141
-116,100,1075,458,5290,1249
-184,59,1187,253,5220,1284
-206,31,1283,79,5177,1208
-246,27,1402,-182,5113,1130
-267,25,1519,-286,4988,1118
-278,-5,1608,-305,4759,1186
-329,-37,1701,-327,4462,1294
-370,-43,1821,-225,4154,1335
-410,-74,1888,-245,3816,1315
-462,-133,1960,-475,3499,1249
-494,-167,2011,-827,3195,1116
-519,-195,1986,-1163,2798,958
-536,-228,1928,-1333,2325,774
-552,-239,1893,-1389,1839,602
-567,-246,1816,-1356,1396,462
-568,-244,1741,-1292,984,376
-545,-247,1663,-1155,599,286
-523,-237,1573,-967,247,225
-493,-208,1497,-815,-91,151
-461,-174,1422,-698,-354,57
-423,-126,1339,-678,-528,-11
-398,-98,1274,-704,-635,-36
-378,-89,1205,-655,-680,-15
-333,-61,1155,-548,-698,-11
-313,-37,1126,-430,-694,1
-308,-13,1087,-350,-706,36
-295,-18,1071,-270,-733,96
-293,-27,1052,-173,-788,139
-288,-17,1033,-57,-841,139
-302,-25,1024,-126,-917,122
-280,-18,1011,-159,-926,73
-260,-25,993,-188,-928,26
-251,-28,962,-290,-917,-30
-247,-20,929,-366,-856,-64
-239,-14,910,-399,-753,-79
-230,-14,928,-413,-659,-79
-222,-19,923,-391,-596,-70
-213,-31,920,-346,-575,-71
-218,-33,919,-307,-571,-93
-221,-52,932,-305,-520,-140
-216,-55,925,-368,-440,-195
-227,-37,910,-438,-331,-263
-225,-24,948,-491,-202,-280
-210,-34,944,-475,-106,-216
-207,-42,935,-403,-75,-193
-220,-45,925,-354,-65,-200
-239,-38,957,-268,7,-191
-233,-42,971,-229,23,-101
-233,-48,981,-198,-16,-91
-245,-53,971,-221,-67,-89
-257,-62,964,-272,-59,-91
-265,-57,977,-313,-5,-66
-273,-63,993,-251,29,-5
-273,-68,1009,-139,7,36
-281,-87,1004,-104,-22,36
-285,-100,1003,-143,-18,-15
-300,-96,991,-216,34,-66
-297,-101,998,-274,58,-95
-301,-114,984,-290,54,-120
-279,-113,998,-274,13,-136
-300,-120,970,-253,-18,-173
-294,-108,968,-217,-48,-241
-292,-105,984,-217,-36,-294
-290,-88,987,-266,-8,-292
-277,-97,980,-294,-12,-271
-279,-116,998,-270,-22,-269
-271,-115,967,-282,-14,-292
-271,-119,968,-341,17,-331
-272,-120,973,-395,81,-388
-269,-122,963,-491,87,-431
-265,-103,946,-485,99,-448
-248,-104,994,-460,95,-437
-243,-109,988,-411,103,-415
-248,-111,989,-350,79,-368
-236,-113,948,-272,21,-318
-269,-127,974,-212,48,-282
-240,-132,961,-161,5,-259
-254,-141,965,-143,-55,-255
-262,-162,934,-126,-77,-273
-249,-167,955,-139,-32,-306
-242,-160,955,-188,38,-366
-253,-145,946,-237,138,-427
-255,-156,958,-284,265,-472
-241,-156,959,-305,324,-476
-241,-150,949,-268,298,-468
-246,-164,953,-182,269,-441
-243,-185,958,-106,245,-402
-268,-190,961,-24,230,-405
-260,-192,972,25,202,-427
-268,-194,963,19,171,-460
-272,-184,968,40,156,-491
-268,-181,975,87,200,-523
-266,-180,980,95,240,-554
-263,-180,991,62,290,-564
-258,-179,1022,21,314,-593
-275,-182,1021,-34,304,-640
-263,-201,1001,-92,259,-683
-267,-210,987,-116,195,-724
-276,-198,981,-104,138,-759
-276,-191,965,-30,120,-784
-276,-175,970,48,140,-790
-275,-174,985,70,169,-771
-271,-180,994,89,181,-741
-291,-190,979,109,158,-769
-292,-188,974,83,144,-827
-281,-174,964,40,167,-882
-286,-160,975,52,197,-921
-282,-153,998,99,214,-941
-280,-133,991,138,263,-937
-292,-143,992,136,253,-919
-282,-152,974,95,193,-919
-286,-158,993,60,173,-921
-293,-157,970,60,156,-911
-293,-142,988,111,128,-909
-295,-136,1006,183,118,-904
-298,-126,1005,189,109,-900
-299,-121,1028,163,97,-882
-297,-142,1013,130,72,-900
-298,-129,1013,42,48,-935
-290,-141,981,-42,33,-962
-274,-144,974,-85,44,-982
-276,-123,982,-85,83,-978
-288,-117,964,-65,122,-937
-276,-125,987,-18,120,-882
-286,-129,971,60,105,-833
-274,-134,967,130,58,-812
-276,-143,988,187,23,-779
-276,-133,959,228,1,-755
-269,-128,965,242,3,-747
-281,-120,1006,218,9,-720
-288,-123,987,193,27,-695
-279,-117,997,163,23,-702
-282,-125,1005,130,33,-712
-293,-125,1017,101,42,-722
-291,-133,982,91,50,-712
-277,-142,991,117,40,-683
-281,-140,987,156,19,-650
-280,-148,986,206,1,-620
-283,-155,965,259,-3,-611
-279,-138,961,290,11,-612
-274,-132,970,310,54,-583
-279,-135,989,325,66,-558
-273,-142,985,288,54,-552
-269,-140,968,228,46,-560
-287,-140,969,189,60,-568
-279,-154,959,173,87,-577
-294,-151,974,185,117,-585
-284,-128,980,208,103,-591
-278,-141,972,228,70,-591
-291,-128,978,261,42,-564
-280,-121,976,286,13,-542
-283,-127,982,271,9,-536
-285,-113,980,230,40,-530
-276,-101,981,177,72,-538
-274,-105,981,148,93,-530
-269,-101,990,134,83,-517
-278,-98,996,142,66,-476
-269,-100,981,150,31,-437
-274,-114,965,156,9,-400
-277,-116,975,161,3,-378
-265,-121,982,142,-1,-364
-280,-120,987,115,-38,-388
-287,-106,1002,93,-104,-386
-276,-109,1001,66,-151,-364
-273,-107,1007,33,-161,-339
-263,-107,988,11,-137,-323
-266,-103,988,5,-108,-302
-261,-106,985,21,-79,-267
-258,-120,971,40,-79,-216
-258,-131,984,75,-77,-183
-254,-135,972,113,-75,-173
-262,-142,974,101,-81,-175
-262,-150,957,72,-63,-177
-261,-152,944,11,-14,-171
-258,-141,977,-24,7,-183
-250,-136,952,-26,31,-187
-256,-139,977,3,34,-159
-265,-143,964,66,17,-122
-252,-136,969,138,13,-91
-254,-131,985,165,40,-70
-260,-135,970,156,56,-70
-260,-137,985,122,60,-83
-249,-145,987,95,62,-93
-255,-145,972,91,31,-107
-246,-153,991,97,-7,-118
-259,-154,984,75,-40,-132
-268,-145,1005,36,-63,-142
-262,-152,991,-7,-71,-159
-263,-159,977,-44,-73,-173
-272,-151,980,-55,-61,-189
-259,-150,981,-71,-57,-200
-262,-154,995,-65,-83,-198
-252,-149,1003,-87,-155,-196
-259,-150,1013,-112,-219,-189
-251,-145,977,-124,-239,-195
-256,-157,977,-112,-216,-181
-249,-138,965,-112,-194,-169
-255,-173,966,-190,-225,-136
-245,-188,919,-53,-106,-177
-260,-127,991,306,195,-144
-260,-153,988,3,19,-144
-256,-153,980,-5,-3,-204
-243,-136,970,-34,-61,-208
-243,-139,979,-34,-83,-191
-238,-151,967,13,-108,-171
-248,-154,974,19,-139,-159
-246,-152,981,-12,-143,-181
-251,-146,964,-57,-133,-208
-242,-149,962,-63,-108,-212
-243,-149,966,-51,-81,-195
-226,-152,977,-32,-65,-179
-234,-152,993,13,-44,-157
-235,-146,957,54,-34,-101
-231,-160,971,77,-53,-25
-229,-168,994,97,-65,18
-236,-184,996,107,-73,36
-246,-180,980,109,-63,32
-254,-190,980,113,-16,20
-245,-183,990,117,27,14
-244,-185,998,107,48,5
-244,-186,1015,111,33,-15
-240,-189,985,97,-1,-19
-234,-174,1001,89,-18,-23
-239,-169,993,72,-20,-23
-236,-171,974,83,11,-19
-231,-154,996,83,44,-13
-232,-159,993,68,66,-1
-234,-158,994,64,58,9
-230,-149,984,81,44,18
-226,-158,990,89,34,34
-238,-164,993,89,25,34
-237,-164,996,87,25,14
-232,-139,998,66,40,-7
-236,-143,990,52,60,-15
-241,-145,993,74,62,5
-232,-134,971,107,48,28
-242,-147,977,156,56,61
-234,-145,981,161,83,75
-236,-145,983,146,117,79
-240,-146,991,118,126,85
-237,-150,977,109,109,100
-252,-149,974,97,83,112
-255,-150,974,89,70,120
-248,-151,985,58,64,98
-258,-149,971,29,72,54
-253,-154,978,-28,91,38
-240,-142,988,-36,117,48
-242,-143,995,-24,95,44
-231,-146,977,3,79,83
-243,-145,989,62,79,124
-234,-154,982,118,64,130
-251,-155,988,128,50,136
-245,-159,990,89,46,116
-250,-150,1000,40,74,89
-252,-139,994,9,74,69
-251,-148,1002,31,64,83
-267,-141,994,54,31,102
-265,-140,1002,74,23,112
-265,-145,1006,64,19,114
-251,-139,1011,38,1,96
-255,-140,996,13,-12,93
-258,-144,989,9,-36,79
-243,-135,1001,-3,-40,73
-247,-144,988,-16,-32,59
-246,-141,975,-38,-46,52
-243,-133,976,-53,-48,44
-236,-122,974,-59,-38,50
-240,-129,965,-48,-34,67
-241,-128,968,-12,-48,89
-249,-136,972,1,-59,102
-240,-139,975,-10,-44,106
-251,-154,964,-44,-24,91
-249,-153,971,-73,-5,77
-246,-148,955,-75,9,71
-242,-161,944,-79,34,54
-236,-155,964,-67,54,28
-251,-143,956,-40,77,26
-241,-144,975,-28,91,42
-257,-144,975,-3,68,52
-250,-151,973,23,40,48
-248,-158,977,27,31,36
-247,-162,964,1,34,14
-249,-164,980,-24,60,-9
-251,-162,986,-48,93,-25
-248,-151,979,-51,111,-36
-252,-151,993,-30,85,-27
-254,-147,1000,5,46,5
-261,-162,1009,44,-28,7
-262,-163,1000,48,-48,1
-261,-154,987,-5,-14,-7
-267,-160,983,-51,29,-34
-256,-155,999,-81,48,-52
-252,-165,989,-87,42,-68
-254,-140,987,-81,11,-62
-253,-142,985,-53,-12,-54
-249,-146,963,-55,-3,-46
-249,-145,963,-71,36,-50
-242,-140,953,-67,68,-54
-241,-133,966,-46,93,-32
-236,-135,970,-34,93,-15
-239,-125,971,-46,70,11
-233,-126,974,-69,72,28
-235,-131,965,-75,99,61
-281,-113,952,-75,132,134
-222,-147,961,-188,46,204
-256,-133,972,-118,163,255
-280,-140,941,-153,191,325
-276,-170,941,-329,138,448
-269,-178,977,-237,187,559
-281,-192,994,-135,183,634
-294,-210,1035,-77,191,680
-307,-199,1062,124,242,636
-337,-163,1087,296,312,585
-322,-175,1100,484,462,561
-338,-148,1152,751,786,487
-357,-176,1178,743,1156,323
-387,-192,1240,642,1804,16
-438,-153,1300,394,2628,-413
-469,-95,1440,183,3423,-792
-523,-6,1559,277,3968,-919
-555,78,1697,425,4056,-806
-594,115,1788,720,3892,-495
-645,132,1852,1058,3558,-142
-720,122,1946,1450,3109,184
-798,110,2048,1784,2552,446
-837,110,2048,2068,1876,677
-872,133,2048,2314,1011,845
-933,186,2048,2556,42,964
-985,231,2048,2740,-952,1186
-1041,238,2048,2736,-1975,1548
-1062,182,2048,2538,-3202,1876
-1072,101,2048,2066,-4659,2016
-1065,28,2048,1437,-6184,1975
-1019,-36,1982,812,-7487,1825
-937,-67,1707,226,-8467,1638
-833,-92,1408,-313,-9141,1430
-742,-136,1140,-870,-9522,1190
-637,-189,897,-1407,-9700,938
-557,-231,655,-1911,-9798,682
-464,-213,448,-2235,-9852,458
-396,-200,273,-2214,-9909,346
-319,-188,117,-1880,-10048,356
-282,-180,-16,-1395,-10182,450
-260,-193,-126,-827,-10184,612
-233,-223,-211,-210,-10016,784
-228,-252,-308,306,-9626,915
-210,-294,-367,618,-8921,934
-179,-272,-409,810,-7926,798
-144,-238,-440,911,-6725,679
-78,-188,-429,1048,-5475,499
-22,-136,-354,1173,-4366,339
12,-93,-324,1331,-3475,200
36,-37,-261,1452,-2766,151
72,23,-233,1540,-2202,159
109,38,-194,1552,-1766,188
153,55,-177,1493,-1395,177
176,65,-203,1408,-1020,75
176,90,-223,1277,-569,-70
195,135,-225,1091,-7,-179
241,165,-236,931,579,-214
273,203,-212,855,1158,-206
325,226,-193,917,1691,-169
365,241,-142,1001,2070,-99
358,254,-109,1087,2290,24
328,251,-91,1177,2382,214
283,223,-45,1292,2470,372
235,188,-41,1390,2663,520
199,170,-18,1380,2988,606
188,139,-22,1306,3460,630
158,124,8,1161,4029,657
136,139,31,1095,4693,657
124,183,95,1107,5343,737
62,213,138,1144,5937,958
10,204,188,1179,6447,1247
5,202,288,1105,6868,1489
-27,212,377,1056,7322,1704
-60,226,495,1316,7712,1944
-160,264,612,1995,7990,2227
-240,253,766,2595,8058,2423
-324,240,929,2749,7925,2411
-405,245,1044,2365,7894,2198
-467,248,1269,1509,8021,1874
-525,283,1511,820,8337,1649
-531,272,1718,392,8404,1614
-558,254,1937,283,7872,1649
-599,221,2048,361,6872,1624
-643,196,2048,243,5882,1522
-687,205,2048,31,5185,1393
-738,169,2048,-311,4673,1311
-788,83,2048,-862,4236,1270
-808,16,2048,-1383,3784,1102
-807,-33,2048,-1835,3306,862
-777,-56,2048,-2141,2759,665
-735,-80,2019,-2132,2034,569
-679,-87,1911,-1835,1187,507
-617,-83,1833,-1544,452,423
-569,-51,1739,-1380,-42,333
-515,-30,1668,-1354,-333,253
-460,-4,1580,-1450,-466,188
-444,9,1505,-1600,-524,192
-407,12,1436,-1788,-592,196
-392,-15,1371,-1925,-702,139
-374,-40,1290,-2007,-825,30
-339,-47,1215,-2014,-866,-79
-307,-56,1169,-1954,-876,-169
-286,-69,1117,-1801,-891,-257
-280,-55,1086,-1489,-913,-339
-284,-61,1095,-1110,-944,-386
-276,-44,1081,-790,-1042,-431
-275,-65,1052,-573,-1206,-501
-273,-66,1016,-479,-1329,-570
-272,-54,982,-450,-1333,-618
-254,-49,970,-335,-1155,-695
-245,-33,929,-313,-938,-689
-221,-37,946,-526,-878,-714
-196,-17,966,-436,-743,-704
-194,-24,948,-356,-589,-736
-197,-14,945,-387,-520,-777
-221,8,930,-385,-483,-761
-206,-1,939,-524,-557,-724
-199,12,940,-585,-565,-714
-180,15,938,-592,-550,-691
-182,20,964,-583,-514,-644
-181,12,961,-536,-550,-599
-166,-1,958,-442,-710,-521
-182,-3,930,-139,-592,-484
-184,-12,954,103,-426,-427
-190,-20,948,19,-358,-441
-222,7,937,-10,-169,-454
-218,0,951,-217,-120,-409
-202,7,987,-284,-94,-327
-212,-3,1000,-301,-202,-204
-207,-20,998,-204,-358,-118
-218,-12,1004,-100,-471,-101
-222,-20,1001,-65,-491,-85
-226,-27,1016,-89,-438,-46
-220,-34,1002,-137,-378,-52
-237,-47,1006,-300,-380,-71
-219,-57,996,-448,-335,-124
-224,-65,991,-518,-241,-159
-220,-53,989,-526,-153,-152
-219,-56,992,-454,-112,-126
-222,-68,996,-335,-102,-68
-214,-76,1006,-206,-120,-32
-205,-85,985,-155,-157,-34
-209,-79,960,-143,-135,-48
-207,-87,982,-169,-75,-77
-203,-79,985,-208,-28,-109
-195,-74,988,-233,-36,-138
-195,-62,989,-231,-46,-132
-196,-61,979,-190,-65,-114
-193,-62,996,-155,-79,-101
-195,-79,987,-141,-67,-91
-196,-80,983,-157,-51,-101
-189,-86,975,-176,-16,-116
-205,-73,982,-190,38,-140
-197,-76,977,-194,115,-134
-187,-74,980,-126,154,-91
-191,-81,1004,-28,130,-38
-192,-80,1015,52,83,3
-194,-90,988,52,83,7
-204,-95,998,-75,97,-25
-207,-103,993,-171,128,-68
-203,-116,989,-202,159,-93
-195,-110,991,-210,136,-124
-206,-97,993,-176,95,-136
-206,-99,992,-106,54,-122
-199,-89,1011,-34,9,-103
-204,-91,990,7,-20,-70
-208,-90,1010,-22,-28,-50
-205,-101,995,-65,-22,-56
-196,-108,990,-112,-5,-75
-207,-121,984,-145,3,-124
-215,-129,981,-151,19,-136
-216,-121,984,-133,54,-171
-222,-116,993,-137,91,-187
-206,-109,1027,-145,115,-195
-210,-122,988,-124,103,-191
-203,-118,1007,-96,74,-177
-202,-107,993,-40,46,-142
-202,-128,990,9,15,-130
-206,-120,1017,40,29,-150
-207,-123,1001,36,62,-173
-204,-120,1006,5,115,-191
-200,-122,1006,-22,161,-200
-187,-129,1016,-38,177,-202
-202,-138,1014,-36,142,-212
-213,-146,1008,-38,103,-226
-212,-138,987,-34,95,-245
-213,-133,1000,-22,83,-271
-218,-143,994,-24,58,-288
-203,-144,994,-22,44,-304
-207,-151,968,-8,36,-325
-211,-155,967,11,58,-351
-218,-145,978,29,89,-372
-214,-145,976,60,128,-388
-209,-126,982,75,161,-404
-214,-128,988,105,169,-407
-210,-119,991,122,146,-402
-222,-134,1012,117,122,-425
-207,-130,993,79,103,-456
-215,-116,1010,36,97,-486
-208,-114,975,19,117,-497
-201,-118,970,13,140,-495
-203,-110,983,27,167,-491
-205,-115,999,25,193,-487
-208,-120,996,19,214,-480
-203,-129,972,23,208,-476
-217,-141,976,25,210,-478
-235,-145,980,42,218,-487
-229,-151,985,66,218,-497
-223,-154,996,115,191,-507
-229,-146,976,140,171,-527
-217,-145,997,161,183,-544
-218,-138,1003,189,193,-546
-218,-128,992,165,193,-577
-215,-134,997,132,208,-605
-218,-144,981,85,230,-646
-228,-132,991,79,255,-655
-233,-125,999,113,281,-638
-241,-117,1022,161,273,-609
-245,-124,1031,202,236,-579
-242,-127,1024,238,191,-575
-247,-127,1027,242,154,-595
-249,-118,1019,206,138,-626
-248,-105,1019,175,130,-642
-246,-92,1023,128,134,-663
-230,-99,1024,75,138,-638
-231,-106,1035,52,111,-618
-227,-105,1015,105,62,-609
-230,-88,986,126,52,-552
-243,-120,973,118,91,-517
-239,-97,971,140,169,-501
-228,-100,984,156,255,-445
-247,-109,985,214,298,-386
-226,-112,997,279,253,-327
-226,-103,999,312,224,-337
-235,-117,993,284,126,-359
-237,-123,1000,300,89,-396
-251,-108,977,269,62,-443
-240,-102,984,242,50,-460
-239,-102,1000,202,58,-478
-229,-99,980,177,52,-521
-237,-101,1006,222,56,-558
-242,-114,995,208,36,-591
-243,-119,987,193,33,-607
-248,-116,975,179,38,-611
-248,-109,970,156,58,-644
-252,-107,967,144,99,-667
-252,-122,967,120,113,-693
-256,-119,967,120,122,-714
-240,-100,972,136,126,-732
-242,-106,977,132,124,-732
-241,-106,983,132,115,-736
-247,-106,977,130,89,-749
-239,-95,975,136,87,-759
-245,-90,980,85,95,-730
-232,-86,961,79,124,-726
-253,-90,971,89,146,-700
-246,-107,992,93,156,-695
-266,-113,983,87,128,-702
-274,-126,993,93,99,-732
-277,-136,954,40,70,-765
-260,-144,944,9,54,-816
-260,-156,913,-61,34,-862
-218,-163,900,-171,29,-898
-196,-170,874,-241,50,-964
-194,-159,872,-237,85,-1023
-197,-145,876,-210,185,-1042
-189,-151,887,-167,277,-1023
-193,-159,902,-120,316,-954
-216,-155,925,5,310,-911
-224,-162,951,42,208,-874
-247,-155,975,7,118,-902
-269,-141,993,-55,74,-917
-264,-132,987,-112,124,-933
-269,-113,987,-175,208,-931
-287,-121,1000,-200,292,-919
-264,-113,1026,-223,351,-878
-278,-100,1039,-266,324,-845
-279,-92,1031,-258,253,-782
-286,-114,1029,-231,175,-685
-295,-122,1030,-210,101,-607
-318,-112,1020,-235,21,-523
-268,-91,1009,-323,-10,-396
-259,-87,1031,-348,-71,-279
-243,-78,1040,-212,-235,-155
-241,-93,1040,-143,-313,50
-242,-107,1014,-91,-401,24
-258,-106,1042,27,-399,-50
-252,-114,1019,-14,-383,-116
-242,-110,1029,-51,-356,-185
-249,-103,1044,-53,-337,-269
-263,-94,1027,-24,-301,-320
-259,-95,1024,-3,-243,-327
-259,-105,1037,-14,-165,-335
-259,-107,1022,-77,-110,-372
-253,-109,1027,-147,-89,-402
-240,-103,1006,-169,-91,-415
-229,-103,1018,-139,-96,-404
-230,-109,994,-106,-118,-374
-230,-119,1007,-51,-116,-327
-251,-129,994,-28,-120,-298
-240,-126,984,3,-116,-314
-243,-140,990,-12,-71,-312
-238,-147,997,-30,-30,-320
-236,-144,968,-22,-14,-343
-244,-133,962,23,-20,-353
-236,-135,980,75,-7,-331
-234,-133,993,148,-18,-294
-234,-140,993,185,-51,-263
-232,-143,977,193,-73,-294
-246,-153,995,171,-46,-323
-234,-154,970,117,-1,-362
-243,-146,999,60,23,-409
-241,-139,1001,42,64,-443
-230,-145,989,-12,89,-450
-216,-145,988,-53,128,-450
-215,-152,983,-161,132,-478
-221,-145,974,-276,146,-542
-234,-149,954,-335,236,-544
-221,-155,968,-389,284,-525
-223,-154,963,-434,267,-530
-199,-171,947,-524,228,-542
-164,-201,941,-862,109,-720
-115,-209,912,-1663,13,-1091
-179,-267,858,-2632,210,-1679
-260,-252,871,-3165,706,-2195
-289,-195,908,-3204,1732,-2341
-288,-184,985,-3061,2763,-2155
-281,-215,1058,-2825,3134,-1900
-289,-230,1136,-2116,3214,-1529
-299,-257,1158,-1325,3072,-1220
-344,-257,1211,-567,2857,-964
-385,-282,1271,85,2712,-820
-428,-269,1352,462,2685,-734
-485,-250,1391,511,2777,-644
-531,-266,1451,460,3031,-437
-579,-280,1534,394,3406,-179
-623,-286,1620,538,3644,42
-680,-300,1747,976,3556,304
-740,-268,1840,1603,3120,520
-795,-236,1976,2353,2482,757
-867,-204,2048,3033,1708,950
-915,-172,2048,3568,890,1194
-970,-218,2048,3845,-91,1438
-1000,-247,2048,4044,-1212,1602
-1066,-259,2048,4081,-2462,1663
-1092,-257,2048,3849,-3747,1630
-1099,-262,2048,3437,-4882,1645
-1093,-278,2048,3124,-5870,1696
-1079,-301,1956,2900,-6780,1696
-1054,-320,1800,2683,-7581,1720
-968,-349,1432,1968,-8958,1680
-1037,-330,1619,2370,-8272,1731
-921,-330,1262,1579,-9651,1583
-848,-284,1098,1408,-10276,1477
-740,-251,922,1544,-10819,1395
-629,-213,733,1566,-11387,1284
-546,-201,541,1474,-11844,1104
-459,-182,332,1169,-12126,882
-386,-169,97,626,-12112,643
-317,-121,-118,-22,-11784,341
-266,-56,-346,-733,-11194,46
-189,1,-519,-1245,-10262,-107
-71,16,-628,-1350,-9059,22
55,19,-695,-1180,-7848,280
114,17,-734,-938,-6680,481
118,17,-738,-639,-5501,606
100,18,-695,-442,-4405,696
113,13,-649,-409,-3432,718
123,-1,-605,-501,-2614,657
141,-27,-565,-632,-1903,460
161,-7,-552,-653,-1245,180
197,39,-530,-579,-606,-56
217,109,-515,-374,19,-175
252,161,-466,-18,581,-120
290,203,-408,308,1113,116
334,212,-358,579,1640,389
346,215,-291,742,2074,630
346,208,-223,835,2452,829
326,207,-173,908,2779,1014
300,196,-142,1015,3081,1192
240,175,-81,1175,3337,1374
193,162,-52,1324,3654,1524
165,149,24,1411,4060,1606
143,167,86,1501,4490,1641
129,201,175,1507,4898,1737
104,230,259,1542,5314,1919
89,242,315,1683,5640,2202
64,192,378,1706,5794,2454
-2,138,393,1482,5890,2573
-49,104,393,997,6015,2507
-101,133,457,617,6427,2384
-164,181,544,818,7062,2348
-228,228,636,1277,7671,2526
-290,215,769,1585,8165,2960
-299,116,938,1622,8433,3366
-359,3,1095,997,8419,3528
-420,-95,1245,161,8271,3329
-507,-159,1357,-200,8097,2999
-605,-230,1479,-274,7863,2714
-681,-287,1614,-448,7587,2557
-815,-339,1732,-610,7382,2491
-899,-432,1918,-536,7345,2421
-916,-474,2048,-448,7247,2286
-925,-566,2048,-579,6841,2001
-925,-582,2048,-800,6033,1614
-915,-509,2048,-987,4943,1216
-929,-469,2048,-1219,3794,919
-900,-413,2048,-1260,2753,743
-828,-349,2048,-1301,1859,575
-746,-313,2048,-1581,1033,307
-683,-327,2048,-1993,450,52
-596,-261,1952,-2022,308,-280
-521,-256,1787,-2048,154,-345
-472,-270,1710,-1952,-32,-433
-444,-236,1627,-1620,-331,-376
-447,-238,1550,-1301,-854,-259
-462,-255,1434,-1147,-1382,-109
-490,-240,1364,-1028,-1637,-13
-508,-200,1253,-958,-1546,210
-449,-155,1229,-995,-1368,397
-403,-151,1199,-1169,-1378,423
-328,-173,1102,-1270,-1620,225
-347,-201,925,-1171,-1870,95
-284,-141,653,409,-2425,-513
-214,-135,457,3450,-3155,-501
-184,-62,1006,6132,-3378,-99
-267,-90,1118,4710,-2382,348
-251,-7,1043,2378,-1809,454
-199,-25,867,1189,-1669,305
-225,-48,732,1079,-1813,345
-209,-72,744,1304,-1936,268
-240,-70,735,1101,-1667,69
-282,47,763,572,-1276,1
-183,-60,752,-464,-688,243
-156,-26,760,-55,-645,108
-150,262,1097,413,-1003,44
-56,117,946,-1032,-1565,718
-113,321,1087,-460,-1471,821
-247,115,1013,-477,-1264,753
-154,45,870,-889,-952,608
-80,7,782,-458,-731,559
-170,-88,806,316,-741,567
-170,-153,791,816,-579,388
-153,-181,810,798,-219,122
-243,-215,847,585,66,-335
-244,-165,900,347,251,-952
-123,-82,865,204,310,-1286
-34,47,868,413,286,-1066
-6,123,1062,859,68,-716
-175,136,1139,546,-126,-591
-91,203,1117,-233,224,-445
-52,202,1101,-311,318,-134
-157,61,1084,97,140,83
-186,-13,1020,492,-50,-109
-194,-34,1015,408,75,-228
-219,-28,1029,165,370,-325
-273,-347,879,136,105,-517
-105,-293,889,368,-393,-474
-70,-106,941,658,-669,-357
-89,91,1180,523,-1081,-142
-141,113,1180,-686,-899,151
-282,-27,1100,-1762,-950,430
-215,18,1081,-2005,-1149,221
-137,122,1140,-1604,-1231,-52
-74,126,1117,-1464,-917,-54
-45,145,1102,-1354,-393,304
-49,-33,1046,-1161,-217,651
-62,-28,1048,-1024,-374,852
-69,-98,1105,-1397,-366,909
-56,-146,1039,-2594,-284,1030
-69,-107,840,-3495,-307,1432
-202,-126,726,-3475,-434,673
-49,303,678,-2936,-827,5
55,176,831,-3944,-1745,-737
-78,-20,1139,-2874,-2848,-1155
-167,-251,1266,-733,-2469,-1280
-142,-386,1216,581,-2098,-892
-215,-356,1151,618,-1042,-263
-218,-261,1197,700,-53,440
-186,-248,1175,1142,507,897
-143,-206,1087,1519,894,1247
-122,-165,1032,1646,1236,1329
-159,-89,975,1523,1361,1182
-205,-57,983,1242,1072,866
-235,-47,1019,827,607,552
-262,-95,1028,556,273,343
-239,-128,1111,202,113,321
-149,-138,1135,109,128,395
-122,-132,1105,376,294,464
-73,-107,1068,464,439,505
-40,-85,1024,529,488,470
-34,-67,993,493,357,331
-24,-61,985,339,167,177
-27,-59,978,255,93,116
-25,-57,972,152,70,110
-54,-58,987,56,-24,81
-88,-68,994,36,-159,36
-78,-89,1020,-1,-311,-15
-91,-135,1029,3,-421,-111
-69,-134,1046,56,-481,-155
-42,-126,1020,167,-501,-208
-26,-91,978,288,-450,-251
-41,-67,985,288,-313,-261
-58,-60,993,263,-208,-282
-102,-57,1001,269,-176,-273
-120,-38,1003,263,-151,-193
-116,-60,984,265,-61,-87
-115,-22,972,226,-14,1
-106,-7,961,159,29,63
-102,-21,977,81,-8,36
-95,-55,1013,-16,-132,-48
-77,-53,1023,46,-176,-95
-63,-62,1011,126,-198,-138
-80,-50,997,161,-290,-189
-90,-49,991,214,-333,-220
-86,-37,993,210,-333,-208
-82,-35,968,193,-272,-193
-98,-32,968,154,-239,-175
-97,-15,970,74,-251,-152
-105,-21,960,1,-216,-83
-96,-30,977,-98,-204,-40
-107,-52,1005,-196,-223,-19
-105,-69,1018,-163,-194,67
-74,-69,1013,-63,-116,167
-54,-86,1024,-34,-53,214
-51,-65,1018,5,-20,231
-33,-58,1014,81,-14,225
-26,-46,998,124,66,223
-31,-29,972,58,120,218
-47,-39,1006,-8,105,179
-56,-43,998,-32,66,134
-57,-53,1013,-50,44,100
-52,-49,1009,-59,36,93
-61,-52,1010,-48,-32,50
-59,-45,1002,-26,-79,36
-62,-48,986,-24,-106,52
-56,-63,1010,-42,-143,67
-53,-81,1016,-75,-130,79
-33,-102,1046,-67,-63,71
-32,-92,1039,38,-44,20
-62,-81,994,105,-1,-27
-94,-75,991,11,33,-29
-101,-74,1021,-38,23,3
-78,-79,1007,-51,31,34
-71,-82,1017,-71,87,65
-84,-73,1026,-87,97,65
-70,-81,1021,-106,93,59
-71,-83,1039,-147,64,11
-62,-93,1050,-161,34,-21
-70,-107,1055,-133,17,-54
-91,-101,1074,-79,-18,-101
-101,-117,1058,-28,-32,-85
-81,-115,1050,58,29,-29
-77,-95,1043,85,62,13
-75,-79,1033,91,97,28
-74,-70,1029,97,83,14
-81,-78,1010,75,15,-11
-119,-112,1022,-98,-18,-113
-108,-105,1024,-90,11,-117
-121,-105,1018,-88,50,-138
-127,-106,1026,-60,-26,-191
-137,-108,1029,-41,-59,-244
-148,-118,1036,-17,-32,-242
-147,-106,1001,-23,9,-218
-152,-113,1001,-10,41,-224
-162,-105,1007,4,3,-222
-150,-90,1011,-17,21,-185
-160,-95,997,-37,43,-173
-156,-103,1016,-76,27,-181
-139,-100,1024,-82,-2,-209
-148,-97,1022,-70,-20,-218
-130,-94,1024,-58,17,-207
-115,-98,1012,-66,74,-195
-109,-85,996,-78,99,-226
-119,-84,990,-68,93,-275
-131,-80,1002,-62,60,-330
-147,-93,1017,-74,60,-369
-175,-83,1030,-94,89,-324
-183,-76,1029,-99,119,-289
-163,-82,1033,-74,197,-240
-173,-84,1011,-90,363,-189
-167,-74,1024,-64,441,-179
-150,-73,1000,-70,480,-205
-147,-56,954,-76,490,-279
-144,-48,913,-90,474,-369
-122,-39,874,-219,406,-455
-103,-30,859,-344,273,-562
-86,-40,856,-476,218,-699
-139,-46,867,-504,-18,-845
-227,-69,926,-547,-479,-986
-250,-70,1016,-619,-811,-1017
-247,-64,1055,-592,-858,-865
-245,-80,1055,-541,-743,-648
-259,-80,1109,-562,-786,-488
-254,-88,1108,-555,-823,-365
-251,-92,1122,-500,-846,-253
-213,-108,1151,-447,-907,-162
-183,-97,1098,-404,-897,-50
-149,-118,1074,-432,-864,69
-137,-135,1058,-443,-901,80
-147,-168,1048,-424,-1049,-76
-177,-212,1108,-465,-1221,-230
-202,-225,1120,-404,-1331,-289
-136,-199,1123,115,-1323,-367
-161,-115,1118,709,-1096,-253
-137,-219,1035,686,-1196,-152
-51,-212,1096,299,-1274,-226
-38,-306,1071,414,-1155,-171
89,-200,1131,-238,-641,-2
304,-290,1104,231,-305,-121
110,482,765,139,-264,161
-44,-1019,2048,1969,-252,-248
69,-524,1161,2076,-100,-691
-70,-323,1196,1881,453,-332
-77,-301,1215,1723,882,-171
-139,-276,1208,1789,912,-41
-226,-281,1139,2424,1636,71
252,-213,845,3479,1392,143
-298,-113,928,3057,1080,-431
-200,-78,965,2131,2904,-832
49,-65,1258,1033,2927,-142
-88,62,976,1947,1998,-382
-99,164,937,1807,189,-650
-56,219,828,1522,-1135,-923
-91,102,827,776,-1885,-1082
98,89,950,-191,-1541,-853
202,12,948,-828,-844,-496
245,-17,986,-869,39,-587
-133,-127,1185,-953,72,-572
-387,-31,1066,-685,1039,-11
-397,45,1001,-945,992,545
-364,185,889,-877,550,729
-281,130,911,-762,-666,506
-285,65,1005,-266,-1756,82
-304,127,1020,320,-2516,-263
-172,83,1071,836,-3518,-671
-71,36,1195,971,-4840,-972
322,-146,968,-635,-7426,-1488
263,-126,949,129,-6717,-1320
340,-19,1137,2027,-3178,-619
366,13,1046,1744,-1116,151
144,-143,965,219,-817,424
58,-203,954,-588,-1272,-148
6,-136,954,-199,-1094,-767
67,-38,927,145,-745,-1023
60,9,955,180,-518,-929
80,77,886,10,121,-787
125,95,887,-2,779,-539
125,125,1107,-101,1377,-423
186,123,1004,-1117,2382,-361
266,149,936,-1639,1859,-87
184,146,832,-1365,1543,254
171,209,883,-594,1392,639
-124,113,1028,627,1517,1297
62,-42,1092,412,1248,948
46,26,920,-1465,1337,768
-86,45,832,-2318,1546,815
-196,-58,896,-2246,1855,1075
-58,-28,876,-1314,2228,1192
-33,-96,866,-1822,1957,1024
1,-119,843,-2080,2105,1110
45,-112,896,-1473,2175,1036
54,-106,938,-836,1835,823
-20,-65,971,-84,1400,815
-54,-122,971,416,1041,993
-164,-17,940,631,904,938
-204,-91,970,664,1087,28
-76,-257,993,592,1650,-746
-24,-211,1054,373,1658,-613
-108,-163,1047,49,1248,-570
-146,-159,1049,-76,757,-670
-119,-184,1009,57,539,-642
-76,-191,1004,-88,302,-406
-62,-243,971,529,490,-250
-150,-103,976,701,752,75
-193,-154,991,268,691,-203
-176,-140,962,162,712,-447
-164,-86,1014,277,750,-552
-155,-107,1056,303,617,-630
-141,-90,1065,365,320,-630
-110,-49,1090,277,-141,-548
-131,-79,1095,272,-737,-400
-94,-68,1032,279,-1297,-347
-125,-9,918,293,-1641,-209
-121,-19,806,926,-1182,-132
-31,-55,1016,1141,-475,-134
-73,-46,986,947,-266,-220
-59,-56,884,811,-34,-660
-97,-56,821,744,1000,-1355
-176,-17,988,1104,2199,-2015
-102,52,1136,1225,1902,-2343
-101,95,1043,600,1210,-2709
-194,43,1004,760,873,-2707
-180,9,954,1108,554,-2343
-202,10,989,1373,388,-1931
-157,99,1048,1434,293,-1451
-134,29,1014,1035,230,-1269
-179,-16,992,768,37,-961
-205,-37,997,779,-26,-705
-239,-55,994,693,78,-515
-235,-48,1031,574,265,-328
-226,-35,1056,307,386,-214
-194,-11,1072,63,562,-248
-206,30,1082,-240,578,-293
-200,-12,1102,-359,396,-222
-174,8,1113,-412,210,-168
-172,-15,1067,-549,-2,-101
-172,-1,1072,-486,-143,-23
-177,3,1046,-430,-248,69
-170,-3,998,-410,-260,180
-179,-40,991,-316,-258,268
-177,-56,1001,-164,-221,315
-180,-39,1004,67,-176,334
-174,-30,1055,266,-198,373
-183,11,1045,250,-233,495
-172,-60,1071,49,-270,579
-122,-83,1032,-144,-403,555
-238,-14,1049,-277,-450,538
-168,-32,996,-849,-465,498
-282,-17,1009,-1010,-82,516
-248,32,939,-1230,140,563
-152,-50,984,-1047,429,346
-206,-69,960,-1156,638,913
-168,-67,948,-1072,554,1120
-129,-87,1011,-1152,570,1096
-148,-115,1057,-1203,519,891
-127,-114,1020,-974,273,547
-125,-74,1005,-705,-92,305
-107,-53,1026,-439,-459,211
-108,-57,1021,-64,-893,350
-103,-29,991,274,-1436,485
-164,-57,975,473,-1633,623
-188,-68,969,500,-1514,762
-166,-81,974,320,-1194,668
-143,-53,1009,65,-887,497
-98,-15,1014,-176,-674,518
-119,-21,992,-219,-547,512
-73,7,1004,-43,-448,452
-74,-4,996,229,-332,194
-82,-10,997,385,-256,24
-105,18,993,510,-110,-154
-83,4,1036,572,-10,-156
-81,10,1034,547,33,-134
-106,-13,1010,479,54,-130
-81,-7,1032,399,146,-91
-91,1,1058,242,164,-37
-103,7,1059,90,70,-11
-115,-7,1047,61,111,163
-48,17,942,88,99,198
-130,-25,951,1172,984,580
-144,-48,1079,836,960,436
-146,-37,1063,637,625,237
-160,-13,1043,508,470,159
-138,-19,1043,352,353,127
-153,-17,1029,264,252,139
-136,-4,1016,188,130,166
-139,-8,1025,154,43,176
-139,-16,1007,178,-26,159
-136,6,990,170,-92,164
-135,2,915,301,60,190
-166,5,927,615,431,245
-127,-12,974,654,668,299
-142,-6,975,606,787,256
-133,0,996,526,968,231
-144,-16,1026,371,1033,223
-141,-29,1057,254,1058,207
-165,-34,1062,135,1037,163
-168,-42,1066,57,1017,102
-177,-20,1095,70,1043,61
-175,-16,1085,133,1107,49
-164,-4,1114,197,1236,49
-161,-1,1152,254,1433,32
-166,14,1192,305,1640,-19
-187,28,1280,352,1791,-121
-155,1,1362,268,1855,-70
-220,76,1455,277,1816,-377
-245,91,1531,160,1769,-431
-281,139,1589,176,1625,-502
-294,159,1658,281,1429,-408
-311,157,1735,377,1185,-232
-335,109,1749,484,847,-52
-342,39,1778,568,455,26
-386,7,1817,565,107,-60
-438,0,1886,383,-98,-236
-469,9,1926,100,-209,-382
-448,19,1977,-84,-373,-498
-438,59,2048,78,-655,-578
-449,120,2048,559,-1145,-574
-517,198,2048,1209,-1786,-425
-582,265,2048,1793,-2541,-185
-665,284,2048,2026,-3456,190
-713,247,2048,1863,-4518,543
-790,166,2048,1432,-5721,702
-834,83,1920,967,-6858,719
-852,-12,1601,506,-7696,666
-858,-76,1260,-70,-8065,489
-815,-112,924,-836,-7934,231
-704,-113,570,-1701,-7420,-99
-569,-66,212,-2484,-6600,-253
-311,-34,-117,-2826,-5729,-306
-126,-62,-368,-2146,-4920,-115
-27,-159,-529,-641,-4399,440
-5,-314,-637,951,-3963,981
16,-401,-681,1889,-3172,1235
31,-463,-679,1863,-1946,1084
74,-406,-601,1305,-733,452
195,-234,-527,608,162,-410
286,-33,-479,307,591,-1027
370,169,-393,541,753,-1128
401,283,-230,1209,761,-738
357,341,-64,2074,531,-150
313,355,155,2828,183,360
256,354,303,3080,-186,700
191,328,446,2772,-405,827
149,278,565,2119,-354,754
107,261,649,1463,-155,481
103,274,740,918,48,161
113,299,784,481,134,-60
150,326,830,236,209,-70
175,336,857,199,273,71
169,328,923,340,347,307
182,315,978,539,384,539
175,297,1023,723,369,696
153,271,1038,850,300,766
151,246,1101,859,222,711
142,252,1106,699,140,551
133,274,1117,440,113,315
144,309,1141,170,189,122
143,344,1133,-27,257,18
141,388,1144,-228,265,0
149,411,1134,-473,238,38
153,439,1108,-648,179,112
169,460,1072,-687,87,254
180,457,1045,-594,-77,436
194,465,1007,-445,-225,633
188,466,997,-324,-346,807
183,466,980,-215,-424,909
179,478,967,-119,-448,967
203,487,952,-78,-452,1036
212,498,939,-131,-444,1143
216,511,906,-185,-444,1252
232,509,892,-228,-424,1395
215,518,853,-266,-381,1534
197,508,840,-305,-313,1707
188,484,794,-357,-256,1891
174,443,769,-373,-190,2039
191,404,741,-334,-88,2168
178,378,734,-342,7,2327
163,342,702,-369,123,2491
153,300,687,-349,252,2637
142,238,674,-344,361,2788
121,182,675,-373,416,2879
100,123,655,-414,451,2913
96,60,622,-424,484,2897
50,31,619,-379,543,2821
43,9,580,-330,681,2741
37,1,590,-322,880,2739
34,-22,602,-303,1107,2889
48,-68,617,-279,1334,3135
28,-143,625,-178,1418,3323
1,-214,659,27,1419,3375
-38,-259,702,129,1468,3286
-44,-304,729,135,1525,3092
-41,-332,727,27,1556,2877
-35,-344,725,-146,1568,2637
-27,-377,702,-310,1634,2399
5,-372,685,-430,1828,2190
41,-385,718,-471,2091,2110
49,-378,750,-381,2291,2080
33,-393,770,-277,2500,2051
12,-428,814,-217,2683,2065
-24,-478,855,-137,2722,2018
-46,-515,876,-88,2664,1873
-70,-530,893,-96,2613,1641
-71,-589,888,-123,2619,1395
-103,-576,916,-119,2707,1086
-107,-516,971,-74,2871,809
-138,-469,1035,22,3033,622
-164,-432,1113,127,3203,393
-181,-418,1193,27,3386,172
-209,-414,1276,-293,3455,-70
-215,-411,1325,-652,3347,-322
-219,-448,1311,-873,3064,-515
-226,-461,1294,-857,2759,-673
-239,-451,1251,-701,2521,-806
-243,-438,1277,-414,2384,-968
-262,-407,1292,-137,2339,-1170
-282,-361,1310,-88,2382,-1345
-309,-343,1336,-121,2449,-1533
-312,-272,1370,-99,2480,-1779
-325,-198,1431,-51,2455,-1943
-349,-173,1461,-16,2291,-1964
-345,-195,1440,-14,2005,-1937
-357,-243,1397,-45,1648,-1931
-371,-280,1324,-8,1316,-1957
-396,-312,1245,156,1041,-2033
-413,-304,1235,430,884,-2173
-418,-228,1244,707,873,-2416
-423,-127,1287,988,1025,-2707
-419,-34,1366,1063,1156,-2859
-411,14,1406,918,1177,-2916
-421,26,1404,692,998,-2920
-421,48,1383,500,695,-2867
-424,70,1326,422,332,-2796
-418,118,1285,578,37,-2763
-426,113,1242,930,-94,-2726
-410,178,1214,1318,-135,-2652
-413,147,1227,1227,-223,-2564
-421,144,1175,1131,-309,-2545
-421,175,1185,973,-405,-2578
-418,282,1153,889,-489,-2599
-360,348,1159,990,-461,-2582
-299,453,1114,1047,-301,-2423
-287,380,1153,975,-274,-2185
-272,413,1082,996,-313,-2158
-294,426,1000,1008,-352,-2054
-291,374,1055,912,-346,-1900
-298,366,957,721,-471,-1769
-302,362,931,496,-555,-1607
-296,353,903,510,-563,-1505
-271,380,919,531,-563,-1375
-272,388,946,358,-571,-1189
-260,375,916,133,-541,-992
-234,361,903,12,-540,-795
-215,337,913,-88,-545,-601
-202,299,918,-172,-555,-421
-194,254,918,-178,-629,-275
-193,214,907,-135,-688,-140
-197,169,926,-64,-725,-41
-213,127,936,-49,-786,-5
-217,90,906,-80,-774,-29
-231,61,907,-195,-645,-70
-213,43,932,-336,-477,-109
-214,39,929,-402,-336,-125
-210,29,955,-387,-231,-113
-206,30,967,-267,-174,-97
-203,29,992,-156,-172,-76
-189,21,1007,-141,-178,-7
-194,15,1013,-209,-155,39
-188,1,1003,-252,-110,86
-214,-43,1024,-264,-20,168
-206,-41,1017,-254,-2,129
-201,-42,1033,-224,54,159
-227,-52,1032,-240,111,188
-200,-71,1039,-228,142,131
-222,-48,1011,-242,259,157
-205,-48,1028,-316,330,174
-192,-61,1050,-355,322,245
-211,-79,1071,-342,158,284
-235,-68,1051,-299,-77,276
-231,-106,1078,-307,-286,190
-245,-70,1067,-406,-430,94
-285,-61,1049,-588,-532,69
-229,-57,1067,-730,-649,65
-214,-40,1042,-674,-715,102
-214,-60,1039,-564,-805,112
-190,-65,1010,-443,-956,147
-189,-82,962,-51,-653,379
-177,-133,996,-80,-579,266
-158,-79,1022,-103,-645,51
-163,-46,984,-221,-659,-99
-169,-52,965,-275,-510,-173
-163,-46,975,-224,-313,-179
-133,-37,993,-162,-243,-162
-134,-40,969,-84,-272,-156
-139,-41,983,18,-286,-134
-160,-55,954,121,-258,-111
-153,-66,974,164,-190,-115
-159,-58,987,139,-116,-160
-152,-62,993,106,-57,-191
-141,-61,1006,67,-30,-173
-140,-67,1012,59,-26,-214
-139,-45,1021,70,-65,-199
-144,-52,980,90,-112,-199
-157,-47,983,143,-125,-168
-160,-42,999,178,-84,-156
-153,-33,1006,211,-38,-142
-152,-35,1015,242,-18,-97
-160,-56,1007,281,-20,-72
-162,-49,1006,303,-22,-91
-175,-53,1022,289,-30,-127
-174,-46,1011,229,2,-166
-172,-42,1017,135,64,-191
-168,-30,1022,123,127,-183
-172,-24,1015,184,119,-158
-172,-34,1021,242,87,-125
-154,-27,1019,262,54,-99
-157,-26,1025,283,9,-56
-156,-41,1009,281,-24,-39
-166,-37,1005,262,-10,-48
-167,-39,993,240,27,-39
-172,-44,989,221,41,-54
-164,-39,999,205,72,-74
-156,-39,997,178,84,-80
-162,-37,986,182,60,-86
-160,-36,991,174,56,-99
-161,-34,1001,141,76,-121
-164,-37,1009,111,87,-146
-163,-30,1002,100,93,-162
-162,1,990,108,103,-146
-159,-4,1008,154,103,-80
-161,6,989,213,103,-35
-160,-3,1009,192,97,2
-159,-3,1018,160,76,12
-160,-2,1007,125,58,18
-154,-6,1001,80,35,20
-153,-3,1015,43,-20,22
-167,-13,1000,0,-63,16
-171,-14,1017,-33,-40,-2
-170,-18,1028,-68,7,-27
-167,4,1009,-137,9,-29
-156,-29,1054,-215,-20,8
-174,17,1022,-185,-90,51
-169,-12,984,70,66,161
-166,-48,1040,322,250,168
-169,-29,1055,184,95,92
-175,-27,1026,119,41,90
-176,-38,1007,98,72,67
-169,-44,1025,74,113,18
-158,-37,1047,72,93,-17
-163,-22,1041,51,37,-25
-159,-27,1029,61,-12,-25
-147,-30,998,45,-57,-11
-144,-46,1014,-76,-102,-46
-150,-50,1008,-269,-123,-87
-170,-27,1000,-490,-118,-154
-185,-12,1001,-488,-22,-156
-177,-19,1013,-351,99,-105
-176,-14,1017,-84,205,-82
-169,-31,1043,4,171,-62
-180,-32,1033,-6,68,-60
-187,-48,1016,-84,31,-93
-173,-59,1010,-238,11,-138
-182,-28,1016,-361,19,-187
-165,-25,1007,-408,72,-250
-167,-29,1004,-432,97,-281
-148,-34,1023,-476,23,-287
-157,-26,1006,-441,-79,-277
-144,-23,1006,-324,-204,-234
-154,-32,1008,-224,-356,-197
-167,-29,1004,-51,-373,-199
-159,-45,1001,45,-317,-281
-175,-66,1019,109,-202,-330
-174,-52,1014,111,-94,-353
-177,-57,1013,98,3,-386
-182,-22,1020,94,74,-412
-166,-49,1007,129,164,-509
-168,-55,1006,98,205,-525
-180,-48,994,68,207,-462
-170,-31,1014,68,252,-418
-150,-13,1001,100,318,-427
-165,-45,1006,137,357,-384
-160,-20,990,244,308,-232
-170,-61,1018,277,252,-146
-175,-47,1007,266,195,-148
-167,-62,1009,147,222,-152
-156,-40,1000,137,244,-140
-162,-46,993,137,285,-70
-168,-28,987,236,312,4
-165,-32,1000,367,296,112
-176,-49,1000,414,296,227
-191,-37,1000,391,294,254
-197,-39,1020,350,343,256
-207,-48,1013,299,404,237
-193,-35,987,291,435,225
-208,-14,978,346,502,227
-201,-24,1005,324,568,235
-194,-23,1004,272,621,250
-213,-18,1021,188,654,243
-218,-17,1021,78,683,245
-215,-13,1034,14,726,268
-213,-28,1020,-4,710,274
-215,-35,1010,18,677,264
-235,-28,1045,76,664,293
-246,-23,1037,121,675,325
-238,-47,1041,131,712,350
-246,-39,1086,102,742,336
-256,-42,1081,94,759,299
-263,-29,1127,84,777,278
-242,-1,1163,2,787,293
-231,10,1214,-47,851,260
-226,33,1260,-23,910,231
-206,46,1319,70,968,209
-209,51,1406,262,960,168
-230,52,1510,551,869,45
-275,117,1635,809,736,-185
-281,185,1740,965,777,-443
-281,263,1892,969,843,-630
-296,330,2002,791,832,-695
-334,308,2048,328,724,-570
-387,225,2048,-195,443,-302
-439,142,2048,-500,-104,-121
-479,85,2021,-471,-807,-87
-493,37,1930,-217,-1567,-3
-502,-16,1842,221,-2342,245
-511,-51,1757,758,-3047,485
-534,-92,1683,1184,-3575,659
-559,-112,1619,1391,-3936,727
-557,-103,1588,1402,-4145,678
-553,-109,1495,1289,-4301,539
-514,-78,1442,1178,-4397,375
-473,-42,1390,1012,-4459,200
-428,-10,1303,801,-4616,96
-406,-15,1170,580,-4827,98
-360,14,990,326,-5041,149
-330,-14,821,160,-5247,227
-286,-40,615,18,-5366,311
-239,-65,419,-117,-5301,344
-193,-95,227,-248,-5047,362
-137,-156,60,-301,-4651,368
-87,-189,-80,-209,-4165,325
-51,-230,-197,-74,-3565,235
-12,-208,-272,-2,-2745,151
22,-199,-254,139,-1850,82
38,-158,-192,397,-1159,39
56,-102,-113,697,-723,38
65,-66,-11,1047,-549,86
74,-1,64,1324,-512,86
97,33,153,1424,-438,96
128,82,269,1344,-344,61
128,118,340,1158,-248,-11
157,150,408,969,-131,-86
177,181,451,742,43,-146
202,203,534,561,246,-211
213,242,594,430,439,-236
244,249,692,365,587,-152
260,246,749,440,597,-19
261,254,812,609,539,123
265,258,897,793,443,276
257,257,949,902,351,379
215,261,994,918,306,411
189,269,1021,793,294,370
158,307,1064,590,334,321
140,315,1082,367,402,319
133,327,1091,180,418,336
137,311,1086,43,382,391
117,316,1079,-19,308,428
102,329,1087,-33,189,498
98,337,1096,-53,72,565
102,349,1099,-57,0,620
103,357,1102,-72,-61,643
121,362,1128,-133,-90,678
125,373,1120,-205,-157,721
136,385,1088,-266,-280,793
151,401,1090,-281,-440,868
158,419,1047,-226,-575,979
155,405,1001,-150,-694,1120
156,385,986,-35,-750,1213
163,387,958,61,-741,1248
183,387,924,76,-661,1270
194,413,914,16,-545,1305
203,441,925,-107,-434,1424
212,428,915,-254,-332,1608
218,410,879,-340,-323,1774
218,387,850,-346,-336,1885
205,369,847,-340,-336,1985
218,342,793,-346,-334,2100
217,308,765,-305,-272,2211
207,294,731,-238,-157,2297
213,262,741,-150,-20,2379
203,239,719,-105,99,2452
181,214,685,-123,199,2500
165,163,682,-123,298,2524
149,139,694,-90,404,2510
137,112,671,-96,515,2532
133,93,689,-191,619,2612
117,57,662,-287,703,2713
83,25,646,-310,750,2825
65,-36,621,-267,793,2899
57,-113,591,-154,832,2957
39,-154,568,-6,867,2907
15,-173,549,109,988,2770
11,-184,567,180,1214,2659
6,-194,581,193,1412,2577
21,-213,600,182,1591,2520
42,-251,658,192,1750,2536
26,-280,703,324,1783,2522
-2,-312,715,434,1794,2434
-18,-327,708,399,1867,2303
-36,-364,717,260,1992,2131
-53,-387,748,70,2136,1922
-48,-418,768,-60,2322,1663
-55,-412,804,-141,2525,1424
-81,-397,829,-176,2673,1241
-86,-397,858,-99,2755,1151
-100,-412,905,20,2773,1077
-113,-432,942,55,2761,977
-136,-486,951,-27,2777,840
-161,-519,952,-152,2828,582
-182,-524,937,-328,2939,221
-212,-531,969,-560,3109,-160
-206,-509,990,-766,3316,-546
-206,-481,1033,-930,3558,-857
-231,-434,1111,-992,3705,-1078
-233,-409,1137,-935,3703,-1158
-248,-409,1201,-771,3548,-1148
-275,-403,1216,-582,3220,-1123
-283,-420,1205,-469,2855,-1181
-275,-418,1214,-326,2628,-1293
-282,-439,1218,-314,2484,-1402
-301,-440,1214,-389,2377,-1523
-305,-417,1223,-506,2355,-1703
-330,-374,1233,-564,2431,-1871
-344,-326,1297,-541,2503,-1984
-362,-281,1362,-437,2492,-2062
-364,-250,1384,-346,2386,-2054
-367,-277,1414,-254,2207,-1937
-380,-322,1378,-131,1878,-1869
-420,-345,1371,55,1503,-1937
-458,-312,1369,199,1230,-2068
-516,-250,1383,301,1138,-2175
-546,-213,1439,363,1128,-2228
-563,-171,1466,397,1033,-2281
-585,-139,1457,367,855,-2373
-590,-140,1438,195,652,-2486
-573,-147,1385,-27,509,-2617
-557,-132,1328,-223,425,-2750
-539,-67,1326,-248,353,-2859
-527,-24,1297,-123,267,-2927
-512,9,1268,14,144,-2933
-484,29,1229,96,19,-2878
-467,43,1156,108,-81,-2841
-462,105,1120,158,-116,-2826
-450,185,1114,359,-45,-2826
-398,273,1161,652,72,-2812
-374,316,1205,848,29,-2699
-352,351,1191,846,-166,-2539
-354,357,1166,701,-385,-2357
-341,339,1133,461,-543,-2175
-337,341,1072,260,-661,-2017
-324,335,1042,164,-745,-1832
-294,332,1011,229,-817,-1570
-266,306,971,467,-911,-1334
-265,290,952,713,-965,-1138
-268,240,944,904,-903,-994
-278,211,937,918,-784,-951
-299,201,922,766,-631,-951
-325,181,935,584,-467,-912
-296,163,950,393,-366,-787
-288,130,926,309,-338,-619
-245,91,905,354,-393,-462
-226,62,896,447,-473,-359
-234,36,873,621,-338,-334
-263,33,874,881,-61,-365
-247,10,915,887,35,-382
-249,3,936,891,156,-412
-246,-1,947,813,230,-404
-246,-20,964,664,234,-402
-232,-29,957,563,232,-365
-239,-43,950,529,298,-337
-248,-22,968,506,308,-279
-235,-22,973,578,230,-164
-244,-27,1014,658,70,-64
-253,-33,1024,680,-106,2
-262,-50,1011,662,-250,-17
-275,-52,1006,565,-288,-89
-264,-45,1004,412,-254,-140
-268,-41,988,274,-231,-175
-269,-44,991,213,-215,-222
-264,-47,997,193,-196,-242
-252,-48,990,203,-170,-246
-242,-57,1011,260,-223,-230
-247,-67,1044,365,-372,-240
-261,-67,1029,401,-567,-285
-259,-61,1034,315,-690,-347
-269,-52,1036,197,-713,-402
-265,-33,1023,63,-715,-418
-229,-31,1014,-4,-686,-404
-212,-12,1025,35,-655,-351
-207,1,1044,74,-711,-281
-212,-2,1042,78,-803,-175
-206,-28,1033,115,-807,-72
-213,-57,1029,139,-774,-17
-220,-60,1020,121,-741,-43
-211,-51,1035,61,-676,-103
-210,-51,1008,14,-590,-103
-199,-31,998,35,-528,-58
-216,-33,964,100,-399,0
-229,-23,941,205,-245,135
-237,-34,942,315,-110,368
-214,-52,938,326,-8,594
-152,-64,968,344,58,668
-147,-68,996,377,39,594
-139,-76,1025,322,-102,471
-156,-73,1034,151,-356,319
-187,-50,1017,-51,-551,209
-178,-45,992,-72,-512,161
-157,-24,984,-107,-399,147
-156,-28,964,-107,-268,137
-144,-22,984,-49,-161,145
-140,-30,984,31,-40,141
-148,-35,996,51,48,90
-168,-44,1021,51,82,30
-175,-54,1016,49,74,8
-167,-24,1024,10,15,-86
-183,-8,1019,-23,-73,-91
-192,-22,1010,-27,-102,-54
-185,-18,1010,-12,-100,-27
-182,-36,1001,-96,-92,14
-181,-44,993,-154,-43,0
-177,-41,999,-187,52,-11
-177,-35,1022,-267,103,-37
-186,-11,1007,-312,84,-68
-202,-70,964,195,486,159
-204,-62,1033,295,607,41
-188,-76,1068,324,531,55
-211,-18,1052,158,377,-173
-195,-28,1048,-19,242,-187
-196,-24,1049,-99,128,-189
-187,-14,1036,-129,13,-197
-180,-17,1039,-101,-55,-168
-169,-12,1016,-14,-96,-113
-176,-25,1023,74,-149,-76
-181,-39,1025,137,-207,-50
-192,-32,1007,133,-248,-62
-178,-36,1011,88,-241,-87
-172,-23,1015,39,-184,-107
-174,-28,1016,16,-170,-103
-182,-16,1017,-8,-194,-87
-175,-17,998,-10,-192,-56
-176,-12,1013,-10,-180,2
-176,-38,1014,-33,-190,22
-189,-35,975,53,-161,34
-183,-39,961,209,3,12
-179,-41,994,211,130,34
-200,-31,1006,135,150,26
-195,-33,1012,162,181,-9
-192,-34,1033,123,166,-52
-193,-34,1030,8,99,-95
-183,-29,1026,-27,-4,-103
-172,-18,1003,-2,-98,-87
-162,-12,993,29,-96,-41
-164,-19,988,65,-65,26
-170,-19,1006,125,-86,59
-174,-28,986,152,-63,55
-175,-35,1000,127,5,36
-175,-30,1015,74,43,-5
-175,-21,1021,-2,35,-50
-176,-6,1000,-41,41,-80
-181,-10,1014,-37,52,-70
-172,-7,1010,6,19,-37
-180,-8,1015,31,-18,-5
-175,-12,996,35,-6,8
-173,-9,986,35,33,18
-183,-10,997,20,35,16
-183,-6,1013,10,5,10
-169,-17,1003,18,3,18
-192,-12,1006,29,11,34
-189,-10,1002,39,31,47
-183,-16,1004,33,39,45
-180,-15,1003,29,52,45
-177,-19,1006,41,54,55
-185,-22,1000,67,43,53
-185,-29,997,88,17,53
-186,-28,981,65,13,36
-177,-29,996,41,17,22
-180,-17,1012,37,7,22
-185,-21,998,33,3,14
-180,-8,1004,26,27,12
-174,-23,998,8,66,-2
-174,-16,1004,-27,95,-15
-177,-9,1015,-31,115,0
-175,-19,994,16,91,30
-176,-26,1013,94,48,55
-189,-27,1017,115,31,53
-194,-35,1011,76,48,36
-195,-32,1011,29,68,0
-195,-13,1016,39,72,0
-189,-19,1026,72,44,14
-193,-6,1007,90,44,10
-174,-10,1000,88,62,16
-180,-12,1009,63,85,20
-179,-9,1006,59,93,28
-180,-1,1017,37,103,10
-182,9,1007,27,111,-3
-171,2,1029,33,105,6
-177,7,1017,53,80,24
-187,-9,1027,67,58,28
-189,-12,1026,55,43,12
-199,7,1018,55,46,18
-195,0,1036,53,46,47
-196,-6,1031,68,29,67
-201,5,1014,68,0,61
-204,-13,1030,26,9,43
-194,-13,1006,-23,50,20
-198,-15,980,-60,74,10
-200,-15,1004,-33,87,18
-201,-23,991,35,70,45
-209,-25,1004,111,52,75
-218,-41,1011,121,58,75
-222,-32,1007,98,62,53
-218,-35,1007,70,50,14
-207,-33,1001,43,29,-19
-195,-30,987,8,23,-46
-188,-28,975,-6,50,-72
-180,-4,975,-10,74,-91
-173,-1,989,2,107,-91
-178,-3,978,41,115,-64
-192,-4,988,92,119,-35
-195,-3,1003,117,128,-15
-195,-9,1009,100,144,-15
-206,-8,1035,67,130,-23
-200,4,1040,35,82,-33
-196,1,1032,18,46,-41
-197,21,1003,-2,44,-48
-193,5,1004,-33,91,-46
-194,3,1006,-86,158,-54
-206,0,1022,-158,187,-66
-212,8,1008,-189,195,-74
-214,0,1024,-195,197,-72
-211,-4,1012,-189,179,-70
-207,4,1031,-176,150,-58
-201,-2,1027,-189,132,-50
-206,-3,1026,-215,154,-46
-200,-4,1007,-226,187,-29
-206,-16,1003,-191,201,-7
-200,-23,1013,-117,230,22
-205,-32,1011,-82,265,16
-207,-30,1010,-78,314,-21
-199,-31,1018,-45,439,-50
-214,-16,1020,-33,507,-37
-201,-6,1052,96,523,-13
-217,-18,1079,188,519,14
-233,-18,1085,211,505,30
-229,-2,1115,244,574,36
-232,1,1148,250,662,22
-232,3,1175,242,740,-5
-232,6,1238,213,839,-64
-239,29,1278,184,990,-109
-222,30,1326,197,1158,-146
-208,47,1422,264,1269,-154
-197,72,1547,389,1314,-226
-195,58,1682,496,1244,-302
-252,8,1806,436,1013,-349
-348,-69,1919,297,605,-525
-429,-128,2005,-64,101,-841
-481,-198,2048,-473,-286,-1187
-505,-200,2048,-572,-551,-1404
-473,-184,2048,-154,-946,-1414
-462,-156,2048,697,-1729,-1269
-478,-112,2048,1490,-2911,-1054
-534,-90,2048,1807,-4155,-888
-573,-62,1927,1682,-5069,-795
-556,-65,1734,1375,-5571,-750
-504,-26,1517,1164,-5799,-736
-449,8,1332,1051,-5971,-724
-372,34,1134,891,-6024,-671
-321,43,941,635,-5840,-568
-238,38,767,358,-5422,-443
-153,30,636,186,-4913,-283
-93,47,505,197,-4504,-89
-82,56,453,401,-4194,141
-45,75,362,660,-3934,444
-10,59,287,885,-3678,774
39,28,220,1102,-3387,1127
60,18,159,1317,-3118,1348
47,10,99,1551,-2764,1411
39,20,97,1727,-2280,1323
35,18,76,1744,-1713,1172
18,10,95,1641,-1118,916
7,38,132,1547,-559,563
22,93,175,1438,-88,291
30,142,234,1279,277,252
41,155,301,1215,408,401
63,159,365,1221,345,592
57,168,426,1295,261,715
59,157,461,1391,212,778
72,141,535,1385,136,748
83,129,591,1229,52,655
88,120,628,973,-24,495
101,119,635,711,-22,274
113,144,658,473,74,73
142,174,688,283,205,-64
153,191,739,217,302,-89
182,211,784,274,337,-15
199,205,818,408,298,153
180,221,856,606,150,276
164,249,894,740,-6,319
145,264,946,725,-110,307
138,278,963,570,-157,250
127,315,972,358,-174,161
114,328,977,135,-190,82
120,341,974,-88,-143,57
139,344,947,-281,-67,63
154,365,941,-367,-18,73
159,394,962,-338,-10,94
173,419,945,-256,-40,145
184,435,949,-162,-118,178
200,455,962,-92,-186,207
216,496,968,-80,-252,235
236,538,975,-189,-305,352
242,541,954,-344,-364,547
241,567,946,-394,-454,756
243,589,927,-400,-547,998
239,578,884,-400,-622,1250
243,559,867,-338,-620,1506
230,524,848,-242,-604,1727
232,479,829,-170,-586,1887
210,434,807,-141,-522,1955
179,425,789,-142,-430,1946
166,422,775,-213,-276,2026
184,386,784,-410,-71,2315
178,333,753,-580,62,2684
146,265,718,-627,68,2920
118,245,695,-557,62,3028
108,190,654,-424,127,3067
96,136,643,-371,269,3063
78,60,655,-416,488,3020
72,9,635,-432,689,3002
64,-5,649,-328,859,3008
72,-8,653,-113,1019,3024
56,-27,689,104,1134,3061
35,-39,706,238,1177,3094
19,-62,733,270,1242,3092
0,-94,734,174,1330,3008
-15,-133,767,24,1472,2885
-10,-158,756,-129,1642,2756
-5,-195,776,-252,1775,2655
-5,-227,773,-269,1865,2577
-15,-237,760,-183,1937,2487
-20,-260,797,-103,2050,2413
-29,-280,793,-43,2228,2383
-25,-317,841,45,2377,2364
-37,-376,890,145,2435,2317
-56,-407,912,199,2423,2221
-88,-440,952,213,2371,2061
-100,-445,952,225,2316,1807
-141,-446,988,178,2326,1500
-144,-443,1013,65,2451,1247
-163,-435,1036,-53,2644,1038
-166,-456,1066,-176,2802,856
-162,-495,1078,-285,2847,758
-135,-560,1080,-310,2794,635
-155,-607,1088,-281,2677,467
-192,-592,1095,-152,2572,239
-208,-534,1113,67,2515,-60
-202,-454,1179,234,2453,-289
-206,-436,1212,311,2390,-431
-215,-409,1231,217,2402,-605
-219,-435,1238,-2,2466,-798
-227,-472,1257,-289,2527,-1033
-253,-482,1257,-525,2543,-1296
-256,-492,1231,-562,2482,-1513
-268,-449,1241,-373,2298,-1742
-299,-401,1235,-16,2066,-2000
-318,-307,1300,264,1955,-2253
-320,-221,1343,291,1929,-2441
-320,-163,1388,143,1949,-2595
-313,-127,1414,-49,1910,-2666
-310,-134,1378,-174,1742,-2722
-315,-141,1355,-182,1486,-2779
-346,-142,1292,-107,1226,-2804
-367,-118,1242,86,957,-2826
-368,-29,1270,387,791,-2912
-357,76,1312,617,830,-3046
-354,154,1330,627,908,-3107
-347,185,1387,428,914,-3025
-343,186,1369,246,812,-2923
-364,177,1323,115,570,-2857
-374,164,1297,47,294,-2787
-371,176,1230,67,62,-2699
-372,190,1208,147,-137,-2595
-345,195,1169,295,-260,-2556
-346,234,1173,363,-239,-2576
-333,265,1177,238,-120,-2552
-311,245,1153,-25,0,-2464
-297,241,1111,-273,25,-2337
-297,223,1053,-351,-81,-2185
-307,222,1005,-305,-221,-2043
-302,260,1004,-154,-282,-1929
-295,294,1023,33,-229,-1822
-277,335,1061,108,-135,-1695
-265,344,1097,45,-55,-1527
-260,356,1105,-98,-32,-1378
-246,350,1097,-250,-63,-1234
-246,335,1058,-381,-129,-1087
-246,311,1029,-447,-229,-910
-250,277,980,-418,-350,-744
-236,229,957,-351,-411,-593
-241,192,912,-254,-383,-449
-237,172,916,-144,-317,-339
-241,162,944,-49,-219,-244
-245,149,944,20,-157,-127
-253,117,946,106,-149,-46
-256,104,952,176,-168,20
-246,71,952,141,-219,61
-261,52,962,113,-235,69
-258,39,970,49,-207,55
-242,29,958,-10,-166,53
-232,13,980,-16,-147,80
-220,5,968,24,-112,96
-217,-8,958,74,-63,108
-227,-14,977,55,44,139
-222,-20,990,4,136,209
-229,-29,994,14,169,289
-219,-40,1022,94,127,454
-252,-45,1013,234,103,479
-266,-59,1049,268,13,502
-269,-62,1026,246,-67,506
-266,-67,1023,147,-90,502
-227,-78,1017,0,-123,436
-248,-83,935,-564,-147,309
-282,-53,994,-777,5,307
-221,-93,1007,-447,156,303
-214,-110,1016,-185,-26,233
-242,-126,1032,-39,-268,98
-261,-119,975,135,-426,0
-251,-127,989,131,-497,-76
-241,-113,941,199,-493,-130
-240,-114,1001,164,-514,-183
-235,-107,995,160,-498,-220
-235,-107,1001,68,-446,-267
-297,-82,1003,-23,-331,-326
-215,-119,1016,-242,-270,-371
-228,-75,1017,-267,-235,-410
-210,-86,1006,-228,-235,-359
-197,-92,996,-107,-274,-293
-182,-70,958,78,-264,-230
-218,-86,987,406,-32,-97
-207,-110,1028,391,9,-144
-206,-76,1024,186,-96,-250
-215,-61,986,80,-61,-308
-204,-70,1010,53,0,-339
-193,-41,996,65,35,-357
-169,-31,1010,111,56,-326
-170,-40,1024,151,37,-293
-170,-35,987,145,13,-257
-177,-39,991,151,27,-201
-170,-39,999,211,39,-154
-165,-37,1004,326,17,-142
-175,-45,1001,504,-38,-146
-188,-48,1019,639,-131,-117
-199,-46,1014,668,-184,-103
-220,-40,1016,617,-157,-142
-224,-33,1027,520,-84,-150
-218,-27,1019,422,11,-127
-214,-37,1022,330,72,-76
-214,-28,1021,289,80,-43
-223,-31,992,279,95,28
-228,-32,997,311,125,88
-218,-33,1011,317,117,123
-212,-37,1013,258,95,69
-226,-50,1017,162,72,-3
-216,-53,1026,51,48,-48
-214,-65,1023,-45,48,-46
-210,-67,1014,-103,39,-35
-205,-66,1020,-58,-20,-41
-205,-66,999,2,-61,-60
-212,-52,998,39,-57,-93
-207,-55,995,51,-18,-130
-199,-52,1000,49,2,-150
-192,-33,1004,14,7,-150
-192,-30,1012,0,9,-121
-201,-28,1021,61,-6,-50
-200,-28,1000,104,-59,-25
-207,-32,1024,104,-102,-13
-207,-38,1017,76,-120,-7
-209,-37,998,35,-106,-29
-206,-34,988,-2,-61,-62
-194,-38,992,-16,-14,-52
-192,-39,983,-14,15,-46
-208,-37,996,-17,13,-62
-201,-28,1013,-27,2,-52
-195,-20,1006,-10,-26,-29
-200,-35,1015,24,-63,-13
-209,-21,1023,43,-94,-13
-207,-26,1013,47,-98,-9
-208,-31,1002,37,-71,-9
-203,-30,1017,-2,-65,-19
-198,-39,1008,-6,-77,-5
-210,-41,1021,6,-82,-2
-210,-49,1012,18,-71,0
-208,-50,1011,14,-45,2
-218,-33,1022,10,-41,-7
-207,-41,1004,29,-38,4
-215,-47,1012,37,-61,12
-212,-59,1006,20,-88,4
-213,-66,1023,-2,-88,-48
-216,-45,1000,-43,-73,-72
-190,-37,987,-74,-69,-80
-195,-27,977,-53,-77,-87
-187,-11,971,-23,-71,-74
-181,-19,977,-4,-38,-35
-172,-17,961,0,-18,-27
-182,-31,983,-2,5,-23
-189,-26,988,-12,17,-21
-190,-32,992,10,9,-7
-199,-41,996,16,-2,2
-211,-36,1010,10,11,0
-209,-42,1017,0,11,-3
-216,-43,1011,-17,-22,-25
-196,-30,1023,-33,-59,-39
-195,-23,1009,-33,-73,-31
-183,-21,991,-33,-71,-25
-185,-29,987,-49,-51,-23
-183,-36,988,-60,-18,-15
-189,-20,977,-51,31,0
-188,-32,994,-2,56,30
-196,-44,994,27,60,39
-208,-46,1004,61,46,38
-214,-49,998,78,31,16
-218,-49,1015,49,35,-21
-215,-41,1000,2,48,-54
-209,-30,1007,-41,66,-64
-195,-30,1009,-51,56,-70
-202,-21,1020,-16,33,-43
-195,-26,997,41,-6,-17
-195,-30,1007,61,-22,-9
-185,-33,991,33,2,-23
-194,-41,989,-4,37,-37
-192,-33,991,-12,60,-50
-193,-16,1009,16,74,-37
-207,-17,1005,53,60,-2
-212,-14,1004,78,39,12
-206,-16,1016,72,44,16
-203,-26,1014,41,56,14
-196,-16,1011,16,48,6
-198,-21,1018,6,35,4
-207,-22,1015,4,27,-7
-201,-28,997,0,27,-11
-204,-39,1011,-10,41,-7
-199,-29,1017,12,25,-5
-196,-45,1008,63,3,-5
-199,-36,1013,84,-2,0
-200,-48,1007,76,2,-2
-194,-39,1014,53,11,-15
-193,-28,1004,43,0,-19
-202,-19,1024,41,0,-23
-201,-33,1012,53,3,-5
-196,-22,1026,72,-22,6
-195,-20,998,98,-49,8
-200,-28,1005,94,-51,28
-200,-32,1008,94,-43,24
-200,-42,1015,55,-20,2
-198,-23,1010,-4,11,-19
-194,-33,991,-19,23,-33
-192,-21,1000,-2,15,-29
-193,-35,999,47,5,-3
-187,-21,995,86,-20,4
-196,-29,994,76,-10,6
-194,-27,1005,63,19,24
-200,-26,991,59,19,12
-210,-23,990,51,15,-3
-212,-22,980,27,15,-7
-211,-31,988,14,29,-9
-211,-19,987,6,56,-11
-203,-20,981,26,64,-13
-196,-18,994,49,52,4
-205,-23,984,74,44,22
-200,-24,999,109,37,28
-206,-29,990,113,35,32
-205,-24,991,88,50,20
-209,-21,979,29,78,4
-203,-12,964,4,103,-7
-195,-16,984,10,117,-2
-196,-22,980,27,123,14
-186,-16,966,45,134,26
-193,-15,985,59,160,38
-201,-17,974,96,171,45
-205,-10,975,137,210,63
-209,-13,990,151,269,84
-218,-26,1011,160,326,88
-212,-31,1000,164,380,98
-203,-50,980,168,410,84
-187,-73,984,221,455,36
-155,-83,984,358,566,-31
-150,-88,997,561,750,-89
-182,-75,1038,807,998,-177
-217,-92,1123,1041,1267,-252
-266,-93,1189,1295,1505,-378
-272,-45,1311,1559,1750,-533
-302,17,1459,1721,1898,-714
-344,129,1557,1883,1988,-859
-337,217,1705,1916,2074,-937
-339,271,1806,1830,2101,-916
-381,295,1866,1645,2087,-865
-413,304,1970,1459,1998,-878
-433,342,2048,1277,1802,-877
-466,386,2048,1121,1478,-783
-491,399,2048,1026,1017,-582
-536,390,2048,1029,402,-281
-558,358,2048,1131,-293,57
-584,335,2048,1277,-1018,352
-615,315,2048,1443,-1782,598
-657,283,2048,1510,-2543,854
-707,241,2048,1453,-3248,1084
-735,188,1998,1315,-3950,1231
-751,107,1832,1006,-4668,1342
-753,44,1641,627,-5350,1307
-715,4,1423,192,-5829,1172
-649,-23,1202,-258,-6049,969
-579,-48,1007,-871,-6110,750
-509,-41,793,-1508,-6061,536
-454,-30,606,-1971,-5911,372
-382,-36,430,-2262,-5747,270
-314,-47,227,-2449,-5569,204
-261,-40,70,-2574,-5288,186
-188,-52,-99,-2564,-4883,250
-126,-100,-279,-2295,-4424,358
-81,-119,-371,-1762,-3852,475
-47,-141,-402,-1057,-3196,643
-28,-186,-395,-308,-2522,788
-36,-201,-373,266,-1854,795
-22,-195,-273,547,-1198,655
-25,-151,-143,588,-627,321
-2,-72,-59,512,-172,-56
52,3,48,475,162,-281
86,62,147,506,365,-363
125,88,261,584,394,-361
146,92,358,627,296,-310
138,119,431,666,146,-250
147,156,519,797,44,-156
170,170,593,934,-30,-21
179,163,652,1016,-49,116
195,132,679,1008,11,205
212,117,718,953,136,243
213,103,785,895,246,223
210,109,803,867,337,196
215,128,858,863,390,161
205,137,890,844,431,157
200,144,926,818,482,163
194,159,954,793,527,172
183,172,1002,789,515,176
151,191,1029,807,466,190
135,220,1071,820,410,225
113,245,1102,838,332,278
102,258,1113,799,240,332
91,251,1127,721,169,334
84,262,1123,576,113,278
78,286,1145,422,95,198
84,313,1121,258,125,125
89,331,1133,123,156,98
90,365,1124,41,148,106
110,389,1141,0,99,147
119,415,1129,-51,35,256
128,412,1097,-99,-57,391
141,396,1066,-113,-163,516
162,384,1027,-80,-258,629
172,374,996,12,-290,747
178,381,985,141,-290,866
188,386,970,297,-262,965
179,396,984,408,-225,1045
171,415,975,418,-219,1118
162,421,963,344,-215,1188
154,428,955,254,-213,1245
156,436,915,188,-211,1307
123,445,882,127,-196,1409
125,429,853,78,-172,1497
127,418,812,37,-110,1620
133,385,791,-27,-6,1782
134,354,775,-99,127,1930
124,336,741,-137,246,2000
98,317,747,-178,347,2022
92,298,733,-266,439,2051
74,262,721,-396,513,2088
78,221,717,-494,587,2118
83,197,690,-553,656,2129
81,159,661,-562,693,2157
43,142,649,-502,755,2202
30,141,642,-422,826,2288
16,106,643,-318,869,2372
-4,77,640,-226,894,2426
-6,42,669,-156,923,2442
2,-2,670,-96,978,2426
-6,-16,694,-51,1025,2403
-8,-9,703,61,1015,2416
4,-1,739,367,902,2534
-18,15,762,836,644,2731
-18,-30,787,1401,328,2942
-30,-75,788,1789,134,3038
-41,-116,798,1904,125,3047
-53,-181,802,1766,267,2924
-68,-219,785,1432,498,2664
-75,-265,768,998,804,2370
-78,-272,747,625,1138,2077
-76,-284,756,457,1406,1832
-84,-271,770,461,1605,1606
-87,-256,806,475,1814,1420
-96,-224,870,481,2031,1288
-90,-227,924,445,2158,1192
-110,-245,972,309,2238,1133
-134,-309,980,129,2291,1028
-167,-382,978,-58,2306,844
-199,-407,971,-232,2377,565
-218,-409,992,-357,2494,243
-230,-382,1044,-412,2652,-2
-221,-353,1082,-389,2779,-209
-227,-326,1166,-363,2828,-349
-251,-314,1228,-266,2818,-500
-253,-300,1270,-277,2730,-712
-264,-318,1273,-482,2648,-892
-257,-336,1250,-697,2560,-1070
-261,-347,1222,-779,2423,-1252
-258,-346,1209,-695,2279,-1410
-263,-342,1209,-381,2191,-1613
-276,-285,1273,-115,2142,-1804
-281,-214,1346,47,2171,-2007
-264,-161,1384,27,2189,-2142
-280,-138,1423,-123,2181,-2255
-293,-158,1423,-248,2121,-2375
-317,-155,1423,-301,1982,-2519
-334,-141,1406,-250,1761,-2648
-344,-89,1395,-129,1513,-2738
-342,-46,1403,20,1349,-2804
-370,-8,1396,100,1240,-2863
-407,32,1420,90,1187,-2884
-431,70,1405,51,1140,-2908
-470,49,1396,29,1029,-2931
-498,42,1354,94,832,-2902
-500,37,1346,311,636,-2949
-499,85,1359,535,421,-3058
-492,158,1353,672,255,-3201
-493,197,1357,617,128,-3273
-483,253,1323,455,41,-3298
-458,265,1246,318,-32,-3336
-441,293,1177,240,-114,-3339
-405,304,1098,240,-194,-3285
-373,329,1049,293,-258,-3160
-338,343,987,471,-362,-2988
-333,344,917,723,-479,-2787
-326,373,886,912,-551,-2646
-317,410,876,1039,-498,-2578
-309,485,906,1041,-397,-2539
-273,547,949,965,-241,-2535
-256,592,961,758,-141,-2410
-208,599,959,580,-114,-2125
-192,572,923,508,-133,-1748
-183,521,923,522,-188,-1357
-193,467,923,580,-182,-1017
-229,424,951,627,-122,-785
-255,406,987,609,-41,-627
-280,380,1034,514,44,-500
-283,353,1094,359,46,-361
-310,326,1123,207,-57,-267
-333,275,1133,65,-198,-177
-333,251,1125,-66,-332,-103
-331,225,1116,-193,-467,-52
-330,213,1099,-334,-506,2
-317,173,1066,-447,-532,71
-314,143,1029,-566,-530,110
-320,114,1020,-652,-508,125
-318,79,1025,-746,-483,90
-308,58,997,-828,-440,43
-307,67,971,-859,-395,18
-289,63,946,-844,-348,63
-280,34,938,-812,-321,122
-267,20,934,-799,-290,147
-264,-1,928,-783,-211,145
-263,-1,919,-803,-90,137
-260,-23,906,-869,27,135
-260,-20,937,-849,148,118
-254,-37,925,-822,281,94
-266,-33,961,-867,414,18
-255,-28,998,-824,375,-13
-248,-40,980,-797,271,-41
-253,-39,975,-734,160,-45
-264,-39,955,-652,115,-25
-256,-47,948,-576,162,-13
-248,-50,939,-496,232,-17
-250,-47,955,-455,261,-29
-251,-46,967,-439,255,-46
-272,-19,965,-410,275,-35
-248,-29,962,-371,285,36
-240,-50,993,-314,169,96
-288,26,956,-340,17,125
-269,-158,1011,-555,-55,196
-268,-82,987,-334,-108,24
-252,-93,974,-283,-168,-43
-275,-82,948,-305,-207,-107
-268,-96,938,-346,-143,-46
-268,-136,951,-318,-92,-109
-266,-98,936,-158,-51,-168
-260,-108,949,-119,-24,-201
-248,-95,923,-70,13,-197
-230,-94,927,-53,43,-134
-236,-94,934,-17,56,-82
-247,-101,948,51,101,-23
-232,-98,972,131,107,34
-245,-106,1010,193,93,30
-251,-100,1001,207,64,0
-261,-82,1036,184,39,-15
-261,-81,1062,143,13,-21
-273,-72,1056,129,-73,-27
-279,-69,1045,117,-166,-41
-299,-71,1041,106,-186,-52
-295,-73,1025,51,-143,-39
-301,-83,1030,-14,-102,-21
-306,-80,1019,-45,-94,-41
-302,-81,999,-37,-79,-31
-301,-79,1003,4,-75,-13
-308,-70,982,61,-84,-17
-301,-73,1009,78,-88,-35
-278,-54,997,102,-108,-48
-271,-56,984,84,-110,-76
-263,-46,969,41,-98,-107
-260,-37,959,22,-43,-127
-255,-38,980,43,19,-121
-256,-26,998,68,60,-103
-274,-29,1017,102,62,-95
-280,-42,1025,115,48,-113
-279,-45,1047,123,29,-134
-267,-50,1037,92,3,-164
-264,-44,1037,53,-16,-181
-268,-46,1024,51,-24,-166
-259,-49,1007,98,-43,-125
-259,-40,1013,156,-79,-111
-266,-39,996,182,-104,-121
-261,-39,1000,190,-94,-134
-260,-35,1000,141,-92,-146
-268,-20,987,115,-77,-140
-264,-13,1004,106,-67,-101
-263,-18,997,125,-82,-48
-269,-9,988,160,-127,-5
-273,-17,970,190,-155,30
-276,-18,983,178,-118,51
-276,-22,974,131,-81,53
-275,-20,982,90,-41,49
-262,-33,971,61,-4,47
-260,-39,965,39,23,61
-258,-35,960,41,31,69
-267,-30,972,59,27,63
-266,-23,978,70,17,61
-262,-18,987,63,3,61
-259,-22,1004,51,-6,67
-262,-23,993,47,-16,82
-258,-18,971,47,-12,90
-261,-31,974,41,13,98
-255,-36,978,29,33,88
-268,-26,975,14,39,69
-258,-32,978,10,37,65
-273,-40,970,35,5,71
-256,-27,985,84,-12,90
-255,-29,970,98,-26,118
-255,-41,983,76,-18,125
-241,-24,961,39,17,108
-246,-27,947,4,41,90
-259,-23,971,6,41,102
-261,-26,962,37,37,118
-272,-40,990,57,33,120
-258,-36,974,57,31,112
-256,-38,977,14,46,102
-258,-43,963,-2,87,104
-261,-48,981,31,101,135
-278,-47,993,59,101,139
-272,-45,1000,51,97,125
-274,-41,982,26,97,116
-278,-41,993,4,87,108
-271,-49,982,2,66,102
-278,-61,998,-10,50,98
-286,-67,990,-31,46,75
-281,-59,991,-49,62,53
-285,-55,982,-49,46,43
-280,-50,975,-25,43,41
-280,-56,985,-4,56,45
-272,-50,992,2,74,36
-283,-59,991,10,84,14
-276,-52,985,10,93,4
-271,-47,983,18,93,-9
-267,-41,996,53,89,0
-271,-37,1013,84,74,14
-282,-33,1011,82,46,-2
-275,-41,1020,47,43,-17
-272,-33,1000,-6,33,-39
-270,-27,1022,-25,33,-52
-273,-18,1000,-12,7,-39
-260,-21,1011,20,-12,8
-268,-33,991,57,-28,43
-276,-37,990,65,-20,36
-271,-43,988,26,7,12
-273,-31,982,-16,43,-23
-267,-33,994,-23,46,-46
-271,-23,993,0,5,-35
-274,-29,997,47,-57,-11
-271,-18,975,94,-82,8
-267,-21,972,109,-59,22
-275,-22,970,82,-12,22
-263,-13,971,31,19,8
-266,-14,966,0,52,16
-256,-12,964,16,82,36
-267,-19,966,65,84,55
-281,-17,990,98,82,79
-283,-22,990,100,78,77
-289,-17,1006,90,46,69
-288,-23,1004,98,-4,80
-284,-19,988,113,-34,69
-278,-24,1009,84,-30,49
-279,-11,973,27,-16,39
-265,-8,1019,0,0,43
-279,-12,1000,-2,-8,59
-286,-14,983,24,-6,84
-295,-25,987,45,-18,96
-300,-42,990,55,-32,90
-291,-29,997,47,-45,71
-297,-41,976,14,-57,43
-280,-43,957,-2,-53,20
-279,-45,978,10,-51,2
-287,-40,975,41,-75,0
-274,-36,974,88,-94,2
-262,-34,963,108,-112,2
-268,-32,948,104,-94,-19
-263,-30,967,68,-22,-45
-262,-33,958,24,43,-58
-253,-20,954,29,89,-60
-261,-19,961,55,107,-48
-242,-13,975,84,105,-13
-243,-14,980,117,95,0
-262,-17,972,125,99,8
-264,-20,983,147,144,4
-268,-22,993,127,218,-5
-269,-30,1016,135,279,-9
-269,-19,1019,162,322,-11
-274,-24,1029,190,361,-21
-275,-20,1066,227,398,-48
-273,13,1084,276,408,-99
-270,43,1121,258,451,-170
-276,76,1170,192,535,-181
-281,83,1180,162,591,-179
-283,77,1248,225,650,-148
-254,53,1282,276,654,-19
-287,19,1342,559,478,92
-290,-16,1385,955,207,157
-331,-8,1411,1276,-96,125
-359,34,1471,1516,-379,86
-385,100,1517,1543,-434,-23
-384,135,1572,1324,-360,-142
-344,180,1635,994,-305,-216
-331,200,1660,621,-266,-273
-326,200,1679,274,-301,-271
-320,187,1703,98,-442,-224
-344,168,1719,57,-635,-154
-368,149,1736,133,-846,-86
-391,133,1766,266,-1069,-9
-411,112,1812,420,-1364,73
-414,95,1865,604,-1762,133
-443,77,1891,803,-2262,200
-456,85,1928,1033,-2795,239
-497,108,1922,1092,-3317,319
-518,99,1896,1002,-3790,420
-531,101,1819,830,-4237,465
-532,62,1726,627,-4666,508
-510,18,1589,416,-5084,575
-482,-34,1440,313,-5442,590
-456,-60,1283,172,-5713,518
-423,-81,1091,-60,-5899,426
-376,-108,927,-365,-5918,321
-337,-99,727,-641,-5815,196
-268,-88,558,-892,-5616,110
-218,-68,363,-1064,-5356,88
-146,-26,176,-1088,-5038,120
-62,-29,16,-932,-4862,289
-24,-54,-126,-461,-4633,532
-11,-94,-244,197,-4196,756
-3,-154,-253,740,-3497,913
16,-177,-232,1098,-2637,901
-1,-184,-155,1168,-1803,661
-5,-128,-73,942,-993,280
42,-73,37,680,-303,-103
77,20,85,494,91,-455
150,111,164,404,267,-623
212,161,253,500,273,-527
255,187,316,807,39,-269
248,194,361,1193,-299,-17
210,203,428,1533,-487,166
202,205,492,1639,-420,254
198,188,567,1455,-233,241
215,185,614,1117,-8,145
220,187,649,801,238,20
250,225,706,666,427,-76
278,267,785,703,503,-21
287,313,863,844,468,145
275,333,886,949,373,323
266,355,914,928,298,444
256,361,944,776,314,510
253,395,975,621,343,508
254,434,990,447,369,508
256,467,980,309,386,553
259,488,990,219,396,653
273,504,990,178,378,832
270,511,978,231,269,1030
267,519,954,324,146,1184
263,525,939,377,62,1321
241,551,890,367,9,1446
231,533,881,268,5,1551
236,513,839,137,-28,1633
241,505,821,-19,29,1668
241,491,794,-213,138,1766
244,493,776,-381,255,1872
266,482,755,-414,318,2047
265,483,750,-312,289,2264
266,459,737,-164,181,2465
233,406,710,-74,121,2649
206,380,709,-23,97,2770
187,349,657,-21,132,2817
166,325,681,-68,242,2830
162,286,676,-99,394,2868
157,263,666,-123,517,2948
146,227,655,-96,582,3039
142,192,636,-25,638,3129
122,161,615,51,730,3248
92,142,617,207,826,3336
58,116,627,426,935,3426
13,82,636,568,1031,3514
-31,25,649,651,1117,3551
-50,-19,649,668,1240,3514
-63,-83,683,656,1414,3428
-55,-114,681,635,1613,3311
-69,-137,711,658,1832,3170
-69,-133,747,690,1992,3032
-98,-154,770,693,2087,2955
-108,-186,793,656,2152,2883
-143,-254,855,529,2203,2766
-137,-323,897,274,2294,2573
-141,-388,892,-43,2429,2370
-140,-450,867,-178,2470,2186
-144,-470,861,-57,2421,1998
-173,-465,851,221,2445,1786
-193,-466,912,524,2560,1575
-207,-471,976,631,2722,1379
-206,-484,1025,527,2888,1170
-210,-512,1066,344,2984,932
-212,-530,1097,246,2992,684
-206,-513,1130,277,2918,440
-223,-489,1157,457,2816,211
-241,-468,1218,609,2693,-27
-253,-420,1261,604,2601,-328
-262,-384,1291,393,2627,-613
-258,-376,1300,90,2701,-830
-245,-405,1320,-162,2703,-1007
-251,-418,1310,-273,2562,-1158
-253,-405,1310,-238,2371,-1273
-265,-406,1316,-19,2185,-1412
-277,-397,1332,234,1994,-1586
-286,-360,1388,391,1869,-1816
-278,-351,1396,402,1793,-2031
-281,-342,1414,328,1691,-2170
-302,-355,1423,303,1513,-2259
-327,-406,1414,371,1183,-2390
-377,-419,1395,426,793,-2628
-415,-377,1372,350,500,-2978
-419,-329,1330,234,386,-3318
-407,-196,1316,231,402,-3765
-372,-33,1348,330,562,-4216
-337,89,1378,309,761,-4509
-314,194,1403,205,904,-4607
-299,267,1407,53,918,-4562
-295,316,1370,-66,796,-4421
-303,406,1356,55,636,-4281
-317,501,1359,356,492,-4130
-317,573,1366,695,207,-3775
-308,583,1376,988,-30,-3380
-346,586,1323,973,-114,-3035
-353,588,1284,643,-145,-2882
-384,617,1261,211,-16,-2818
-380,657,1251,-219,232,-2752
-342,737,1247,-476,371,-2552
-268,739,1227,-445,226,-2207
-215,713,1230,-242,-172,-1759
-194,643,1201,-31,-666,-1287
-223,560,1159,-76,-1002,-943
-243,500,1071,-510,-1155,-869
-239,492,1009,-902,-1182,-896
-177,501,923,-55,-1846,-1109
-203,386,959,1020,-1832,-941
-180,287,892,651,-1340,-652
-128,242,875,483,-1329,-490
-101,172,821,725,-1411,-431
-131,174,926,1039,-1465,-181
-188,141,887,576,-1227,-50
-186,133,846,281,-1118,28
-156,99,864,233,-901,96
-181,71,868,344,-719,174
-220,47,918,529,-731,184
-231,34,933,393,-731,92
-215,58,954,299,-770,-50
-168,43,1008,51,-739,-173
-123,80,959,-234,-743,-296
-180,86,988,-455,-651,-388
-168,144,882,-480,-407,-414
-177,163,995,-103,-217,-193
-68,43,1022,98,-170,-226
-95,65,946,350,-432,-171
-123,-17,974,832,-666,-189
-182,-8,1099,494,-67,-357
-267,64,1078,-590,414,-929
-88,109,1075,-1221,589,-1369
-3,202,1026,-1844,781,-908
10,164,1029,-1539,632,-140
-35,50,1044,-1133,252,543
-75,-114,1050,-1197,-299,717
-112,-38,905,-752,-629,733
-172,31,875,-2,-616,655
-7,4,923,227,173,403
-26,-29,1009,96,761,569
-120,-46,1066,-33,810,446
-117,18,1114,-98,492,51
-155,30,1143,8,5,-5
-240,-37,1073,225,-575,-31
-116,68,955,1520,-1491,-316
-164,36,1070,3170,-1622,-158
-180,20,1151,2859,-1004,-99
-107,7,1099,1285,-547,-31
-113,69,1053,463,-442,-64
-66,105,993,55,-432,-39
-51,109,987,256,-424,67
31,147,971,475,-520,241
-1831,1045,1152,877,-797,397
-55,33,987,2861,209,-543
-142,24,1007,2455,-237,-1109
-13,117,907,1430,-168,-1013
-44,92,896,1092,189,-920
-109,103,893,514,582,-791
-100,130,873,160,867,-681
-374,177,617,-240,373,-570
-115,77,1079,-2726,-1245,-353
-54,87,1263,-2373,-540,-224
-180,63,1232,-998,-133,414
-251,98,1202,94,-454,743
110,-47,500,412,191,305
-23,14,423,-3998,1386,-566
-104,62,736,-9117,-77,-1414
-268,71,1068,-9607,511,-1043
-513,-27,1443,-8773,-372,-1298
-183,-245,1550,-5795,-1358,-785
-156,-280,1454,-2031,-1491,-474
-140,-272,1185,344,-1192,-7
-88,-206,1066,608,-629,686
-74,-143,1072,215,-237,1059
-51,-85,1092,55,-186,1010
2,-106,1091,127,-514,489
45,-102,1069,137,-881,-130
41,-106,1081,108,-1190,-646
-43,-143,1104,229,-1186,-865
-105,-162,1142,260,-1067,-775
-129,-171,1133,414,-864,-488
-152,-144,1080,686,-690,-166
-123,-114,1058,713,-596,133
-90,-74,1025,744,-518,372
-75,-49,969,674,-489,491
-27,-9,951,531,-616,473
-23,-18,948,383,-756,414
-2,-34,961,115,-743,377
49,-55,979,-178,-719,319
87,-88,999,-295,-625,258
89,-115,1020,-322,-541,170
74,-121,1036,-207,-457,86
45,-123,1014,-17,-391,38
8,-119,1003,68,-315,36
-28,-94,1025,100,-291,20
-22,-82,1017,156,-309,-56
-17,-56,978,258,-291,-60
-8,-28,954,256,-245,-11
-6,-7,945,182,-161,38
-24,-12,934,82,-147,53
-10,-32,940,-119,-170,57
-17,-61,974,-256,-141,100
6,-77,981,-277,-114,157
1,-109,980,-285,-71,202
21,-113,997,-305,-30,247
-7,-133,991,-174,-28,231
-12,-141,1007,-127,-145,178
10,-122,1019,-14,-151,204
10,-98,977,109,-104,305
10,-80,957,31,-43,387
14,-59,961,-99,46,454
38,-59,949,-193,142,495
35,-67,974,-340,191,461
56,-100,988,-533,166,332
32,-138,1039,-670,44,116
30,-186,1074,-719,-118,-84
16,-188,1104,-588,-149,-121
7,-217,1112,-336,-96,-37
9,-208,1113,-66,35,141
18,-169,1081,152,127,274
40,-137,1069,256,134,297
63,-93,1017,266,89,207
58,-75,982,201,31,67
51,-61,988,61,-43,-89
38,-67,1009,-49,-127,-214
-60,-47,1075,201,335,111
-73,-44,1080,121,265,103
-67,-52,1089,193,121,56
-74,-65,1073,222,-61,-8
-97,-57,1039,166,-124,-65
-110,-62,1019,31,-94,-65
-104,-50,1001,-47,52,-8
-76,-35,1014,-36,171,74
-98,-43,1025,-2,277,140
-96,-26,1020,58,353,171
-99,-29,1024,113,404,175
-84,-49,1050,121,390,142
-106,-53,1061,50,310,111
-83,-38,1063,-34,218,68
-98,-41,1057,-139,117,29
-99,-23,1028,-190,85,5
-94,-39,1027,-165,70,-20
-90,-37,1003,-86,68,0
-96,-36,983,-61,62,42
-98,-51,993,-67,80,58
-93,-53,1008,-57,83,87
-121,-79,1037,-14,66,87
-113,-79,1046,-16,1,44
-119,-77,1052,-92,-34,3
-110,-69,1036,-194,-26,29
-117,-91,1016,-331,3,-6
-89,-71,1006,-413,50,-71
-54,-40,1001,-422,66,-137
-39,-25,1016,-409,42,-176
-11,6,1010,-352,-30,-163
-13,29,989,-268,-104,-118
-12,45,963,-170,-131,-14
-45,-3,951,-112,-129,89
-60,-37,951,-34,-40,160
-85,-60,965,-16,80,185
-105,-74,982,13,152,201
-120,-84,1016,42,175,195
-130,-101,1061,-14,183,156
-127,-81,1055,-110,126,93
-123,-56,1061,-213,54,66
-123,-33,1022,-262,-2,50
-113,-21,995,-237,-43,82
-129,-19,973,-157,-14,138
-125,-35,972,-116,76,189
-128,-54,979,-116,144,228
-142,-70,1001,-47,205,250
-157,-105,1033,3,244,240
-158,-125,1089,-30,183,189
-150,-95,1089,-104,91,117
-158,-88,1073,-139,9,87
-181,-90,1047,-59,-43,82
-157,-86,1042,27,-59,85
-171,-86,1009,-14,-47,85
-158,-97,1007,-106,37,107
-151,-91,1011,-131,123,97
-153,-94,1026,-81,152,99
-144,-103,1041,-57,148,97
-125,-86,1050,-94,107,72
-124,-92,1055,-118,66,50
-122,-87,1035,-92,1,29
-128,-76,1049,-75,-53,-20
-115,-70,1022,-43,-106,-30
-110,-34,1003,1,-102,-28
-95,-32,985,5,-22,-22
-102,-13,982,64,42,15
-100,-31,987,140,117,74
-111,-50,1010,150,167,125
-129,-73,1037,128,199,167
-130,-115,1049,13,203,164
-131,-145,1064,-108,179,125
-144,-157,1051,-170,166,56
-135,-139,1066,-200,144,-36
-131,-106,1086,-170,87,-118
-115,-76,1062,-129,83,-141
-99,-44,1072,-122,80,-124
-103,-7,1070,-110,87,-96
-86,-2,1085,-45,105,-24
-96,-4,1079,-2,78,37
-86,-1,1052,-49,46,74
-98,-28,1060,-147,15,107
-113,-39,1043,-170,5,109
-115,-57,1041,-127,25,87
-122,-63,1039,-106,29,58
-116,-61,1043,-133,41,15
-105,-38,1037,-151,25,35
-115,-55,1045,-106,13,60
-116,-49,1019,-57,15,109
-136,-73,1029,-22,29,154
-125,-87,1009,-18,46,177
-134,-99,1013,-8,41,185
-153,-117,1010,35,50,189
-146,-136,1023,42,46,142
-144,-131,1024,-4,29,66
-153,-128,1010,-16,31,42
-149,-118,1017,5,60,37
-146,-105,1019,-10,113,31
-133,-97,1021,-34,154,33
-131,-98,1048,-63,150,37
-153,-95,1040,-69,130,37
-138,-108,1051,-53,111,21
-144,-116,1049,-30,62,0
-142,-114,1055,-59,41,-32
-132,-103,1046,-83,3,-61
-132,-88,1053,-71,-34,-81
-125,-74,1043,-16,-51,-67
-135,-84,1018,7,-32,-47
-123,-80,1022,-8,5,-38
-133,-86,1022,-20,15,-32
-128,-87,1027,-2,19,-36
-129,-84,1018,31,11,-53
-136,-87,1013,29,0,-47
-141,-82,1025,0,-6,-38
-137,-80,1006,-51,7,-22
-142,-83,994,-55,35,0
-147,-85,991,-20,48,0
-151,-88,1017,82,52,-12
-163,-103,1007,152,44,1
-166,-96,1010,152,54,0
-153,-93,1032,91,82,-6
-153,-88,1042,27,68,-12
-148,-84,1049,-2,41,-24
-159,-77,1044,-34,0,-26
-150,-93,1033,-26,-8,-24
-160,-90,1020,-43,-16,-32
-156,-88,1033,-8,-14,-47
-166,-87,1027,33,17,-53
-161,-89,1025,70,60,-69
-156,-92,1035,50,89,-63
-146,-71,1051,23,82,-73
-140,-63,1044,0,46,-65
-150,-74,1060,0,0,-79
-150,-59,1050,-38,-42,-86
-138,-62,1030,-81,-57,-75
-153,-58,1006,-86,-63,-49
-147,-67,991,-30,-55,-20
-146,-72,996,68,-12,-14
-151,-65,1003,140,46,-4
-144,-70,1042,140,74,-20
-156,-80,1044,128,42,-32
-145,-74,1045,107,1,-57
-134,-40,1028,70,-30,-67
-140,-51,1011,-8,-24,-49
-141,-44,1006,-26,5,-34
-142,-34,986,-6,25,-12
-145,-40,998,25,72,3
-133,-61,1013,48,87,27
-151,-65,1034,66,66,17
-145,-72,1046,44,35,0
-146,-52,1044,-8,15,-26
-139,-55,1046,-45,-2,-26
-129,-55,1031,-38,-43,-24
-147,-46,1024,9,-53,-6
-145,-74,1022,19,-47,17
-145,-78,1013,5,-30,17
-148,-71,1025,-26,-8,3
-149,-70,1002,-51,9,-18
-148,-60,1021,-61,27,-20
-153,-55,1017,-51,35,-14
-151,-62,1006,-51,48,-24
-145,-63,1015,-61,66,-16
-136,-59,1030,-47,72,-10
-151,-47,1035,-2,41,5
-140,-53,1027,56,48,29
-155,-60,1028,70,80,42
-153,-62,1035,48,99,39
-159,-62,1069,37,87,39
-148,-63,1075,27,64,35
-141,-50,1092,44,27,42
-161,-59,1083,74,21,42
-157,-51,1095,72,9,50
-155,-71,1130,64,0,46
-170,-67,1163,64,-28,42
-170,-72,1168,62,-42,39
-161,-79,1225,72,-6,33
-166,-58,1268,150,42,23
-154,-47,1389,244,64,17
-171,-39,1503,326,15,25
-179,-24,1618,347,-18,54
-212,-32,1771,304,-59,64
-240,-32,1901,238,-114,97
-240,-33,2021,148,-245,125
-252,-22,2048,117,-450,150
-282,-21,2048,156,-721,207
-325,-34,2048,234,-997,271
-344,-58,2048,291,-1276,332
-387,-87,2048,291,-1608,314
-390,-91,2048,283,-2049,257
-426,-79,2048,287,-2483,177
-429,-69,2048,308,-2803,142
-427,-51,1965,308,-3086,64
-429,-37,1862,302,-3276,52
-428,-32,1755,230,-3415,72
-405,-49,1657,191,-3493,130
-371,-59,1583,173,-3596,109
-371,-71,1497,226,-3762,70
-314,-51,1433,251,-3958,23
-290,-38,1373,255,-4194,0
-248,-3,1293,248,-4411,-14
-247,24,1200,302,-4651,-8
-212,67,1077,341,-4809,27
-197,110,934,359,-4858,115
-198,89,762,501,-4813,261
-181,59,612,580,-4657,357
-157,50,460,644,-4458,416
-110,26,361,796,-4223,453
-63,32,260,931,-4057,503
-8,16,147,1078,-4004,511
43,28,5,1107,-3917,503
79,55,-135,1093,-3811,523
131,86,-310,1115,-3612,533
194,123,-430,1121,-3340,537
271,176,-481,957,-2985,529
307,191,-528,673,-2624,662
367,205,-545,281,-2202,744
401,200,-580,-30,-1795,839
435,214,-588,-161,-1413,859
432,207,-589,-51,-1067,923
478,180,-563,97,-667,947
504,172,-524,95,-329,955
523,171,-463,111,42,949
513,183,-387,197,365,1023
480,171,-319,365,667,1115
441,138,-297,638,953,1230
392,124,-214,898,1281,1259
367,108,-121,990,1589,1306
348,88,-25,980,1853,1279
310,51,55,939,2083,1251
295,28,153,755,2351,1246
283,9,279,496,2537,1189
244,-1,344,285,2546,1146
225,1,371,289,2498,1058
215,15,375,304,2476,986
163,38,410,289,2533,982
110,51,455,271,2732,998
64,23,476,289,2992,1058
29,-32,562,343,3181,1089
-3,-94,624,335,3275,1058
-30,-161,627,210,3337,1031
-51,-164,658,46,3355,867
-96,-99,738,74,3443,708
-95,-59,839,371,3529,705
-123,-26,978,806,3449,689
-114,-19,1068,1093,3330,640
-123,-23,1122,1011,3226,654
-151,-48,1170,701,3210,669
-194,-76,1207,279,3187,683
-222,-78,1270,46,3244,664
-254,-95,1401,52,3257,722
-251,-146,1443,214,3156,726
-253,-137,1473,263,3023,558
-238,-99,1480,203,2994,490
-212,-49,1549,150,2943,451
-220,13,1623,189,2869,421
-213,35,1678,257,2722,525
-228,36,1690,265,2517,572
-234,-31,1658,193,2328,638
-225,-83,1639,35,2132,656
-224,-58,1607,-43,1939,468
-238,-40,1568,-12,1869,400
-238,-53,1506,1,1849,392
-236,-27,1458,52,1841,253
-231,17,1458,189,1869,179
-229,52,1470,244,1847,140
-246,65,1515,136,1824,167
-228,47,1535,-16,1789,197
-246,31,1523,-110,1591,250
-249,17,1508,-71,1402,279
-274,-2,1513,44,1281,250
-270,-20,1513,125,1154,261
-263,-20,1482,210,1009,179
-256,-16,1508,271,890,82
-246,-4,1510,257,757,44
-241,16,1511,142,582,21
-257,50,1469,-86,437,11
-225,60,1449,-229,330,29
-214,66,1394,-270,199,76
-237,47,1371,-223,107,132
-264,2,1339,-124,68,158
-257,-15,1313,-155,80,146
-249,-40,1290,-202,93,130
-256,-47,1289,-250,62,93
-248,-44,1256,-299,-45,48
-234,-38,1216,-358,-167,3
-226,-32,1161,-407,-260,-57
-221,-17,1136,-428,-333,-71
-220,-2,1104,-315,-418,-86
-216,-14,1066,-151,-452,-96
-223,8,1041,-90,-432,-71
-210,-1,1038,-106,-391,-53
-216,-17,1000,-122,-334,-47
-206,-12,1003,-184,-256,-63
-203,-20,1003,-239,-208,-75
-195,-11,1004,-258,-209,-73
-195,-18,969,-239,-219,-75
-191,-38,987,-241,-241,-100
-188,-27,979,-250,-258,-139
-187,-21,966,-241,-276,-143
-179,-14,972,-211,-278,-135
-177,-6,943,-159,-260,-139
-171,2,948,-131,-227,-137
-171,21,937,-110,-170,-122
-170,10,949,-83,-100,-100
-160,4,955,-67,-55,-102
-167,-3,963,-67,-26,-133
-158,10,986,-104,-20,-143
-176,13,1001,-90,-55,-159
-183,1,998,-67,-71,-176
-185,2,1003,-73,-90,-206
-166,18,1005,-104,-83,-208
-183,33,996,-145,-83,-190
-173,22,1002,-145,-57,-163
-176,35,995,-133,-32,-120
-176,29,980,-110,-2,-92
-174,34,989,-71,27,-88
-175,32,995,-57,58,-92
-164,25,1034,-34,74,-98
-167,33,1040,7,44,-124
-164,28,1048,35,-6,-137
-180,31,1038,42,-51,-139
-175,42,1055,68,-71,-139
-165,29,1045,70,-77,-122
-174,33,1030,42,-63,-98
-169,39,1034,-2,-22,-94
-178,39,1035,-57,1,-63
-180,35,1055,-47,29,-42
-184,18,1057,-24,5,-16
-179,6,1063,-12,-34,-18
-176,-2,1084,-30,-83,-32
-180,-9,1074,-45,-110,-32
-185,-16,1059,-47,-122,-49
-185,-11,1062,-28,-125,-86
-187,-9,1067,-51,-133,-86
-182,-22,1046,-43,-145,-73
-187,-33,1040,-40,-125,-83
-180,-45,1044,-12,-114,-83
-183,-51,1041,25,-112,-81
-192,-59,1051,35,-122,-92
-187,-70,1060,-12,-129,-110
-189,-76,1056,-86,-139,-135
-186,-80,1046,-157,-157,-178
-191,-78,1032,-229,-153,-209
-183,-67,1020,-262,-124,-233
-175,-76,1013,-225,-90,-225
-176,-86,1040,-131,-92,-221
-183,-81,1052,-77,-110,-239
-181,-69,1042,-106,-133,-258
-176,-63,1044,-139,-159,-252
-168,-72,1043,-176,-188,-249
-175,-53,1046,-151,-250,-262
-167,-43,1041,-127,-282,-262
-174,-51,1031,-110,-258,-272
-177,-45,1028,-161,-245,-274
-171,-59,1024,-256,-192,-299
-181,-57,1009,-290,-190,-317
-171,-75,1001,-227,-155,-325
-166,-64,1021,-124,-155,-387
-173,-64,1033,-28,-165,-438
-180,-70,1038,-51,-170,-483
-169,-61,1037,-110,-194,-542
-173,-36,1053,-184,-243,-573
-168,-12,1019,-215,-256,-551
-164,-24,969,-231,-219,-516
-161,-28,975,-204,-168,-500
-152,-26,982,-122,-122,-489
-163,-41,995,-57,-53,-489
-168,-40,1018,-43,-14,-512
-157,-33,1021,-32,0,-549
-158,-17,1044,-57,-10,-543
-160,-12,1057,-90,-57,-542
-156,-13,1045,-86,-100,-545
-165,-18,1037,-81,-127,-536
-160,-22,1031,-100,-127,-520
-160,-4,1007,-129,-124,-495
-167,-29,1028,-106,-110,-487
-165,-25,1013,-69,-100,-487
-162,-18,1029,-49,-67,-502
-163,-5,1035,-30,-32,-506
-155,-16,1040,23,-34,-487
-154,-21,1048,115,-67,-473
-156,-16,1052,160,-118,-461
-146,-24,1055,158,-159,-458
-157,-22,1038,128,-172,-463
-166,-10,1036,128,-168,-448
-163,-6,1016,117,-118,-436
-162,-25,1028,91,-73,-424
-156,-35,1034,101,-22,-420
-154,-36,1060,93,-4,-422
-161,-43,1038,82,0,-442
-145,-46,1046,-2,3,-465
-158,-37,1057,-61,-14,-487
-143,-24,1042,-53,-69,-500
-134,-36,1028,27,-112,-514
-146,-24,1038,111,-163,-506
-152,-21,1013,144,-172,-491
-155,-45,1003,107,-143,-475
-154,-35,983,62,-102,-463
-151,-50,988,72,-36,-473
-155,-32,992,105,-8,-491
-142,-32,1016,144,-8,-495
-147,-44,1031,140,-26,-475
-146,-51,1026,83,-43,-477
-145,-64,1025,7,-57,-518
-147,-63,1026,-43,-81,-583
-152,-70,994,-57,-114,-624
-147,-52,982,1,-110,-668
-140,-34,1005,66,-81,-702
-141,-31,1008,83,-61,-696
-139,-13,1010,89,-26,-690
-132,1,1013,64,-24,-665
-132,1,1006,37,-32,-631
-132,-13,991,1,-24,-598
-140,-20,982,7,-30,-606
-131,-9,997,66,-30,-631
-136,-12,1011,132,-43,-649
-140,1,1001,191,-45,-653
-128,9,1019,195,-55,-629
-139,1,1027,177,-65,-612
-142,5,1019,177,-55,-598
-140,2,1004,177,-57,-565
-139,-6,1020,187,-49,-543
-144,-3,1025,191,-32,-542
-144,0,1049,193,-8,-547
-145,12,1036,160,-20,-549
-146,13,1058,140,-45,-540
-155,14,1050,95,-67,-516
-148,13,1027,66,-84,-495
-150,6,1007,74,-83,-497
-148,0,1003,109,-65,-497
-161,-2,1001,130,-34,-499
-146,-1,988,166,-24,-495
-150,-19,1007,195,-8,-485
-158,-10,986,199,1,-463
-189,-38,1011,146,25,-448
-124,-23,1007,93,64,-352
-174,-26,998,23,7,-362
-138,-29,986,-2,21,-286
-187,-43,986,-53,-30,-247
-167,-73,980,3,74,-217
-143,-78,1001,33,117,-235
-171,-79,1024,97,150,-327
-148,-76,1013,103,203,-391
-163,-71,1035,56,175,-450
-158,-71,1012,70,140,-510
-157,-63,1034,42,121,-542
-164,-49,1010,-2,83,-590
-151,-45,994,-36,29,-614
-146,-36,984,-69,5,-629
-142,-35,950,-83,3,-643
-165,-32,955,-28,7,-649
-168,-46,975,87,64,-668
-157,-38,1009,136,121,-750
-151,-27,1021,54,154,-795
-140,-18,1040,-38,169,-774
-134,-7,1032,-112,156,-749
-140,4,1017,-131,117,-727
-146,11,996,-75,78,-704
-143,21,1005,7,58,-696
-138,36,1009,107,66,-661
-148,26,1018,158,66,-655
-145,39,1009,222,103,-733
-134,65,1025,214,154,-772
-132,99,1052,167,154,-784
-134,119,1042,152,136,-750
-130,123,1051,119,132,-702
-125,121,1042,87,132,-663
-128,133,1057,85,134,-633
-135,138,1047,111,115,-559
-143,131,1059,167,91,-471
-151,120,1062,207,66,-446
-154,115,1073,185,60,-450
-147,126,1063,107,64,-452
-143,122,1064,85,48,-434
-143,126,1069,74,42,-389
-144,118,1031,44,29,-305
-160,106,1024,50,46,-256
-153,105,1036,85,103,-245
-154,95,1052,113,107,-178
-149,81,1061,154,89,-157
-148,89,1038,89,82,-147
-159,90,1049,21,74,-141
-148,89,1041,3,89,-104
-157,91,1053,-6,83,-61
-157,80,1027,-20,78,-10
-153,55,1027,-28,97,42
-167,46,1018,5,128,70
-168,28,1046,64,136,66
-171,29,1063,85,128,46
-166,29,1052,54,121,31
-172,24,1048,3,97,23
-164,20,1043,-24,72,15
-169,36,1042,-14,41,23
-166,28,1060,13,42,50
-167,28,1039,9,44,95
-191,0,1018,11,66,119
-170,-5,1028,46,140,146
-181,-20,1049,42,175,107
-186,-27,1063,76,195,70
-170,-22,1111,74,189,60
-186,-27,1116,35,115,70
-191,-22,1126,25,74,74
-186,0,1153,0,23,74
-171,0,1163,-2,-14,85
-185,25,1226,42,-12,107
-182,41,1278,136,27,119
-201,43,1380,261,39,95
-212,76,1505,369,21,5
-205,124,1660,417,31,17
-186,159,1795,384,-28,46
-191,214,1951,324,-211,78
-211,259,2048,308,-397,167
-215,278,2048,326,-592,275
-263,271,2048,369,-827,429
-295,262,2048,388,-1104,593
-315,257,2048,435,-1352,708
-386,229,2048,574,-1727,779
-446,183,2048,630,-2221,857
-494,124,2048,712,-2696,878
-547,98,2048,761,-3198,835
-609,81,2048,673,-3752,826
-648,75,2048,390,-4333,867
-684,65,2048,183,-4846,902
-713,38,2048,126,-5317,912
-744,-7,1848,222,-5665,917
-730,-36,1609,380,-5819,880
-704,-83,1391,345,-5864,847
-664,-106,1134,195,-5903,837
-616,-144,888,199,-5879,728
-529,-124,653,248,-5831,603
-432,-98,372,169,-5846,515
-332,-61,101,166,-5793,464
-224,-25,-196,183,-5702,517
-135,-17,-475,324,-5459,572
-59,-31,-694,640,-5043,599
74,-48,-805,855,-4432,619
149,-38,-828,951,-3731,593
214,-48,-787,1021,-3141,582
289,-45,-731,1080,-2602,515
350,-31,-674,1019,-2143,476
416,-49,-602,851,-1807,443
444,-34,-562,681,-1540,416
449,-11,-521,576,-1280,318
466,8,-491,455,-934,279
485,16,-439,255,-596,304
519,43,-425,68,-292,322
554,63,-394,25,11,371
571,95,-319,21,326,378
567,108,-303,-10,583,400
566,128,-272,-16,787,365
596,166,-286,-22,1054,283
577,211,-223,93,1271,322
553,259,-159,517,1470,396
538,307,-89,1021,1660,529
487,324,8,1542,1830,685
443,330,93,1857,2046,779
393,328,173,1847,2222,826
333,314,271,1697,2376,804
312,313,368,1404,2531,763
279,342,439,1064,2664,726
226,330,488,861,2710,751
169,308,503,726,2751,761
108,276,491,611,2873,812
81,232,520,464,3091,789
58,244,571,304,3308,730
26,250,598,85,3433,724
-35,263,628,48,3537,775
-50,250,712,142,3681,896
-66,247,789,339,3736,972
-122,226,912,746,3626,964
-152,169,957,1130,3453,1027
-223,96,1017,1289,3298,1027
-258,32,1053,1039,3308,1000
-269,17,1090,568,3429,841
-263,64,1166,95,3646,699
-258,101,1261,-211,3763,703
-268,133,1347,-274,3699,681
-279,136,1407,-88,3603,742
-275,129,1483,173,3425,818
-287,95,1564,382,3228,791
-326,62,1647,503,3054,791
-319,36,1690,261,2890,738
-325,10,1702,-221,2705,644
-353,-10,1660,-493,2552,578
-346,-35,1630,-551,2470,519
-332,-39,1593,-583,2355,382
-318,3,1615,-563,2248,210
-295,40,1598,-581,2146,103
-268,63,1564,-645,1986,93
-272,61,1580,-655,1783,87
-281,59,1539,-723,1570,87
-292,57,1461,-797,1400,140
-301,12,1397,-772,1347,240
-321,-14,1346,-563,1361,275
-323,-46,1354,-280,1443,261
-302,-32,1397,-163,1525,195
-290,-24,1412,-293,1513,117
-285,-22,1411,-493,1410,54
-251,4,1385,-667,1234,-6
-267,24,1337,-698,1023,-77
-269,35,1270,-487,855,-106
-259,57,1265,-268,757,-90
-259,75,1225,-73,667,-55
-290,82,1227,117,615,-43
-290,72,1199,162,623,7
-286,46,1203,54,662,46
-283,32,1186,-133,650,56
-291,17,1163,-297,578,27
-285,-1,1112,-387,501,-8
-280,19,1083,-354,458,-96
-272,62,1095,-239,462,-182
-261,81,1107,-159,402,-190
-264,93,1122,-92,302,-170
-259,94,1090,-43,251,-155
-258,89,1056,-57,205,-112
-257,97,1029,-77,216,-94
-254,98,1025,-100,234,-65
-264,110,1024,-114,259,-57
-267,111,1073,-75,312,-69
-224,159,1119,-36,330,-59
-282,123,1140,-45,242,-43
-269,89,1146,-81,220,11
-261,86,1143,-178,183,-6
-266,91,1129,-250,128,-43
-275,103,1118,-157,70,-28
-273,96,1106,-22,31,21
-290,87,1119,82,35,27
-269,79,1102,46,76,21
-269,95,1119,-75,89,-14
-262,90,1099,-168,74,-20
-269,84,1105,-137,9,-34
-261,64,1111,-73,-51,-28
-272,60,1107,-53,-125,-40
-269,56,1081,-71,-180,-38
-283,40,1076,-106,-204,-43
-273,43,1038,-145,-184,-59
-272,51,1006,-178,-135,-63
-264,60,1001,-168,-61,-75
-270,67,1001,-131,-12,-83
-253,64,1001,-104,5,-88
-255,65,1028,-102,-26,-71
-250,60,1024,-98,-57,-73
-246,63,1041,-112,-114,-92
-247,58,1028,-114,-149,-84
-249,57,1005,-151,-170,-69
-253,45,992,-161,-180,-61
-257,26,985,-120,-139,-71
-261,21,977,-79,-81,-106
-249,27,973,-102,-36,-143
-245,46,999,-188,-22,-165
-234,56,995,-241,-61,-168
-238,55,1005,-260,-100,-198
-237,68,962,-282,-139,-208
-234,59,932,-325,-157,-196
-239,64,931,-284,-145,-186
-246,44,929,-198,-116,-196
-249,50,925,-127,-77,-202
-247,41,945,-53,-10,-209
-253,35,968,-12,42,-196
-246,34,992,-16,74,-192
-257,33,1011,-63,83,-209
-246,20,1041,-108,48,-233
-247,19,1020,-188,-6,-237
-255,11,1037,-215,-63,-252
-257,8,1016,-223,-104,-252
-258,6,1005,-194,-137,-258
-269,-16,990,-153,-114,-274
-258,-10,965,-131,-12,-295
-255,14,993,-118,54,-323
-257,19,1005,-69,70,-342
-261,11,1036,-20,80,-352
-259,6,1060,-24,64,-372
-257,5,1058,-71,0,-385
-253,12,1079,-114,-69,-397
-264,1,1066,-149,-151,-409
-279,0,1039,-112,-184,-407
-289,-14,1004,-67,-157,-420
-283,-12,1010,-59,-65,-483
-271,14,1011,-92,11,-540
-258,36,1031,-122,44,-536
-258,41,1047,-83,41,-522
-253,42,1056,-67,-6,-504
-267,14,1051,-79,-83,-477
-272,11,1029,-90,-139,-469
-271,-3,1002,-75,-180,-475
-287,5,1014,-16,-198,-502
-273,8,1017,52,-190,-532
-285,14,1006,93,-170,-524
-275,25,1015,123,-149,-522
-273,21,1015,83,-116,-532
-269,37,1025,-2,-108,-542
-264,41,1018,-77,-125,-526
-264,25,990,-81,-131,-487
-253,29,1017,-63,-129,-495
-258,24,1014,-59,-131,-522
-266,15,1027,-79,-153,-516
-269,18,1014,-75,-184,-512
-274,15,1017,-26,-209,-510
-268,8,1021,-24,-223,-477
-262,16,992,-63,-208,-465
-273,10,1001,-100,-204,-471
-259,10,988,-94,-188,-483
-253,17,993,-69,-167,-493
-255,20,996,-43,-155,-510
-260,10,967,-26,-137,-512
-248,13,982,-2,-90,-508
-260,13,978,21,-38,-512
-256,15,1002,56,-22,-530
-240,12,997,83,-14,-545
-258,4,1018,97,15,-559
-252,-3,1039,42,37,-571
-265,-8,1043,-40,11,-596
-258,-6,1011,-114,-26,-629
-262,-12,1021,-180,-59,-633
-259,-10,1018,-190,-67,-590
-264,-15,1010,-176,-84,-559
-268,-26,1023,-96,-94,-581
-255,-41,1016,-22,-77,-625
-258,-29,1057,-34,-96,-663
-255,-39,1043,-94,-124,-696
-252,-24,1028,-202,-159,-750
-253,-14,1001,-278,-188,-784
-245,-15,997,-256,-208,-768
-252,-20,981,-137,-184,-766
-248,-11,958,5,-104,-774
-243,-9,976,80,-24,-762
-243,9,1008,56,29,-780
-250,4,1029,-20,48,-793
-240,11,1023,-77,50,-768
-255,2,1018,-104,-2,-756
-237,-6,1015,-83,-61,-727
-253,-12,1039,-57,-69,-752
-252,-7,1034,-71,-110,-774
-255,-12,1025,-84,-155,-786
-263,-16,1024,-88,-167,-793
-262,-7,1001,-122,-155,-788
-262,-13,990,-167,-127,-770
-240,-8,976,-159,-92,-747
-254,0,979,-114,-98,-735
-251,1,978,-47,-63,-741
-254,-24,977,41,-49,-727
-253,-38,983,42,-43,-752
-247,-24,999,-36,-26,-792
-239,-21,998,-143,-10,-817
-249,-20,982,-159,-14,-834
-250,-14,980,-79,-2,-833
-225,-11,992,29,5,-825
-228,-11,998,93,-22,-815
-228,-3,1019,95,-38,-799
-229,11,1015,56,-42,-735
-227,2,1004,29,-51,-688
-237,-9,1008,37,-84,-672
-237,-13,1022,41,-100,-676
-262,-40,989,62,-81,-706
-256,-24,1003,103,5,-733
-245,-15,1023,78,46,-768
-238,-7,1022,80,42,-772
-242,10,1023,109,21,-768
-233,6,1021,130,-26,-747
-250,3,1021,119,-47,-733
-248,-5,1004,62,-53,-715
-238,-6,1007,27,-77,-706
-240,-1,977,11,-90,-694
-246,-6,969,64,-92,-713
-233,6,968,158,-49,-727
-226,20,983,150,11,-700
-217,51,982,125,23,-692
-217,46,979,70,13,-643
-233,59,1006,50,27,-584
-216,52,1000,35,37,-567
-211,35,987,17,42,-538
-228,29,997,5,60,-534
-209,29,1001,31,78,-551
-223,43,1012,29,54,-543
-233,46,1005,56,46,-534
-224,46,1003,89,56,-536
-213,68,1017,60,70,-538
-213,82,1010,11,64,-495
-197,79,998,39,60,-436
-205,86,1000,85,50,-405
-207,81,992,115,48,-366
-213,81,998,125,52,-327
-217,98,1022,89,64,-282
-214,90,1015,66,78,-245
-229,79,999,95,80,-223
-231,101,1005,154,103,-217
-226,83,1010,197,130,-168
-236,76,1050,177,136,-127
-224,65,1033,107,128,-102
-241,47,1041,3,119,-96
-243,36,1022,-59,101,-98
-237,42,1007,-79,93,-106
-240,26,998,-22,105,-98
-232,50,1010,58,130,-65
-248,40,1029,128,128,-51
-227,48,1057,150,140,-8
-246,31,1040,68,121,35
