sequence,AccelerometerX,AccelerometerY,AccelerometerZ,GyroscopeX,GyroscopeY,GyroscopeZ
0,-234,-118,1003,-30,-40,-10
1,-233,-122,973,-14,-51,-24
2,-230,-118,972,25,-43,-28
3,-237,-114,969,78,-38,-8
4,-237,-121,939,154,-45,-4
5,-237,-117,963,230,-45,5
6,-230,-127,959,283,-45,11
7,-215,-113,941,281,-26,9
8,-223,-123,935,228,11,-18
9,-222,-111,945,195,42,-14
10,-222,-107,959,175,46,-10
11,-215,-100,935,181,42,1
12,-227,-98,959,228,29,-22
13,-234,-97,944,296,13,-8
14,-224,-114,955,398,-12,1
15,-231,-117,958,509,-18,-4
16,-240,-94,976,554,13,-14
17,-222,-108,991,482,64,-10
18,-212,-107,1004,382,107,-42
19,-223,-106,1014,261,140,-67
20,-215,-87,1028,173,185,-92
21,-189,-74,1018,125,197,-106
22,-193,-72,1008,72,130,-104
23,-186,-49,1003,158,134,-94
24,-173,-48,1010,214,113,-81
25,-180,-45,1010,296,68,-73
26,-191,-38,1010,347,21,-30
27,-218,-35,996,390,15,27
28,-222,-51,993,396,42,64
29,-267,-51,986,357,48,80
30,-276,-66,1014,275,103,119
31,-287,-76,1012,195,152,138
32,-298,-73,1030,171,162,130
33,-305,-83,1022,136,167,121
34,-296,-81,1055,146,158,93
35,-296,-79,1045,150,103,56
36,-293,-69,1057,152,50,42
37,-291,-64,1035,207,15,44
38,-286,-59,1051,261,-18,50
39,-303,-55,998,281,-18,52
40,-275,-60,1019,265,54,76
41,-281,-47,1025,228,85,60
42,-294,-49,1054,210,97,35
43,-283,-43,1041,193,66,35
44,-298,-46,1044,185,44,42
45,-286,-51,1027,167,21,31
46,-271,-45,1030,160,5,5
47,-260,-28,1039,173,-14,-10
48,-270,-28,1038,212,-75,-22
49,-280,-32,1044,273,-112,1
50,-283,-37,1030,351,-157,3
51,-285,-43,1028,373,-186,-8
52,-274,-41,1019,273,-184,-20
53,-261,-35,1003,123,-161,-49
54,-260,-32,1020,-53,-122,-88
55,-243,-9,1020,-112,-83,-94
56,-230,8,1031,-55,-71,-77
57,-226,-3,1009,62,-51,-43
58,-225,-16,1019,126,-51,-4
59,-219,-16,1013,113,-28,3
60,-225,-21,1016,64,0,23
61,-242,-35,998,29,29,48
62,-240,-43,983,23,35,66
63,-247,-43,997,64,29,54
64,-257,-58,997,85,35,50
65,-278,-62,1022,68,74,46
66,-266,-67,1029,5,125,37
67,-262,-70,1064,-47,136,23
68,-263,-68,1092,-71,128,1
69,-236,-51,1087,-102,83,-42
70,-237,-47,1076,-153,29,-57
71,-234,-40,1053,-180,-42,-81
72,-231,-39,1024,-174,-106,-71
73,-237,-46,996,-98,-112,-77
74,-234,-32,945,7,-40,-53
75,-226,-39,965,72,42,-26
76,-234,-28,989,97,107,-14
77,-227,-29,1000,91,140,5
78,-212,-25,1005,85,109,-4
79,-221,-21,1011,52,25,11
80,-231,-34,994,17,1,37
81,-225,-36,984,37,-18,50
82,-250,-41,971,107,1,66
83,-254,-50,965,140,48,107
84,-257,-74,978,154,115,115
85,-272,-85,982,160,162,97
86,-274,-89,996,177,185,76
87,-280,-96,1001,181,201,54
88,-282,-79,1025,171,197,3
89,-282,-77,1053,103,179,-20
90,-280,-63,1070,48,109,-38
91,-286,-55,1045,42,46,-45
92,-292,-50,1030,33,3,-34
93,-292,-68,1024,41,-14,-40
94,-294,-71,1009,56,11,-79
95,-294,-59,1026,37,42,-104
96,-274,-47,1047,1,64,-129
97,-283,-37,1043,-12,41,-141
98,-282,-32,1028,-12,-10,-143
99,-267,-22,1033,0,-47,-127
100,-258,-14,1016,-24,-67,-120
101,-274,-3,1009,-67,-57,-118
102,-261,-9,986,-73,-38,-90
103,-276,0,993,-38,-16,-96
104,-254,-15,994,0,33,-86
105,-270,-21,1004,31,50,-88
106,-263,-13,1030,60,52,-75
107,-268,-8,1022,76,39,-53
108,-262,4,1020,80,21,-30
109,-261,-2,1014,68,0,-8
110,-273,-12,1019,58,-20,15
111,-268,-14,1023,15,-38,15
112,-280,-19,1022,-14,-65,1
113,-277,-33,1002,-28,-69,-18
114,-271,-23,986,-10,-57,-36
115,-278,-26,976,1,-34,-53
116,-263,-18,989,37,3,-53
117,-268,-18,987,85,42,-24
118,-267,-7,997,134,64,-18
119,-273,-20,1008,128,58,-32
120,-261,-18,1004,85,42,-26
121,-270,-25,1014,33,21,-40
122,-264,-25,1018,-24,3,-49
123,-272,-30,979,-42,-6,-55
124,-270,-22,996,-6,23,-57
125,-268,-27,1006,-6,56,-59
126,-256,-26,1004,0,85,-45
127,-254,-15,1027,80,76,-40
128,-249,-18,1022,162,56,-24
129,-256,-7,1029,177,39,0
130,-257,3,1042,185,37,11
131,-268,6,1083,210,68,46
132,-258,15,1127,257,103,82
133,-274,13,1164,304,142,109
134,-290,-5,1249,425,195,134
135,-309,0,1340,529,167,128
136,-330,-24,1416,615,78,68
137,-363,-33,1510,609,-24,-6
138,-367,-19,1619,591,-118,-69
139,-359,4,1748,570,-241,-125
140,-385,40,1852,494,-434,-124
141,-421,57,1913,406,-618,31
142,-438,50,1997,480,-737,167
143,-472,21,2048,628,-821,275
144,-548,-48,2048,744,-1032,304
145,-578,-85,2048,773,-1278,332
146,-611,-149,2048,535,-1758,193
147,-588,-145,2048,166,-2303,17
148,-615,-113,2048,-192,-2901,-122
149,-621,-82,2012,-467,-3377,-235
150,-603,-68,1817,-559,-3770,-293
151,-574,-40,1651,-471,-3961,-358
152,-517,-5,1522,-528,-4026,-389
153,-480,18,1400,-661,-4042,-362
154,-429,30,1280,-774,-4038,-387
155,-360,44,1175,-897,-4032,-422
156,-299,19,1053,-1000,-4077,-409
157,-277,52,929,-1002,-4106,-417
158,-268,26,833,-811,-4178,-344
159,-235,-4,764,-438,-4190,-348
160,-194,-7,713,-139,-4221,-393
161,-220,-9,624,-2,-4262,-426
162,-194,27,536,105,-4194,-440
163,-155,10,404,44,-4096,-448
164,-145,5,260,9,-3868,-428
165,-108,1,147,33,-3563,-422
166,-47,29,70,19,-3219,-479
167,8,29,27,169,-2979,-473
168,52,47,-28,427,-2795,-420
169,98,72,-75,736,-2588,-383
170,133,80,-104,1054,-2450,-301
171,171,45,-159,1300,-2264,-217
172,227,44,-172,1419,-2014,-213
173,312,117,-83,1285,-1684,-424
174,378,281,28,914,-1334,-606
175,447,447,174,591,-1059,-577
176,465,648,346,556,-784,-489
177,516,759,580,732,-612,-200
178,557,859,777,966,-543,171
179,579,977,1026,1044,-477,435
180,581,1080,1233,822,-463,798
181,566,1204,1393,453,-530,1130
182,551,1289,1485,46,-805,1474
183,513,1352,1505,-188,-1168,1810
184,455,1364,1438,-338,-1465,2142
185,405,1352,1284,-528,-1670,2535
186,334,1284,1100,-819,-1747,2951
187,282,1214,919,-1051,-1711,3302
188,232,1105,704,-1165,-1625,3724
189,162,968,502,-911,-1495,4175
190,134,848,382,-426,-1243,4476
191,131,679,276,-133,-1063,4792
192,145,485,196,27,-850,4976
193,149,338,99,25,-604,5056
194,92,186,33,-30,-487,5044
195,99,75,4,37,-225,4966
196,70,-20,-93,74,-55,4943
197,20,-173,-174,332,82,4916
198,15,-299,-238,789,339,4783
199,25,-407,-232,1083,746,4560
200,-9,-491,-176,916,1123,4302
201,25,-497,-157,566,1458,4009
202,0,-499,-173,236,1628,3951
203,-107,-538,-137,486,1710,3878
204,-108,-579,-57,906,1988,3785
205,-153,-690,15,1148,2185,3779
206,-260,-839,147,1416,2361,3648
207,-276,-949,298,1451,2660,3332
208,-354,-1054,418,1041,2857,3042
209,-418,-1106,476,669,2919,2652
210,-423,-1114,561,458,2974,2314
211,-465,-1102,631,501,2929,2023
212,-419,-1142,723,724,3015,1759
213,-367,-1184,736,593,3087,1501
214,-365,-1197,750,189,3216,1121
215,-394,-1168,799,-262,3451,798
216,-420,-1157,893,-346,3619,634
217,-497,-1164,961,-2,3601,480
218,-546,-1181,1047,589,3625,218
219,-482,-1200,1114,935,3619,-81
220,-478,-1157,1156,1066,3458,-450
221,-521,-1106,1182,1181,3279,-678
222,-586,-1047,1276,1380,3222,-944
223,-627,-1004,1387,1375,3277,-1143
224,-688,-1029,1435,1191,3265,-1247
225,-738,-1085,1495,980,3267,-1346
226,-779,-1151,1535,882,3285,-1500
227,-834,-1202,1580,1138,3089,-1715
228,-915,-1242,1662,1613,2851,-2250
229,-934,-1155,1777,2058,2722,-3000
230,-954,-1054,1869,1916,2414,-3612
231,-914,-895,1915,1324,2085,-4145
232,-890,-693,1912,416,1777,-4583
233,-856,-483,1848,-184,1496,-4793
234,-794,-328,1792,-18,1164,-4907
235,-775,-156,1772,486,822,-4995
236,-701,35,1782,900,892,-5186
237,-670,229,1783,779,912,-5231
238,-600,404,1757,443,869,-5200
239,-490,600,1706,52,775,-5049
240,-383,758,1635,-196,671,-4741
241,-292,880,1583,-249,451,-4465
242,-208,969,1495,-155,261,-4168
243,-148,1038,1430,-43,144,-3795
244,-121,1035,1369,-4,136,-3372
245,-114,1001,1315,54,261,-3012
246,-111,934,1302,80,382,-2663
247,-129,879,1333,113,519,-2331
248,-145,826,1310,13,568,-1967
249,-143,740,1304,-143,480,-1708
250,-116,680,1309,-163,398,-1608
251,-143,656,1318,-114,89,-1553
252,-167,613,1228,-223,-182,-1387
253,-193,539,1161,-340,-360,-1200
254,-199,490,1074,-379,-323,-1100
255,-191,471,1028,-319,-245,-948
256,-187,424,1020,-67,-129,-768
257,-187,375,1006,179,-26,-551
258,-199,299,1032,292,68,-327
259,-201,209,1051,283,125,-157
260,-188,131,1097,203,103,-114
261,-191,88,1114,76,-10,-139
262,-200,53,1114,-165,-188,-137
263,-191,35,1058,-305,-319,-135
264,-204,19,996,-225,-469,-149
265,-201,10,921,-4,-495,-172
266,-170,5,866,134,-387,-168
267,-156,24,902,248,-233,-161
268,-131,39,912,177,-96,-131
269,-142,34,947,41,-20,-63
270,-153,6,961,-170,35,58
271,-172,-35,949,-278,5,167
272,-173,-94,938,-198,-65,236
273,-170,-125,948,19,-79,193
274,-179,-131,975,175,-104,150
275,-181,-131,1025,208,-149,125
276,-176,-150,1029,126,-168,44
277,-187,-136,1007,35,-114,-47
278,-167,-124,977,-86,-108,-104
279,-165,-109,968,-96,-116,-114
280,-153,-93,975,-2,-129,-120
281,-145,-87,969,72,-131,-92
282,-143,-77,974,123,-112,-57
283,-152,-87,978,89,-104,11
284,-171,-108,953,101,-92,29
285,-176,-132,946,123,-36,27
286,-187,-153,958,164,33,0
287,-178,-152,999,203,85,-55
288,-190,-148,1014,201,119,-135
289,-177,-143,1017,152,115,-163
290,-182,-131,1031,107,72,-184
291,-175,-106,1005,80,44,-188
292,-177,-102,1016,97,21,-200
293,-169,-97,1002,115,31,-180
294,-168,-103,990,121,44,-172
295,-175,-102,989,175,64,-192
296,-164,-75,1004,173,103,-206
297,-153,-85,1017,117,150,-225
298,-199,-86,1047,85,121,-264
299,-168,-87,1021,68,201,-198
300,-154,-85,1035,72,199,-208
301,-178,-95,1036,99,119,-225
302,-177,-81,1062,121,97,-167
303,-156,-68,1079,113,95,-129
304,-216,-73,1087,105,-10,-84
305,-193,-88,1053,171,39,-106
306,-205,-97,1049,126,-12,-118
307,-214,-82,1057,105,-6,-137
308,-206,-73,1048,56,27,-163
309,-203,-63,1049,35,56,-157
310,-204,-59,1054,39,72,-163
311,-206,-56,1059,72,42,-145
312,-198,-55,1074,89,13,-159
313,-209,-52,1059,31,-6,-149
314,-208,-66,1064,-8,-20,-125
315,-193,-51,1051,-55,-38,-131
316,-201,-44,1046,-57,-75,-116
317,-207,-50,1020,-34,-79,-84
318,-206,-52,1001,1,-34,-77
319,-203,-66,1007,-8,37,-84
320,-194,-52,1024,-42,74,-69
321,-202,-65,1029,-40,97,-57
322,-192,-55,1042,7,91,-53
323,-194,-73,1027,48,54,-45
324,-190,-64,1040,58,21,-55
325,-199,-65,1027,7,-30,-42
326,-203,-63,1034,-16,-49,-38
327,-199,-62,1024,23,-45,-18
328,-192,-52,1031,74,-26,9
329,-187,-73,1019,85,-4,11
330,-194,-83,1018,85,11,9
331,-203,-72,1014,37,42,9
332,-206,-75,1006,0,54,-16
333,-204,-77,1035,25,64,-34
334,-200,-76,1044,37,48,-49
335,-200,-83,1060,21,3,-36
336,-210,-77,1045,-24,-32,-30
337,-201,-79,1044,-65,-47,-28
338,-199,-81,1024,-110,-40,-22
339,-200,-77,1022,-112,-26,-24
340,-203,-75,1004,-63,-18,-20
341,-199,-86,1009,-4,13,-12
342,-205,-93,1004,27,42,-10
343,-189,-89,1004,54,64,-30
344,-190,-79,1023,74,76,-26
345,-193,-71,1033,74,64,-28
346,-193,-70,1046,52,52,1
347,-183,-85,1064,1,23,21
348,-195,-80,1045,-57,-38,3
349,-192,-83,1032,-110,-65,1
350,-198,-67,1022,-106,-81,-16
351,-202,-79,1002,-30,-94,-18
352,-212,-86,983,70,-61,-14
353,-203,-79,995,117,5,-18
354,-197,-76,1004,74,74,-26
355,-193,-71,1024,11,111,-51
356,-183,-61,1010,-26,105,-43
357,-191,-62,1039,-51,83,-24
358,-185,-73,1021,-81,29,-26
359,-187,-64,1016,-77,-18,-30
360,-202,-84,1013,-73,-36,-14
361,-197,-85,1007,-51,-34,0
362,-216,-98,989,19,-10,9
363,-200,-92,1000,80,42,0
364,-197,-95,1004,85,76,-45
365,-191,-82,1004,74,78,-71
366,-190,-71,1025,46,58,-71
367,-192,-53,1028,-8,35,-71
368,-192,-55,1000,-84,7,-26
369,-194,-74,976,-106,-6,-4
370,-199,-80,953,-36,13,-10
371,-203,-71,982,52,82,-4
372,-215,-86,1000,99,152,-18
373,-211,-83,1011,138,195,-24
374,-216,-84,1023,146,250,-18
375,-213,-89,1074,103,253,1
376,-210,-85,1078,42,228,-14
377,-213,-88,1089,11,179,-8
378,-210,-100,1071,66,160,5
379,-205,-91,1122,154,150,1
380,-204,-89,1140,296,164,1
381,-221,-87,1240,496,210,-24
382,-228,-75,1324,599,261,-16
383,-220,-74,1438,525,292,13
384,-216,-74,1544,421,304,-22
385,-237,-64,1660,167,314,-47
386,-271,-62,1768,89,142,0
387,-308,-59,1891,261,9,60
388,-354,-76,2034,753,-268,119
389,-350,-127,2048,1367,-458,121
390,-516,-125,2048,1427,-768,189
391,-442,-173,2048,1392,-827,218
392,-567,-165,2048,857,-1432,115
393,-601,-172,2048,351,-1819,-61
394,-574,-125,2048,5,-2270,-170
395,-582,-114,2048,-362,-3000,-262
396,-594,-56,2034,-497,-3561,-368
397,-575,-36,1852,-489,-3889,-411
398,-537,1,1696,-411,-4026,-366
399,-517,18,1605,-274,-4114,-362
400,-485,25,1512,-231,-4170,-342
401,-453,42,1381,-362,-4264,-303
402,-427,14,1227,-575,-4280,-243
403,-357,-10,1071,-778,-4247,-256
404,-302,-27,902,-1075,-4229,-319
405,-240,-22,739,-1403,-4333,-403
406,-200,12,575,-1479,-4356,-477
407,-159,15,430,-1286,-4354,-444
408,-160,30,288,-887,-4235,-422
409,-132,9,199,-409,-3993,-379
410,-67,4,65,-83,-3756,-258
411,-40,-45,-35,126,-3600,-227
412,21,-43,-94,238,-3280,-221
413,114,-58,-126,148,-2918,-260
414,124,-55,-121,-18,-2637,-260
415,173,-25,-82,-36,-2344,-270
416,198,-29,-75,-16,-2137,-225
417,233,-34,-56,187,-2008,-194
418,260,-31,-38,416,-1827,-202
419,311,-29,-11,373,-1577,-198
420,348,-8,15,195,-1301,-229
421,335,17,74,154,-1028,-243
422,342,52,172,261,-692,-313
423,358,79,289,384,-469,-278
424,348,117,454,566,-299,-264
425,377,244,610,630,-178,-327
426,398,337,797,544,-102,-340
427,457,457,941,406,-149,-213
428,500,585,1089,261,-262,-163
429,500,794,1209,220,-395,-40
430,562,962,1328,384,-477,201
431,565,1095,1452,542,-670,568
432,542,1199,1461,691,-938,1009
433,531,1217,1423,603,-1221,1480
434,512,1227,1352,445,-1473,1935
435,472,1211,1248,388,-1481,2296
436,416,1150,1065,294,-1491,2722
437,349,1055,885,156,-1586,3087
438,309,966,717,107,-1479,3386
439,255,838,594,35,-1366,3654
440,211,708,485,-2,-1159,3857
441,229,581,363,-92,-938,4058
442,202,446,250,-86,-821,4236
443,182,345,161,85,-684,4326
444,161,267,88,367,-504,4404
445,149,209,39,726,-327,4498
446,84,96,16,964,-227,4574
447,119,-38,-58,1060,17,4685
448,85,-143,-96,960,210,4648
449,64,-256,-156,785,455,4546
450,19,-330,-192,660,773,4458
451,34,-371,-194,609,1121,4298
452,-33,-411,-244,597,1287,4203
453,-88,-463,-255,841,1476,4109
454,-86,-501,-272,1037,1818,4097
455,-176,-616,-248,1195,2097,4126
456,-243,-743,-135,1500,2541,3992
457,-362,-841,-8,1501,3015,3685
458,-391,-946,89,1189,3441,3394
459,-499,-1033,169,763,3757,3220
460,-571,-1150,316,712,4037,2935
461,-578,-1195,520,1048,4306,2548
462,-523,-1279,737,1177,4443,2140
463,-530,-1306,826,925,4453,1826
464,-598,-1265,923,609,4373,1421
465,-640,-1238,991,533,4419,1177
466,-687,-1258,1064,785,4261,1019
467,-797,-1294,1109,1373,4074,728
468,-844,-1363,1162,1609,4107,390
469,-850,-1433,1197,1308,4257,85
470,-888,-1463,1238,1033,4369,-336
471,-907,-1387,1394,1171,4478,-987
472,-904,-1278,1582,1441,4472,-1674
473,-881,-1178,1643,1535,4214,-2024
474,-885,-1090,1644,1544,3666,-2405
475,-878,-1010,1623,1482,3191,-2721
476,-871,-927,1587,1363,2919,-2909
477,-892,-823,1601,1296,2802,-3223
478,-898,-753,1625,1351,2765,-3415
479,-895,-660,1696,1386,2734,-3579
480,-919,-561,1743,1310,2658,-3797
481,-942,-512,1774,1250,2568,-3959
482,-911,-435,1829,1230,2410,-4178
483,-888,-282,1891,1117,2132,-4512
484,-837,-164,1934,927,1837,-4684
485,-802,19,1971,687,1539,-4834
486,-765,169,1989,314,1316,-4881
487,-741,291,1933,-38,1109,-4756
488,-714,370,1801,-122,835,-4639
489,-677,422,1652,-22,515,-4477
490,-628,469,1501,150,289,-4307
491,-577,538,1378,253,279,-4252
492,-462,670,1346,177,498,-4163
493,-364,792,1361,35,722,-3958
494,-326,810,1368,-77,833,-3504
495,-307,756,1358,44,740,-3018
496,-318,677,1397,382,587,-2786
497,-291,610,1428,556,349,-2553
498,-303,583,1424,421,58,-2432
499,-302,557,1368,154,-145,-2336
500,-268,564,1284,-86,-254,-2192
501,-259,582,1224,-178,-354,-2049
502,-243,576,1153,-176,-338,-1829
503,-243,563,1095,-188,-307,-1612
504,-226,537,1043,-184,-274,-1381
505,-195,509,1005,-245,-211,-1157
506,-198,502,1008,-292,-102,-954
507,-186,469,1033,-208,-71,-745
508,-198,425,1013,5,-129,-534
509,-212,354,1030,212,-174,-342
510,-207,281,1059,341,-231,-221
511,-211,222,1033,337,-333,-163
512,-222,170,997,294,-430,-145
513,-243,123,981,251,-415,-110
514,-238,83,971,312,-399,-67
515,-244,59,967,341,-428,-40
516,-244,40,962,337,-458,-22
517,-250,24,936,263,-456,56
518,-256,-13,938,226,-454,117
519,-259,-49,927,197,-438,171
520,-258,-80,923,187,-417,220
521,-255,-107,926,212,-403,244
522,-259,-122,925,234,-354,257
523,-253,-132,941,359,-321,257
524,-242,-150,953,521,-282,171
525,-226,-138,984,492,-178,103
526,-222,-143,988,337,-122,99
527,-209,-133,985,169,-104,103
528,-201,-117,979,19,-129,48
529,-205,-110,969,21,-198,85
530,-207,-107,960,130,-235,128
531,-213,-114,957,277,-268,185
532,-225,-146,930,394,-243,197
533,-224,-146,946,458,-122,173
534,-223,-133,992,417,15,82
535,-206,-104,996,306,54,64
536,-209,-104,990,218,31,42
537,-202,-85,1002,132,11,60
538,-221,-93,1016,107,-47,54
539,-228,-108,1014,109,-94,52
540,-238,-131,1005,132,-114,60
541,-229,-133,996,193,-153,42
542,-236,-115,1002,263,-167,0
543,-232,-121,987,273,-131,-6
544,-217,-96,981,222,-71,-45
545,-232,-65,989,123,-10,-75
546,-218,-54,986,76,29,-14
547,-234,-88,981,128,35,17
548,-246,-104,985,253,31,27
549,-235,-97,987,361,46,5
550,-245,-114,1023,417,7,7
551,-225,-111,1016,458,-38,-69
552,-230,-95,1034,376,-69,-133
553,-221,-63,1025,259,-69,-178
554,-233,-39,988,205,-88,-170
555,-235,-46,972,226,-88,-163
556,-239,-38,993,312,-42,-141
557,-233,-46,1003,292,0,-75
558,-237,-52,1014,167,54,-47
559,-243,-58,1002,66,85,-26
560,-245,-59,993,60,85,-28
561,-250,-73,997,121,60,-40
562,-261,-52,1032,150,39,-73
563,-263,-61,1034,150,15,-92
564,-258,-34,1050,107,5,-122
565,-251,-22,1042,41,-26,-108
566,-245,-23,1037,-6,-12,-84
567,-249,-28,1006,-22,15,-42
568,-262,-37,1009,1,50,-26
569,-262,-55,1028,46,99,-24
570,-269,-71,1039,85,121,-24
571,-264,-63,1078,68,150,-65
572,-264,-73,1077,35,128,-86
573,-261,-76,1075,-2,74,-104
574,-261,-67,1088,-84,13,-118
575,-243,-52,1077,-125,-67,-118
576,-255,-47,1048,-147,-155,-96
577,-252,-29,1033,-139,-204,-61
578,-258,-32,1017,-114,-219,-10
579,-263,-57,987,-81,-176,1
580,-267,-63,985,-34,-112,-10
581,-244,-64,965,-2,-51,-34
582,-241,-54,978,17,0,-69
583,-247,-51,987,5,5,-75
584,-237,-39,1011,11,-12,-81
585,-218,-43,1004,-10,-53,-69
586,-235,-44,994,-26,-94,-51
587,-242,-44,990,-30,-122,-30
588,-227,-40,1010,-16,-122,-24
589,-239,-51,976,-28,-98,-36
590,-245,-63,971,-36,-49,-47
591,-236,-46,977,-4,-10,-47
592,-235,-47,963,52,-10,-24
593,-232,-63,965,128,1,13
594,-229,-65,994,134,42,25
595,-230,-68,1014,80,60,29
596,-227,-63,1016,25,39,33
597,-239,-60,1019,-36,19,15
598,-240,-54,1020,-90,5,11
599,-234,-67,1019,-125,-24,-24
600,-238,-76,1008,-90,-63,-24
601,-238,-80,992,-38,-34,-36
602,-248,-73,1005,19,-18,-42
603,-236,-62,1002,64,13,-69
604,-234,-47,1024,25,42,-59
605,-226,-37,1007,-16,42,-38
606,-232,-40,1007,-53,41,-26
607,-225,-38,989,-63,52,17
608,-234,-50,996,-45,70,27
609,-252,-73,1010,-2,64,37
610,-249,-87,1030,85,58,13
611,-253,-70,1023,95,80,-12
612,-248,-68,1038,44,99,-30
613,-240,-57,1024,-28,105,-49
614,-242,-45,1018,-59,128,-63
615,-231,-45,1039,5,154,-43
616,-238,-38,1077,70,117,-34
617,-247,-55,1070,150,29,11
618,-259,-67,1090,212,-16,21
619,-260,-76,1105,201,-34,29
620,-277,-96,1107,132,-10,21
621,-277,-85,1121,58,85,29
622,-281,-91,1191,48,199,-14
623,-278,-84,1274,23,279,-63
624,-274,-63,1340,-81,302,-47
625,-275,-41,1417,-118,242,-24
626,-287,-35,1503,7,113,31
627,-306,-57,1553,216,-42,80
628,-315,-82,1647,445,-208,95
629,-350,-89,1741,619,-370,35
630,-378,-86,1848,652,-471,21
631,-406,-93,1963,519,-549,27
632,-430,-123,2034,330,-743,78
633,-439,-133,2048,240,-922,130
634,-461,-153,2048,298,-1170,80
635,-492,-131,2048,478,-1309,1
636,-531,-151,2048,441,-1399,-69
637,-592,-150,2048,222,-1827,-155
638,-617,-175,2048,-24,-2368,-241
639,-668,-154,2048,-276,-2928,-309
640,-679,-145,2048,-374,-3506,-317
641,-728,-167,2048,-360,-4176,-364
642,-741,-183,1858,-434,-4641,-409
643,-764,-203,1580,-598,-4762,-500
644,-718,-200,1341,-948,-4581,-592
645,-606,-156,1085,-1379,-4288,-708
646,-519,-77,851,-1665,-4090,-834
647,-403,-19,627,-1616,-3979,-903
648,-308,79,378,-1411,-3877,-874
649,-200,86,123,-1235,-3901,-727
650,-140,65,-77,-823,-3868,-524
651,-106,4,-267,-282,-3649,-401
652,18,-4,-366,320,-3313,-338
653,64,-22,-416,576,-3018,-397
654,142,10,-451,564,-2543,-377
655,209,8,-440,410,-2206,-415
656,263,35,-406,337,-1792,-399
657,323,57,-319,316,-1415,-379
658,362,101,-240,501,-1194,-360
659,337,134,-135,792,-1053,-375
660,361,169,-57,974,-752,-290
661,360,185,42,906,-604,-182
662,371,197,129,927,-459,-102
663,369,247,224,1070,-233,-104
664,359,315,360,1232,-38,-6
665,347,394,543,1552,177,23
666,355,488,746,1835,443,1
667,341,652,958,1816,421,25
668,347,800,1148,1585,185,68
669,373,1022,1274,1296,78,134
670,383,1230,1405,921,-45,289
671,455,1358,1452,722,-20,734
672,434,1537,1536,722,-172,1033
673,368,1597,1530,843,-381,1529
674,359,1602,1517,703,-499,2080
675,269,1551,1470,509,-604,2558
676,138,1454,1349,451,-913,3101
677,93,1324,1223,632,-1102,3546
678,13,1139,1107,671,-1190,3919
679,-75,955,987,652,-1260,4177
680,-108,764,874,517,-1288,4330
681,-110,645,772,484,-1340,4416
682,-155,487,584,263,-1311,4609
683,-153,324,477,302,-1221,4794
684,-149,147,382,509,-1063,4886
685,-174,-29,345,921,-967,4929
686,-168,-169,339,1244,-827,4849
687,-165,-315,292,1179,-680,4820
688,-128,-433,243,1099,-674,4732
689,-118,-510,152,1082,-645,4521
690,-37,-522,11,1007,-543,4320
691,19,-599,-182,736,-338,4191
692,53,-682,-304,673,7,4095
693,30,-755,-327,890,515,3900
694,34,-828,-222,1160,1207,3617
695,56,-802,-76,1056,1724,3285
696,49,-737,-68,511,2080,3083
697,-113,-763,-16,724,2039,2978
698,-160,-873,101,1597,2218,2890
699,-222,-1074,217,1892,2496,2847
700,-326,-1260,319,1658,2673,2525
701,-369,-1364,370,1101,3003,2033
702,-503,-1424,393,546,3185,1505
703,-559,-1420,475,615,3431,976
704,-580,-1471,562,863,3621,652
705,-660,-1549,698,1152,3648,253
706,-716,-1531,892,1279,3806,-231
707,-674,-1523,1165,1005,4228,-784
708,-692,-1463,1391,283,4324,-1188
709,-677,-1388,1517,-125,4050,-1602
710,-690,-1339,1511,-245,3587,-1901
711,-697,-1268,1506,-20,3113,-2114
712,-758,-1138,1503,490,2796,-2448
713,-821,-1040,1490,1140,2712,-2692
714,-895,-945,1603,1371,2947,-2930
715,-886,-904,1729,1185,3337,-3129
716,-906,-847,1867,720,3533,-3372
717,-949,-802,2048,261,3511,-3692
718,-963,-712,2048,-47,3160,-4045
719,-1006,-590,2048,-94,2572,-4385
720,-1007,-487,2048,-147,1912,-4534
721,-966,-351,2048,-34,1302,-4885
722,-932,-124,2048,130,900,-5178
723,-862,138,2048,-141,548,-5295
724,-785,382,2027,-516,414,-5313
725,-743,527,1909,-874,330,-5172
726,-646,689,1770,-1049,298,-4981
727,-551,861,1630,-965,291,-4801
728,-458,977,1532,-719,273,-4471
729,-356,1080,1474,-555,265,-4026
730,-267,1070,1411,-434,238,-3575
731,-250,1031,1413,-225,238,-3247
732,-222,981,1345,-153,97,-2950
733,-202,928,1291,-299,-47,-2737
734,-209,867,1212,-450,-153,-2506
735,-202,797,1116,-512,-188,-2327
736,-196,767,1008,-596,-149,-2215
737,-170,757,874,-563,-63,-2075
738,-146,758,913,-313,156,-1942
739,-123,763,990,-77,341,-1706
740,-100,731,1025,54,404,-1459
741,-120,678,1070,103,326,-1141
742,-122,581,1108,214,173,-911
743,-147,503,1074,220,-57,-721
744,-172,420,1019,166,-227,-536
745,-181,342,968,193,-299,-448
746,-180,312,947,208,-229,-420
747,-171,272,971,138,-90,-348
748,-165,256,997,89,33,-288
749,-163,238,997,-4,85,-196
750,-147,206,1018,-77,109,-81
751,-164,173,1036,-133,70,0
752,-165,152,1022,-147,-30,64
753,-194,105,986,-157,-149,136
754,-222,57,969,-24,-221,197
755,-226,3,970,93,-176,224
756,-253,-41,961,62,-43,214
757,-235,-41,985,-59,62,203
758,-230,-36,1000,-204,150,158
759,-210,-9,1020,-301,216,150
760,-202,-21,1001,-299,238,162
761,-190,-18,1049,-186,205,197
762,-193,-24,1067,-69,91,210
763,-218,-47,1073,-26,-49,257
764,-220,-76,1039,0,-127,283
765,-237,-103,1012,-36,-143,289
766,-229,-117,982,-86,-90,257
767,-212,-111,967,-106,-16,236
768,-227,-103,982,-20,42,210
769,-202,-94,1009,93,136,181
770,-199,-88,1033,125,167,175
771,-187,-91,1065,78,128,193
772,-195,-67,1065,23,66,185
773,-197,-106,1045,-79,46,199
774,-211,-126,1032,-120,3,201
775,-214,-147,1014,-120,-45,158
776,-206,-125,1033,-90,-51,99
777,-221,-137,1013,-86,-16,42
778,-223,-137,1017,-139,19,52
779,-203,-123,1011,-139,83,-12
780,-216,-101,992,-127,70,1
781,-220,-120,989,-34,44,-4
782,-226,-140,979,42,82,-6
783,-204,-141,989,68,70,-32
784,-206,-117,1012,64,23,-112
785,-203,-69,998,5,-6,-124
786,-216,-72,993,-10,-6,-88
787,-221,-85,974,35,-28,-75
788,-226,-82,958,93,-61,-90
789,-229,-88,939,148,-12,-88
790,-228,-99,936,132,80,-84
791,-226,-91,978,99,193,-83
792,-220,-83,977,64,244,-92
793,-238,-67,989,54,246,-122
794,-225,-62,998,109,244,-69
795,-217,-81,999,177,220,-73
796,-231,-68,1033,160,177,-67
797,-227,-61,1016,64,140,-67
798,-245,-79,999,1,146,-84
799,-238,-85,1002,29,154,-77
800,-248,-87,993,70,167,-100
801,-241,-77,991,80,232,-114
802,-232,-80,983,52,304,-145
803,-237,-74,1004,78,347,-178
804,-239,-56,1037,150,386,-176
805,-238,-59,1072,140,365,-168
806,-247,-58,1092,91,267,-135
807,-247,-74,1080,37,158,-114
808,-269,-85,1073,46,72,-94
809,-271,-85,1065,60,15,-106
810,-272,-84,1043,3,-38,-108
811,-271,-71,1020,-18,-42,-124
812,-267,-82,1024,-8,-30,-116
813,-278,-64,1006,42,3,-124
814,-263,-63,1018,42,89,-125
815,-259,-60,1036,60,134,-114
816,-256,-48,1035,82,125,-131
817,-235,-58,1049,72,103,-124
818,-240,-49,1073,27,42,-118
819,-248,-47,1079,-24,-28,-122
820,-247,-43,1052,-55,-84,-112
821,-251,-43,1030,-20,-159,-108
822,-262,-58,1010,35,-176,-79
823,-263,-64,1002,66,-135,-75
824,-245,-63,995,56,-71,-75
825,-239,-61,1006,19,-40,-90
826,-236,-43,1017,-10,-30,-94
827,-234,-26,1024,-28,-32,-75
828,-225,-31,1019,-14,-47,-73
829,-232,-33,996,-14,-108,-65
830,-241,-33,992,19,-135,-45
831,-244,-36,966,54,-129,-16
832,-234,-65,989,62,-90,-26
833,-239,-68,984,29,-63,-36
834,-243,-63,967,-20,-43,-40
835,-246,-48,980,-36,-14,-47
836,-239,-45,970,-12,-2,-28
837,-234,-49,992,-14,1,-10
838,-232,-45,983,-18,5,11
839,-238,-53,992,0,0,15
840,-228,-74,1001,33,13,15
841,-239,-79,1007,50,-12,5
842,-235,-81,996,50,-36,-12
843,-241,-75,993,56,-28,-18
844,-234,-62,976,62,-12,-40
845,-232,-56,975,42,23,-28
846,-235,-56,973,21,85,-10
847,-227,-52,978,1,125,0
848,-237,-70,989,13,134,13
849,-237,-74,1002,54,117,9
850,-255,-70,1005,58,103,-4
851,-246,-62,1001,66,117,31
852,-258,-68,1015,117,125,25
853,-251,-76,1025,210,121,21
854,-279,-81,1017,275,146,17
855,-272,-95,1043,279,207,5
856,-269,-81,1050,289,296,-20
857,-258,-76,1136,375,347,-45
858,-263,-47,1244,474,404,-108
859,-258,1,1339,496,357,-139
860,-329,-10,1435,439,201,-55
861,-344,-69,1498,429,158,60
862,-363,-88,1617,500,140,64
863,-389,-121,1749,615,107,52
864,-405,-147,1961,789,78,21
865,-428,-140,2048,912,-159,-88
866,-468,-140,2048,1097,-381,-196
867,-468,-116,2048,1099,-737,-186
868,-531,-99,2048,1029,-1131,-176
869,-644,-130,2048,898,-1463,-256
870,-654,-174,2048,697,-1997,-249
871,-731,-161,2048,205,-2456,-270
872,-728,-153,2048,-405,-3155,-334
873,-739,-114,2048,-715,-3801,-463
874,-735,-60,2048,-793,-4375,-604
875,-733,-26,1775,-735,-4797,-647
876,-675,0,1505,-702,-4969,-645
877,-600,21,1257,-795,-5018,-637
878,-525,65,1028,-872,-5018,-627
879,-456,81,817,-881,-4915,-596
880,-390,97,600,-932,-4797,-536
881,-342,64,394,-1004,-4692,-444
882,-275,33,178,-940,-4545,-430
883,-247,20,-15,-725,-4260,-430
884,-115,15,-169,-485,-3877,-383
885,-50,-17,-277,-215,-3563,-420
886,8,22,-286,83,-3161,-487
887,133,60,-326,126,-2643,-516
888,178,43,-223,-75,-2350,-483
889,244,62,-186,-71,-2053,-450
890,253,115,-75,41,-1872,-448
891,267,135,23,183,-1764,-284
892,277,121,49,341,-1698,-108
893,278,72,58,501,-1653,3
894,277,55,96,630,-1549,0
895,285,94,153,718,-1325,-86
896,309,208,239,648,-999,-170
897,325,304,352,488,-682,-192
898,335,388,497,488,-420,-75
899,372,510,657,580,-319,39
900,401,637,798,666,-317,136
901,425,731,881,626,-395,417
902,454,793,915,544,-454,693
903,449,860,911,458,-588,912
904,442,911,899,562,-639,1144
905,451,957,858,560,-594,1376
906,454,965,763,302,-543,1701
907,480,932,695,160,-424,2041
908,417,931,680,105,-260,2218
909,344,923,631,97,-122,2517
910,251,821,666,373,-32,2943
911,197,639,711,839,93,3291
912,140,459,735,914,146,3437
913,96,346,739,623,136,3423
914,111,279,691,103,179,3406
915,100,232,633,-178,126,3417
916,90,169,566,-6,62,3453
917,114,110,465,310,42,3523
918,65,27,334,630,76,3568
919,43,-22,283,1013,296,3593
920,32,-78,237,1320,544,3597
921,-14,-135,249,1621,677,3607
922,-26,-243,229,1744,828,3644
923,-12,-395,231,1552,1089,3615
924,-29,-542,212,1302,1322,3431
925,-77,-625,297,1128,1568,3072
926,-89,-626,372,847,1904,2714
927,-121,-621,419,453,2132,2357
928,-163,-570,482,224,2291,2101
929,-186,-604,497,181,2367,2072
930,-229,-722,496,457,2330,2052
931,-293,-848,517,779,2482,1908
932,-344,-929,604,851,2833,1738
933,-370,-997,727,707,3279,1539
934,-352,-1010,907,468,3611,1173
935,-385,-987,1030,261,3681,748
936,-409,-993,1051,140,3521,476
937,-432,-991,1042,193,3322,232
938,-489,-987,1043,386,3173,48
939,-535,-1014,1053,826,3031,-100
940,-538,-1026,1116,1148,3017,-415
941,-539,-979,1189,982,3166,-854
942,-532,-928,1233,386,3361,-1139
943,-508,-836,1243,-88,3394,-1387
944,-547,-742,1239,-114,3253,-1645
945,-570,-702,1229,375,2921,-1709
946,-620,-633,1271,1041,2626,-1924
947,-648,-568,1319,1306,2529,-2110
948,-638,-538,1326,1193,2400,-2141
949,-671,-505,1320,935,2244,-2282
950,-586,-455,1326,753,2201,-2321
951,-587,-344,1436,593,2289,-2604
952,-564,-232,1548,554,2451,-2793
953,-558,-133,1659,460,2468,-2891
954,-567,-36,1775,425,2392,-3008
955,-539,18,1912,437,2195,-2958
956,-543,69,2016,562,1925,-2948
957,-588,90,2048,660,1695,-3032
958,-607,96,2048,625,1404,-2999
959,-628,92,2048,378,1148,-3024
960,-627,141,2048,-26,972,-3104
961,-597,221,2048,-426,869,-3163
962,-548,320,2006,-817,626,-3172
963,-515,440,1949,-1022,273,-3147
964,-478,533,1829,-1167,-42,-2956
965,-421,576,1679,-1278,-315,-2700
966,-378,612,1510,-1313,-504,-2518
967,-364,651,1369,-1377,-555,-2323
968,-285,655,1239,-1282,-475,-2127
969,-308,642,1132,-1081,-549,-1833
970,-278,597,1070,-629,-512,-1604
971,-249,538,1031,-329,-450,-1432
972,-249,483,1037,-204,-393,-1311
973,-196,451,1036,-307,-411,-1204
974,-212,449,1009,-489,-557,-1114
975,-210,415,921,-575,-682,-952
976,-229,359,878,-440,-756,-739
977,-223,261,820,-139,-786,-573
978,-228,219,771,64,-737,-526
979,-221,174,780,126,-586,-522
980,-206,142,797,111,-391,-448
981,-169,114,824,64,-260,-415
982,-170,139,861,-6,-231,-364
983,-171,131,888,-71,-217,-319
984,-169,105,883,-67,-243,-217
985,-192,73,861,-40,-274,-112
986,-201,39,862,-38,-272,-55
987,-193,15,885,-20,-288,-22
988,-226,-2,899,97,-278,-12
989,-215,-1,934,197,-196,11
990,-214,-21,944,126,-114,39
991,-206,-33,974,15,-55,46
992,-220,-32,988,-61,-16,50
993,-213,-30,998,-135,0,50
994,-210,-26,1012,-176,-49,97
995,-227,-19,999,-104,-151,97
996,-256,-43,983,5,-198,134
997,-251,-75,988,193,-168,193
998,-273,-114,1001,373,-157,171
999,-258,-125,991,437,-116,119
1000,-247,-111,1020,347,-22,52
1001,-257,-84,1043,275,48,5
1002,-228,-81,1083,185,111,31
1003,-218,-81,1090,134,35,-6
1004,-234,-64,1078,15,-94,-14
1005,-245,-82,1030,-47,-200,31
1006,-238,-98,1012,5,-225,72
1007,-224,-120,994,68,-208,76
1008,-223,-96,994,93,-176,42
1009,-208,-104,972,101,-77,64
1010,-188,-93,1007,74,39,70
1011,-207,-96,1024,48,72,44
1012,-203,-121,1038,7,76,31
1013,-199,-119,1029,-57,25,7
1014,-222,-133,1034,-98,-51,-34
1015,-220,-127,1001,-83,-127,-42
1016,-219,-116,990,31,-200,-36
1017,-225,-105,976,154,-229,-47
1018,-233,-123,947,154,-190,-40
1019,-231,-97,943,68,-81,-61
1020,-235,-86,921,-43,62,-75
1021,-244,-107,927,-90,152,-30
1022,-246,-122,938,-6,197,-38
1023,-251,-134,965,89,236,-100
1024,-242,-136,1015,103,232,-143
1025,-248,-135,1024,9,207,-168
1026,-242,-117,1019,-90,140,-135
1027,-217,-97,1034,-149,68,-120
1028,-218,-82,1008,-161,9,-127
1029,-218,-85,974,-141,-40,-131
1030,-222,-82,981,-86,-47,-96
1031,-227,-82,950,-8,-55,-63
1032,-244,-95,942,101,-28,-53
1033,-236,-94,966,160,46,-67
1034,-229,-100,975,154,99,-73
1035,-241,-87,1000,136,117,-90
1036,-228,-92,1032,89,125,-108
1037,-236,-89,1038,37,78,-108
1038,-249,-77,1031,15,5,-125
1039,-246,-90,1025,-12,-59,-106
1040,-252,-64,1012,-12,-92,-120
1041,-251,-59,1003,-12,-102,-71
1042,-256,-78,978,15,-12,-6
1043,-267,-96,968,33,78,21
1044,-267,-105,987,58,185,-22
1045,-271,-91,1002,27,283,-55
1046,-266,-94,1027,7,322,-53
1047,-264,-83,1069,0,353,-98
1048,-263,-81,1074,-24,244,-112
1049,-261,-75,1070,-22,115,-88
1050,-261,-74,1060,-51,15,-49
1051,-269,-80,1018,-81,-77,-16
1052,-282,-88,979,-18,-71,11
1053,-281,-98,968,125,21,1
1054,-273,-109,964,240,146,-32
1055,-268,-85,993,250,253,-100
1056,-253,-60,1027,253,310,-112
1057,-249,-48,1068,189,296,-81
1058,-231,-37,1077,56,210,-51
1059,-249,-61,1073,-124,83,0
1060,-253,-78,1037,-167,-28,58
1061,-278,-100,1009,-42,-92,54
1062,-281,-118,999,119,-94,46
1063,-291,-124,999,158,-38,15
1064,-278,-116,1016,107,27,-26
1065,-254,-82,1023,21,48,-67
1066,-252,-68,1019,-28,48,-84
1067,-252,-52,994,-10,41,-57
1068,-239,-60,990,35,21,0
1069,-252,-69,991,62,-4,39
1070,-259,-71,976,68,-20,74
1071,-251,-96,958,80,-4,76
1072,-261,-109,967,107,54,37
1073,-269,-105,950,115,142,-6
1074,-281,-111,948,128,292,-55
1075,-255,-80,994,218,408,-77
1076,-260,-44,1023,335,439,-106
1077,-243,-30,1037,412,404,-55
1078,-247,-40,1073,429,335,48
1079,-260,-65,1103,439,218,115
1080,-286,-88,1116,482,136,115
1081,-285,-88,1119,582,146,82
1082,-288,-67,1196,662,207,42
1083,-296,-49,1279,783,300,31
1084,-326,-38,1390,888,365,21
1085,-316,-21,1532,982,408,17
1086,-357,-15,1677,888,326,58
1087,-386,-37,1826,843,156,85
1088,-408,-55,1938,941,-94,150
1089,-433,-62,2048,1103,-424,173
1090,-484,-67,2048,1326,-641,193
1091,-502,-80,2048,1488,-823,175
1092,-548,-85,2048,1427,-1047,25
1093,-582,-68,2048,1121,-1534,-26
1094,-604,-72,2048,744,-2024,-45
1095,-662,-84,2048,445,-2606,-81
1096,-693,-107,2048,240,-3131,-102
1097,-692,-137,1985,62,-3575,-151
1098,-672,-130,1835,-77,-3926,-284
1099,-652,-91,1716,-209,-4125,-430
1100,-616,-44,1617,-387,-4239,-483
1101,-584,-39,1460,-502,-4426,-524
1102,-528,-40,1300,-627,-4645,-624
1103,-488,-23,1093,-854,-4747,-731
1104,-423,-13,923,-1108,-4813,-805
1105,-353,25,738,-1192,-4860,-858
1106,-299,52,528,-1133,-4934,-809
1107,-248,39,341,-819,-4917,-741
1108,-175,28,192,-459,-4719,-706
1109,-127,66,101,-278,-4313,-665
1110,-57,65,72,-385,-3917,-590
1111,-19,97,44,-538,-3545,-559
1112,33,86,9,-592,-3235,-483
1113,72,56,-38,-479,-3002,-446
1114,106,58,-45,-250,-2754,-450
1115,154,74,-4,31,-2499,-432
1116,207,85,42,111,-2241,-409
1117,242,123,44,134,-2096,-381
1118,263,158,49,152,-1917,-354
1119,310,211,57,226,-1709,-292
1120,329,253,131,496,-1336,-250
1121,345,310,270,898,-899,-202
1122,367,407,458,1183,-620,-90
1123,375,492,649,1300,-432,13
1124,396,582,821,1115,-411,181
1125,410,657,964,791,-590,326
1126,451,714,1049,558,-752,521
1127,486,758,1086,441,-920,722
1128,469,831,1120,427,-1086,837
1129,411,860,1100,558,-1167,1037
1130,391,873,1111,750,-1090,1300
1131,401,898,1155,576,-942,1535
1132,404,918,1157,54,-883,1771
1133,355,881,1085,-700,-1057,2072
1134,317,830,978,-1223,-1159,2355
1135,254,756,847,-1385,-1290,2623
1136,207,649,709,-1274,-1397,2888
1137,119,527,560,-1168,-1385,3091
1138,85,386,416,-1209,-1215,3183
1139,74,290,313,-1368,-903,3189
1140,116,195,174,-1643,-618,3281
1141,127,138,61,-1659,-461,3287
1142,163,89,-12,-1440,-307,3259
1143,183,47,-96,-1235,-94,3328
1144,227,-43,-147,-1038,83,3435
1145,208,-119,-141,-831,373,3488
1146,194,-181,-111,-725,712,3513
1147,211,-219,-26,-538,1050,3519
1148,206,-269,6,-247,1216,3570
1149,151,-308,42,371,1250,3601
1150,99,-382,81,960,1363,3583
1151,81,-457,168,1439,1601,3453
1152,58,-520,261,1474,1886,3289
1153,17,-549,323,1037,2148,3142
1154,-40,-558,426,572,2445,2953
1155,-77,-585,464,130,2734,2892
1156,-113,-632,529,80,2851,2826
1157,-114,-675,604,210,2894,2708
1158,-109,-728,612,322,2791,2681
1159,-137,-750,628,623,2597,2531
1160,-160,-689,680,941,2542,2310
1161,-194,-668,707,953,2609,2130
1162,-274,-689,666,824,2759,2005
1163,-366,-767,688,546,3029,1845
1164,-460,-870,714,246,3378,1675
1165,-477,-941,765,37,3710,1511
1166,-461,-1003,785,-77,3876,1333
1167,-494,-1005,837,228,3890,1041
1168,-520,-971,945,839,3853,689
1169,-522,-918,1080,1259,3931,429
1170,-542,-941,1211,1240,3943,218
1171,-611,-968,1299,830,3828,52
1172,-643,-1031,1363,361,3685,-75
1173,-669,-1142,1332,-22,3490,-155
1174,-707,-1209,1353,89,3392,-475
1175,-854,-1237,1496,554,3357,-940
1176,-864,-1270,1614,1031,3576,-1266
1177,-922,-1238,1750,1666,3519,-1674
1178,-1009,-1253,1959,2238,3304,-2131
1179,-1093,-1289,2048,2212,2914,-2354
1180,-1057,-1258,2048,1666,2601,-2708
1181,-1018,-1223,1946,912,2017,-3143
1182,-1009,-1082,1780,375,1419,-3647
1183,-1011,-902,1640,292,1011,-4043
1184,-949,-760,1506,623,783,-4334
1185,-877,-534,1432,1000,685,-4770
1186,-769,-311,1412,1169,632,-5043
1187,-624,-35,1437,927,710,-5196
1188,-509,239,1420,300,791,-5116
1189,-419,397,1323,-153,683,-4743
1190,-339,564,1248,-59,585,-4331
1191,-305,641,1181,468,486,-3946
1192,-299,683,1199,1003,519,-3555
1193,-262,700,1272,1386,664,-3274
1194,-227,745,1302,1250,761,-3038
1195,-236,756,1311,886,736,-2725
1196,-225,747,1304,734,664,-2471
1197,-239,727,1300,646,521,-2262
1198,-230,694,1299,640,335,-1999
1199,-232,662,1270,677,97,-1805
1200,-235,644,1206,681,-118,-1616
1201,-236,585,1142,585,-213,-1375
1202,-251,548,1067,476,-225,-1227
1203,-256,536,1002,369,-186,-1088
1204,-263,482,975,316,-63,-911
1205,-260,425,986,357,111,-727
1206,-284,349,1037,460,160,-620
1207,-287,281,1098,537,66,-516
1208,-281,243,1117,515,-51,-469
1209,-274,201,1115,363,-262,-383
1210,-269,150,1056,277,-458,-325
1211,-288,121,1032,242,-571,-313
1212,-278,88,1009,240,-598,-235
1213,-261,59,958,226,-569,-208
1214,-271,69,961,140,-524,-237
1215,-243,65,937,117,-422,-233
1216,-234,66,938,95,-333,-190
1217,-230,46,973,-6,-237,-135
1218,-217,30,990,-86,-208,-79
1219,-215,23,1020,-75,-280,-63
1220,-215,14,1025,-69,-389,-59
1221,-236,11,1017,-6,-502,-6
1222,-235,-15,991,64,-565,93
1223,-248,-43,958,64,-575,107
1224,-250,-69,945,41,-475,103
1225,-241,-75,944,-10,-325,103
1226,-222,-79,924,-40,-182,87
1227,-224,-92,951,-10,-94,42
1228,-223,-75,988,25,-42,9
1229,-206,-85,1025,-34,-53,42
1230,-215,-85,1014,-96,-174,54
1231,-226,-110,985,-14,-282,42
1232,-226,-134,978,89,-325,70
1233,-234,-160,987,97,-323,80
1234,-229,-166,1010,19,-297,50
1235,-215,-156,994,-94,-241,0
1236,-201,-126,1001,-184,-159,-49
1237,-202,-126,985,-254,-98,-71
1238,-191,-100,991,-239,-67,-71
1239,-190,-100,1010,-147,-51,-79
1240,-191,-115,1017,-116,-63,-59
1241,-197,-142,1013,-141,-49,-30
1242,-211,-161,1031,-178,-45,-69
1243,-222,-171,1043,-229,-51,-102
1244,-222,-160,1034,-252,-100,-110
1245,-226,-156,996,-200,-161,-100
1246,-237,-149,1009,-104,-176,-102
1247,-227,-156,1021,-43,-188,-90
1248,-207,-146,1031,-10,-194,-106
1249,-220,-144,1032,13,-225,-114
1250,-224,-128,1004,21,-208,-127
1251,-207,-127,996,19,-176,-133
1252,-228,-131,980,62,-180,-114
1253,-212,-126,972,113,-149,-104
1254,-211,-139,961,134,-92,-112
1255,-205,-117,1000,123,-79,-143
1256,-196,-95,1009,42,-65,-133
1257,-202,-112,992,-20,-61,-112
1258,-209,-105,960,-28,-61,-108
1259,-217,-108,960,-8,-69,-98
1260,-217,-112,964,5,-42,-96
1261,-205,-107,954,3,-6,-100
1262,-211,-89,964,7,-6,-94
1263,-211,-86,976,17,13,-81
1264,-196,-83,959,42,42,-34
1265,-208,-95,979,87,42,-14
1266,-215,-103,995,119,21,-28
1267,-221,-101,1008,107,-22,-24
1268,-223,-107,1014,74,-28,-22
1269,-226,-114,1009,76,-49,-12
1270,-233,-122,994,95,-43,-12
1271,-240,-144,1001,134,0,0
1272,-238,-150,993,224,48,3
1273,-230,-155,1010,242,91,-8
1274,-234,-157,1034,197,95,-55
1275,-220,-148,1060,70,82,-77
1276,-204,-126,1060,-59,52,-90
1277,-195,-107,1059,-73,-22,-88
1278,-205,-76,1036,-22,-86,-57
1279,-220,-84,1018,62,-155,-10
1280,-226,-98,1006,130,-129,33
1281,-222,-119,1002,83,-4,50
1282,-234,-140,1009,-2,130,21
1283,-228,-133,1020,-77,183,0
1284,-230,-137,1038,-63,173,-24
1285,-225,-124,1074,-71,144,-32
1286,-212,-116,1064,-108,93,-16
1287,-218,-109,1055,-120,9,15
1288,-207,-101,1034,-122,-71,48
1289,-214,-93,1018,-73,-98,82
1290,-231,-116,976,-18,-81,109
1291,-231,-125,974,64,-14,76
1292,-236,-134,997,87,74,35
1293,-240,-141,1008,85,128,31
1294,-221,-136,1037,93,140,-24
1295,-225,-125,1036,85,107,-53
1296,-214,-110,1035,52,42,-38
1297,-219,-98,1029,48,-36,-12
1298,-225,-113,1016,89,-73,21
1299,-227,-120,1013,123,-77,42
1300,-225,-121,1005,140,-79,42
1301,-241,-141,995,205,-53,37
1302,-221,-133,1010,283,23,17
1303,-236,-119,1072,279,99,-40
1304,-234,-114,1102,214,113,-47
1305,-222,-107,1133,95,93,-55
1306,-228,-99,1172,-32,42,-8
1307,-226,-101,1173,-45,-10,117
1308,-252,-129,1183,119,-34,236
1309,-270,-144,1258,359,-20,296
1310,-281,-166,1382,556,7,375
1311,-281,-158,1542,673,48,283
1312,-260,-164,1676,593,13,203
1313,-270,-135,1820,433,-88,121
1314,-272,-127,1967,287,-252,74
1315,-329,-102,2048,380,-418,52
1316,-341,-99,2048,689,-709,76
1317,-378,-86,2048,1035,-1022,156
1318,-433,-94,2048,1179,-1299,228
1319,-472,-108,2048,1128,-1551,250
1320,-608,-157,2048,917,-2032,185
1321,-648,-191,2048,716,-2717,160
1322,-663,-178,2048,488,-3317,136
1323,-716,-163,2048,220,-4004,31
1324,-736,-111,2048,-4,-4616,-137
1325,-733,-34,2048,-313,-5159,-194
1326,-760,-13,2048,-639,-5817,-264
1327,-779,-8,1850,-879,-6272,-288
1328,-750,-4,1487,-1133,-6446,-282
1329,-701,26,1177,-1309,-6459,-309
1330,-655,46,880,-1350,-6295,-354
1331,-579,58,611,-1290,-6102,-319
1332,-512,33,323,-1208,-5956,-247
1333,-456,12,53,-1094,-5803,-170
1334,-364,-8,-228,-961,-5665,-104
1335,-294,-1,-457,-784,-5442,-102
1336,-133,-18,-725,-680,-4954,7
1337,-14,0,-909,-586,-4487,-34
1338,59,21,-966,-438,-3899,-32
1339,219,39,-943,-75,-3145,39
1340,310,59,-828,373,-2590,128
1341,326,30,-691,691,-2178,146
1342,367,15,-548,841,-1801,197
1343,405,-5,-440,703,-1452,199
1344,418,-13,-338,455,-1153,138
1345,427,-14,-243,281,-852,117
1346,457,-27,-119,259,-581,76
1347,458,8,44,369,-319,-53
1348,469,70,223,402,-77,-94
1349,485,124,360,326,21,-59
1350,509,197,514,318,42,-65
1351,512,277,637,414,60,0
1352,536,355,757,593,130,39
1353,557,485,861,646,160,113
1354,617,534,912,523,160,265
1355,659,681,946,480,107,365
1356,671,821,1000,503,64,460
1357,687,980,1036,478,146,759
1358,772,1031,1064,515,279,1134
1359,727,1109,1106,546,173,1468
1360,701,1138,1100,638,-8,1914
1361,647,1127,1061,810,-125,2349
1362,551,1059,1000,802,-293,2794
1363,478,974,939,789,-334,3107
1364,381,883,869,570,-262,3333
1365,307,784,775,148,-190,3613
1366,254,656,688,-30,-92,3804
1367,198,548,575,-42,29,3953
1368,170,437,511,-53,132,4152
1369,139,302,444,97,261,4261
1370,111,186,436,361,371,4269
1371,96,88,438,507,455,4259
1372,53,-4,420,636,490,4250
1373,-53,-110,407,826,443,4214
1374,-88,-180,385,1011,554,4142
1375,-99,-255,355,1087,740,4123
1376,-96,-367,329,1082,785,4099
1377,-182,-463,256,1195,886,4031
1378,-149,-589,256,1597,1126,3902
1379,-155,-625,326,2070,1455,3580
1380,-250,-634,457,2068,1720,3246
1381,-245,-714,512,1560,2042,3189
1382,-287,-795,540,962,2287,3062
1383,-281,-912,526,648,2441,2966
1384,-311,-1025,597,800,2439,2650
1385,-243,-1073,663,1136,2568,2308
1386,-236,-1111,787,1056,2611,1914
1387,-189,-1014,867,625,2802,1464
1388,-206,-929,892,17,2861,1169
1389,-220,-852,894,-418,2861,1019
1390,-216,-859,835,-598,2800,1107
1391,-264,-951,778,-256,2558,1101
1392,-310,-1006,748,353,2390,888
1393,-360,-1077,762,734,2458,634
1394,-362,-1086,786,826,2791,250
1395,-336,-995,891,589,3296,-165
1396,-351,-932,961,171,3671,-409
1397,-392,-871,1020,60,3666,-575
1398,-441,-862,1088,292,3517,-780
1399,-496,-881,1069,496,3298,-836
1400,-560,-939,1079,658,3046,-936
1401,-545,-952,1100,804,2916,-1155
1402,-577,-921,1122,728,2896,-1422
1403,-611,-885,1160,736,2980,-1653
1404,-642,-851,1228,910,3095,-1905
1405,-735,-827,1290,1056,3164,-2256
1406,-747,-763,1394,1076,3281,-2411
1407,-762,-765,1463,945,3259,-2608
1408,-782,-707,1551,779,3148,-2827
1409,-748,-654,1566,496,2933,-3010
1410,-751,-557,1592,347,2691,-3252
1411,-761,-499,1685,482,2476,-3434
1412,-769,-405,1746,869,2302,-3641
1413,-748,-303,1816,1000,2169,-3829
1414,-708,-212,1888,640,1744,-3965
1415,-684,-83,1880,439,1519,-4061
1416,-595,58,1864,23,1283,-4125
1417,-518,201,1743,-418,1039,-4102
1418,-468,325,1624,-645,890,-4020
1419,-378,399,1538,-512,767,-3838
1420,-337,494,1475,-94,744,-3690
1421,-300,568,1447,222,720,-3520
1422,-220,604,1382,396,634,-3245
1423,-240,609,1324,412,421,-2940
1424,-214,611,1265,417,404,-2665
1425,-178,625,1263,335,457,-2405
1426,-163,630,1245,189,421,-2133
1427,-155,617,1215,162,289,-1838
1428,-145,562,1182,257,177,-1573
1429,-173,525,1167,425,175,-1418
1430,-181,483,1170,429,199,-1209
1431,-201,415,1159,318,189,-1020
1432,-212,372,1120,261,99,-883
1433,-223,344,1076,207,70,-745
1434,-234,277,1047,164,64,-561
1435,-237,206,1007,236,80,-454
1436,-235,163,1031,279,115,-389
1437,-220,141,1048,246,132,-358
1438,-226,106,1047,154,113,-319
1439,-223,100,1019,117,21,-325
1440,-208,91,1001,140,-30,-327
1441,-226,71,983,136,-42,-266
1442,-212,64,989,138,-71,-213
1443,-237,54,964,128,-120,-143
1444,-246,45,968,123,-124,-47
1445,-251,-3,948,144,-96,9
1446,-264,-27,970,212,-79,37
1447,-272,-46,991,160,-4,54
1448,-268,-47,1005,66,82,64
1449,-264,-73,1009,-45,144,46
1450,-280,-83,1010,-73,144,33
1451,-275,-91,1001,-71,144,23
1452,-278,-78,1006,-45,109,70
1453,-274,-90,1006,0,85,125
1454,-272,-107,1017,15,52,146
1455,-280,-131,1021,25,25,162
1456,-277,-137,1018,9,11,156
1457,-283,-152,1008,-14,11,130
1458,-284,-141,987,-6,70,87
1459,-292,-148,996,15,89,60
1460,-281,-136,1004,128,93,42
1461,-284,-146,1035,210,64,29
1462,-288,-135,1013,189,29,35
1463,-298,-129,1024,107,15,37
1464,-281,-149,996,21,31,29
1465,-283,-152,979,-47,62,29
1466,-290,-152,981,-106,83,21
1467,-307,-155,988,-108,126,0
1468,-293,-161,1007,-28,166,-65
1469,-291,-151,1033,91,132,-124
1470,-304,-140,1046,103,64,-124
1471,-282,-148,1013,107,21,-106
1472,-264,-133,992,132,-8,-143
1473,-256,-121,983,82,0,-118
1474,-256,-131,996,15,15,-104
1475,-260,-137,978,0,29,-112
1476,-276,-142,992,7,31,-108
1477,-276,-166,984,25,44,-83
1478,-281,-171,992,72,64,-98
1479,-284,-150,1001,97,82,-159
1480,-281,-153,1021,76,68,-143
1481,-287,-150,1011,76,27,-151
1482,-284,-128,1011,83,-47,-151
1483,-304,-116,1009,58,-65,-141
1484,-295,-133,989,33,-69,-176
1485,-300,-119,988,19,-45,-208
1486,-319,-127,985,-49,-12,-213
1487,-317,-138,967,-49,50,-211
1488,-313,-145,988,11,78,-252
1489,-302,-131,1003,70,58,-288
1490,-292,-107,996,99,3,-303
1491,-273,-82,1013,70,-24,-305
1492,-289,-82,1002,33,-67,-268
1493,-281,-88,985,62,-127,-219
1494,-294,-106,982,113,-163,-202
1495,-309,-117,969,113,-141,-202
1496,-307,-125,992,76,-86,-206
1497,-311,-145,1007,9,-24,-233
1498,-312,-141,1018,-30,-2,-250
1499,-284,-125,1025,27,0,-297
1500,-272,-85,1027,80,-51,-321
1501,-271,-62,1027,41,-110,-305
1502,-258,-30,1020,-8,-155,-250
1503,-252,-46,993,0,-174,-180
1504,-254,-43,985,44,-170,-112
1505,-257,-80,963,80,-124,-100
1506,-277,-87,978,85,-43,-86
1507,-258,-105,978,58,80,-106
1508,-259,-105,1024,107,136,-118
1509,-261,-98,1034,199,103,-145
1510,-267,-104,1078,253,50,-176
1511,-252,-88,1086,132,-14,-178
1512,-250,-80,1075,-83,-139,-163
1513,-249,-59,1024,-235,-208,-96
1514,-239,-71,993,-266,-243,-47
1515,-251,-77,945,-125,-241,-8
1516,-266,-85,961,62,-170,0
1517,-263,-102,954,195,-59,-22
1518,-267,-95,980,218,27,-16
1519,-250,-103,1017,158,87,-28
1520,-251,-97,1028,42,93,-38
1521,-257,-83,1042,-81,25,-36
1522,-264,-77,1023,-161,-49,-18
1523,-269,-104,1007,-174,-104,3
1524,-276,-119,980,-157,-131,11
1525,-279,-129,978,-108,-114,15
1526,-267,-132,978,-8,-63,-16
1527,-261,-114,1016,80,-16,-32
1528,-248,-110,1015,66,39,-47
1529,-246,-85,1009,25,52,-45
1530,-244,-79,1020,7,11,-14
1531,-247,-94,1019,-22,-22,15
1532,-243,-93,1000,-57,-81,39
1533,-258,-101,975,-59,-125,64
1534,-262,-118,967,11,-106,85
1535,-278,-121,972,107,-75,50
1536,-290,-140,994,156,-6,29
1537,-280,-143,996,115,85,-10
1538,-276,-137,1016,31,107,-49
1539,-268,-141,1022,-38,113,-65
1540,-264,-119,1042,-59,134,-84
1541,-263,-104,1055,-14,74,-75
1542,-262,-110,1054,78,-6,-32
1543,-283,-105,1100,248,-49,13
1544,-295,-134,1147,437,-59,64
1545,-288,-129,1241,546,3,74
1546,-296,-104,1370,539,119,74
1547,-312,-106,1490,511,207,76
1548,-362,-118,1696,683,300,1
1549,-355,-144,1975,941,396,0
1550,-346,-124,2048,1117,236,-47
1551,-410,-204,2048,1076,-125,-14
1552,-479,-160,2048,878,-512,82
1553,-610,-238,2048,802,-973,173
1554,-685,-261,2048,830,-1479,236
1555,-694,-311,2048,759,-2077,107
1556,-771,-299,2048,419,-2790,-135
1557,-828,-266,2048,-63,-3456,-297
1558,-821,-195,2048,-506,-3991,-418
1559,-802,-137,2048,-778,-4540,-493
1560,-774,-91,2048,-954,-5118,-514
1561,-756,-57,1774,-1030,-5502,-510
1562,-731,-8,1520,-1106,-5655,-487
1563,-676,12,1268,-1147,-5737,-458
1564,-630,42,1034,-961,-5727,-452
1565,-568,32,778,-772,-5625,-370
1566,-531,4,538,-618,-5438,-239
1567,-489,-34,313,-635,-5221,-141
1568,-412,-107,107,-762,-5042,-122
1569,-315,-113,-67,-944,-4872,-161
1570,-260,-143,-215,-981,-4670,-307
1571,-144,-118,-314,-639,-4422,-383
1572,-89,-63,-378,-245,-4297,-442
1573,44,-24,-461,119,-4071,-350
1574,124,-1,-523,308,-3920,-270
1575,154,4,-527,458,-3518,-270
1576,244,44,-492,501,-2967,-167
1577,302,36,-433,544,-2448,-170
1578,335,47,-281,531,-2047,-184
1579,365,68,-165,437,-1676,-252
1580,381,102,-23,488,-1409,-325
1581,399,116,93,542,-1139,-381
1582,413,174,236,564,-1049,-383
1583,420,225,358,666,-928,-309
1584,460,319,512,824,-803,-288
1585,449,463,648,792,-807,-252
1586,476,576,759,732,-698,-92
1587,558,691,818,509,-702,232
1588,625,769,867,234,-659,501
1589,629,846,806,111,-731,812
1590,645,870,806,160,-782,1146
1591,593,938,804,376,-641,1408
1592,550,888,856,509,-524,1769
1593,511,814,854,648,-397,2101
1594,447,751,868,710,-346,2314
1595,380,697,862,617,-311,2488
1596,330,636,805,414,-331,2652
1597,281,568,725,216,-364,2816
1598,262,487,658,74,-387,2998
1599,227,380,571,68,-403,3146
1600,218,246,430,265,-502,3330
1601,173,126,328,794,-553,3435
1602,132,6,297,1447,-430,3417
1603,114,-75,317,1986,-145,3351
1604,112,-120,392,2187,125,3275
1605,79,-201,450,1933,378,3224
1606,112,-268,491,1523,568,3166
1607,100,-336,478,1093,640,3109
1608,69,-388,456,925,712,3013
1609,59,-439,477,951,882,2878
1610,56,-476,446,943,1134,2710
1611,51,-521,424,859,1408,2572
1612,65,-551,425,753,1744,2392
1613,58,-585,465,568,2080,2298
1614,41,-611,524,478,2378,2132
1615,55,-620,626,382,2591,1962
1616,58,-608,686,173,2605,1759
1617,3,-606,707,-26,2519,1544
1618,-40,-571,703,-131,2464,1453
1619,-55,-603,664,-161,2425,1468
1620,-105,-620,633,140,2314,1392
1621,-154,-675,631,593,2316,1228
1622,-138,-684,632,849,2537,1007
1623,-188,-676,652,935,2769,759
1624,-193,-682,697,941,2968,523
1625,-201,-621,766,859,3195,322
1626,-255,-575,835,593,3324,181
1627,-284,-629,862,300,3373,121
1628,-323,-631,872,201,3406,107
1629,-381,-662,911,349,3349,25
1630,-444,-704,1011,724,3341,-124
1631,-430,-724,1146,896,3447,-432
1632,-470,-742,1267,582,3552,-721
1633,-441,-714,1319,138,3625,-963
1634,-554,-761,1359,-221,3431,-1208
1635,-515,-793,1347,-254,3271,-1190
1636,-557,-824,1342,-94,3015,-1352
1637,-662,-847,1346,146,2722,-1526
1638,-657,-897,1353,392,2634,-1704
1639,-693,-894,1379,472,2693,-2010
1640,-692,-837,1470,375,2916,-2370
1641,-659,-758,1589,203,3035,-2625
1642,-661,-701,1667,64,2894,-2817
1643,-659,-619,1725,91,2642,-3065
1644,-652,-536,1762,113,2322,-3231
1645,-637,-482,1756,138,2021,-3358
1646,-630,-435,1777,142,1738,-3551
1647,-579,-331,1779,-42,1601,-3727
1648,-526,-201,1791,-432,1482,-3831
1649,-457,-65,1749,-752,1320,-3907
1650,-398,89,1685,-842,1160,-3895
1651,-351,246,1592,-702,1013,-3793
1652,-299,366,1511,-471,884,-3565
1653,-246,462,1458,-309,865,-3299
1654,-210,551,1432,-174,917,-3034
1655,-173,595,1423,-57,1001,-2690
1656,-164,599,1446,-71,935,-2282
1657,-167,580,1407,-47,847,-1958
1658,-175,535,1383,-47,716,-1651
1659,-183,482,1347,-4,484,-1436
1660,-198,460,1285,115,253,-1307
1661,-188,451,1251,232,119,-1219
1662,-201,421,1178,250,42,-1094
1663,-213,399,1149,279,48,-1012
1664,-204,391,1133,210,125,-934
1665,-206,361,1093,109,66,-758
1666,-228,316,1081,89,-8,-584
1667,-219,289,1044,154,9,-440
1668,-215,233,1039,212,-51,-266
1669,-232,181,1025,281,-129,-157
1670,-234,107,1007,298,-194,-79
1671,-242,66,1002,277,-237,-65
1672,-256,36,975,316,-252,-75
1673,-261,1,958,384,-241,-71
1674,-257,-7,960,390,-196,-51
1675,-261,-31,952,298,-168,-20
1676,-252,-49,946,240,-124,5
1677,-249,-78,955,230,-69,27
1678,-246,-94,993,238,-53,52
1679,-243,-91,1008,183,-49,29
1680,-245,-106,1054,58,-88,23
1681,-237,-108,1039,54,-184,70
1682,-263,-126,997,150,-313,48
1683,-274,-131,961,248,-315,35
1684,-251,-122,933,191,-227,29
1685,-246,-111,933,115,-125,29
1686,-248,-106,955,136,-6,13
1687,-239,-101,978,164,107,1
1688,-226,-98,1010,103,156,11
1689,-225,-103,1021,13,158,0
1690,-225,-113,1036,-71,117,21
1691,-234,-97,1042,-125,19,42
1692,-243,-118,1028,-51,-112,80
1693,-255,-133,985,101,-178,99
1694,-251,-147,984,205,-176,85
1695,-260,-148,957,269,-133,44
1696,-255,-140,941,302,-49,-14
1697,-236,-114,947,296,52,-26
1698,-223,-92,973,246,128,-49
1699,-233,-78,1002,210,167,-55
1700,-228,-99,1027,181,185,-20
1701,-239,-97,1018,117,150,9
1702,-237,-117,1026,37,74,35
1703,-251,-131,983,21,-12,0
1704,-263,-125,1004,113,-30,-61
1705,-249,-121,976,179,-14,-75
1706,-257,-124,989,263,-43,-106
1707,-255,-97,994,261,-24,-172
1708,-251,-83,983,156,39,-172
1709,-241,-78,980,70,29,-114
1710,-251,-90,964,91,25,-79
1711,-241,-100,972,132,35,-53
1712,-259,-103,989,173,35,-59
1713,-246,-95,1033,171,21,-71
1714,-249,-89,1022,150,-20,-57
1715,-270,-95,983,126,-43,-36
1716,-266,-115,951,166,-40,-14
1717,-287,-127,927,214,11,-34
1718,-270,-116,952,228,121,-49
1719,-250,-120,975,228,207,-100
1720,-239,-94,995,222,250,-157
1721,-244,-72,1018,193,257,-153
1722,-256,-74,1025,173,218,-133
1723,-262,-74,1019,107,173,-94
1724,-267,-97,1022,52,113,-18
1725,-281,-119,1018,85,35,1
1726,-293,-133,1002,113,9,11
1727,-286,-154,984,142,66,-8
1728,-280,-152,992,107,160,-38
1729,-268,-138,1007,21,189,-77
1730,-279,-102,1008,13,189,-108
1731,-253,-80,1038,48,195,-120
1732,-258,-66,1010,78,167,-100
1733,-269,-86,1003,66,107,-43
1734,-260,-87,1009,39,85,5
1735,-262,-105,1000,29,78,23
1736,-271,-110,1007,64,42,37
1737,-274,-128,994,150,52,-4
1738,-274,-116,989,214,74,-30
1739,-279,-101,988,171,115,-49
1740,-272,-94,979,107,171,-63
1741,-260,-87,989,46,232,-71
1742,-257,-81,980,42,228,-51
1743,-263,-77,999,72,207,-22
1744,-267,-106,995,68,167,27
1745,-293,-114,982,80,132,27
1746,-298,-117,996,121,150,1
1747,-295,-122,1004,171,199,5
1748,-291,-111,1033,240,240,3
1749,-282,-99,1066,314,261,5
1750,-279,-98,1085,392,265,0
1751,-294,-88,1117,501,275,27
1752,-280,-77,1170,611,361,17
1753,-310,-61,1278,734,416,31
1754,-309,-61,1416,888,529,85
1755,-306,-99,1600,919,580,158
1756,-334,-129,1793,845,572,146
1757,-343,-130,1966,695,443,66
1758,-421,-94,2048,878,257,70
1759,-515,-89,2048,1388,0,72
1760,-578,-154,2048,2019,-303,-4
1761,-631,-178,2048,2449,-639,-47
1762,-676,-204,2048,2367,-1012,-53
1763,-755,-221,2048,1904,-1645,-260
1764,-813,-192,2048,1111,-2485,-356
1765,-825,-202,2048,144,-3557,-295
1766,-845,-160,2048,-309,-4456,-467
1767,-828,-149,1883,-581,-4991,-639
1768,-772,-116,1494,-727,-5204,-747
1769,-675,-67,1216,-772,-5237,-877
1770,-549,54,1019,-836,-5075,-987
1771,-455,107,838,-907,-4954,-977
1772,-372,156,688,-713,-4807,-944
1773,-315,139,541,-422,-4657,-803
1774,-319,96,360,-2,-4590,-657
1775,-280,14,246,478,-4426,-581
1776,-196,-8,167,816,-4147,-563
1777,-178,-27,66,767,-4069,-610
1778,-120,-20,-24,578,-3987,-618
1779,-72,50,-131,414,-3729,-538
1780,47,52,-234,351,-3424,-510
1781,54,77,-252,359,-3147,-469
1782,160,134,-309,337,-2659,-407
1783,217,196,-272,333,-2217,-303
1784,268,197,-253,394,-1954,-200
1785,298,242,-157,712,-1723,-167
1786,295,239,-134,1128,-1629,-61
1787,282,194,-87,1603,-1577,0
1788,299,194,-14,1988,-1473,21
1789,301,233,39,2304,-1346,35
1790,297,322,119,2585,-1133,-26
1791,305,487,311,2671,-657,-88
1792,332,627,502,2398,-239,27
1793,396,715,800,2005,85,138
1794,415,847,1007,1699,261,193
1795,447,1002,1215,1373,195,365
1796,430,1123,1332,1013,-141,632
1797,430,1249,1394,748,-575,902
1798,388,1303,1395,558,-952,1296
1799,344,1331,1327,304,-1104,1693
1800,298,1283,1168,-159,-975,2166
1801,254,1203,1024,-743,-639,2535
1802,219,1173,899,-1172,-184,2750
1803,211,1147,875,-1407,166,3017
1804,172,1089,823,-1426,351,3380
1805,150,954,733,-1344,255,3812
1806,136,839,570,-1276,64,4210
1807,94,642,359,-1274,-272,4628
1808,-3,442,139,-879,-524,4816
1809,-53,279,-47,-239,-372,4822
1810,-105,89,-169,242,1,4867
1811,-105,-174,-256,482,525,4865
1812,-155,-356,-222,640,1056,4683
1813,-202,-463,-174,701,1429,4498
1814,-213,-575,-91,746,1781,4312
1815,-256,-687,-20,1003,1955,4162
1816,-288,-779,40,1228,1916,3949
1817,-283,-838,175,1496,2208,3626
1818,-291,-905,241,1216,2478,3333
1819,-357,-1021,278,566,2634,3072
1820,-402,-1144,305,11,2982,2835
1821,-499,-1247,362,-192,3308,2568
1822,-564,-1362,574,115,3697,2162
1823,-566,-1435,767,369,4044,1650
1824,-572,-1445,979,179,4152,1103
1825,-571,-1424,1087,-405,4132,546
1826,-556,-1411,1073,-1145,3884,228
1827,-583,-1368,1018,-1245,3578,-186
1828,-638,-1267,1033,-756,3347,-563
1829,-628,-1223,1144,-176,3240,-850
1830,-614,-1184,1237,85,3359,-1124
1831,-615,-1113,1377,-184,3544,-1477
1832,-646,-1035,1495,-698,3687,-1768
1833,-657,-963,1625,-807,3642,-2028
1834,-632,-892,1734,-583,3355,-2297
1835,-665,-822,1834,-129,2988,-2561
1836,-661,-706,1955,318,2740,-2901
1837,-662,-556,2048,447,2521,-3178
1838,-652,-466,2048,171,2152,-3323
1839,-652,-360,2048,-102,1742,-3467
1840,-624,-305,2009,-325,1392,-3561
1841,-572,-201,1939,-340,1207,-3721
1842,-552,-63,1897,-249,1089,-3848
1843,-510,50,1883,-147,927,-3913
1844,-504,161,1813,-124,769,-3922
1845,-467,247,1731,-313,648,-3801
1846,-435,312,1624,-608,527,-3618
1847,-378,357,1514,-756,355,-3409
1848,-341,409,1377,-717,205,-3215
1849,-297,448,1286,-485,179,-3024
1850,-244,496,1220,-81,281,-2844
1851,-218,554,1224,285,353,-2663
1852,-182,592,1195,468,443,-2432
1853,-145,616,1206,361,447,-2180
1854,-126,597,1177,60,464,-1911
1855,-98,615,1174,-272,466,-1729
1856,-121,559,1155,-366,390,-1559
1857,-133,485,1099,-157,324,-1342
1858,-147,455,1118,210,300,-1225
1859,-162,416,1103,392,265,-1067
1860,-167,390,1101,378,244,-979
1861,-182,367,1112,326,197,-840
1862,-186,320,1104,253,119,-700
1863,-175,280,1069,199,72,-602
1864,-179,231,1061,50,-67,-475
1865,-176,194,1047,31,-145,-370
1866,-177,181,1042,48,-198,-280
1867,-193,132,1040,140,-282,-235
1868,-199,131,1032,205,-313,-180
1869,-187,102,973,158,-348,-112
1870,-199,68,953,169,-348,-57
1871,-201,46,939,156,-284,3
1872,-194,3,939,105,-180,58
1873,-212,-17,946,101,-155,121
1874,-241,-62,953,169,-127,138
1875,-249,-114,987,158,-47,119
1876,-225,-107,1014,66,-22,76
1877,-245,-108,1044,-51,-75,44
1878,-239,-135,1044,-77,-63,68
1879,-227,-136,1043,-79,-86,46
1880,-238,-111,1034,-124,-174,23
1881,-213,-113,1011,-137,-155,42
1882,-205,-104,1004,-122,-124,64
1883,-208,-109,1013,-108,-98,58
1884,-194,-110,1020,-127,-22,42
1885,-194,-117,1041,-112,27,21
1886,-188,-105,1033,-86,54,0
1887,-190,-91,1022,-75,93,-22
1888,-188,-88,1029,-49,107,-28
1889,-175,-85,1020,-51,105,-18
1890,-196,-70,1028,-71,54,25
1891,-181,-76,1025,-63,3,64
1892,-190,-87,1026,23,-92,99
1893,-202,-100,1000,95,-163,115
1894,-203,-103,981,148,-172,121
1895,-212,-119,968,177,-106,74
1896,-210,-121,975,169,-53,44
1897,-215,-106,985,134,3,3
1898,-200,-100,992,128,33,-16
1899,-203,-105,995,93,37,-24
1900,-208,-90,997,85,35,-49
1901,-205,-87,993,87,42,-16
1902,-209,-87,974,121,56,-6
1903,-216,-102,965,171,76,-18
1904,-237,-112,980,214,160,-36
1905,-232,-124,966,263,257,-86
1906,-236,-97,990,283,332,-184
1907,-212,-86,1029,253,361,-211
1908,-199,-49,1044,199,300,-249
1909,-198,-26,1056,152,195,-196
1910,-188,-17,1053,134,85,-114
1911,-197,-29,1018,171,-45,-18
1912,-217,-66,1016,238,-108,21
1913,-231,-70,981,263,-57,11
1914,-232,-82,989,199,66,-6
1915,-228,-81,984,87,185,-43
1916,-235,-71,1013,29,244,-79
1917,-214,-56,1015,33,257,-112
1918,-211,-49,1013,23,218,-108
1919,-215,-40,1035,-30,144,-69
1920,-207,-63,1027,-92,83,-10
1921,-222,-60,1011,-110,37,0
1922,-229,-65,1002,7,0,-4
1923,-241,-78,1000,126,-14,3
1924,-239,-100,992,125,29,-4
1925,-238,-98,1000,68,103,-63
1926,-229,-77,1020,21,146,-106
1927,-234,-73,1013,-24,132,-84
1928,-238,-80,1008,-12,119,-65
1929,-238,-83,1020,7,109,-43
1930,-240,-107,1021,-6,105,-28
1931,-251,-110,1015,-36,101,-18
1932,-251,-109,1047,-63,95,-14
1933,-243,-100,1032,-43,78,-30
1934,-242,-92,1031,31,42,-40
1935,-249,-85,1037,103,29,-24
1936,-241,-103,1041,152,48,-22
1937,-244,-113,1060,154,95,-75
1938,-245,-114,1069,125,107,-75
1939,-240,-122,1109,115,130,-83
1940,-244,-120,1123,140,134,-92
1941,-226,-137,1174,185,109,-79
1942,-249,-114,1213,203,64,-79
1943,-272,-145,1276,228,66,-67
1944,-269,-136,1357,228,66,-83
1945,-270,-140,1402,212,-45,-81
1946,-265,-138,1452,287,-182,-75
1947,-279,-165,1505,324,-305,-73
1948,-286,-165,1562,312,-458,-110
1949,-288,-161,1587,226,-584,-174
1950,-308,-147,1630,105,-715,-225
1951,-322,-137,1681,148,-877,-249
1952,-343,-144,1729,298,-1069,-315
1953,-336,-129,1752,359,-1239,-274
1954,-352,-134,1731,263,-1420,-297
1955,-351,-131,1729,169,-1643,-307
1956,-348,-112,1671,25,-1868,-319
1957,-348,-105,1593,-100,-2131,-344
1958,-327,-80,1511,-120,-2393,-389
1959,-315,-63,1434,-157,-2557,-393
1960,-316,-75,1332,-223,-2643,-391
1961,-303,-75,1232,-278,-2690,-356
1962,-286,-84,1139,-262,-2684,-364
1963,-255,-75,1058,-272,-2631,-358
1964,-228,-70,1027,-342,-2547,-340
1965,-210,-62,982,-381,-2487,-325
1966,-177,-59,939,-358,-2477,-297
1967,-141,-66,886,-364,-2528,-280
1968,-143,-71,815,-350,-2610,-268
1969,-121,-73,730,-286,-2645,-309
1970,-92,-71,655,-231,-2625,-340
1971,-81,-80,541,-157,-2598,-344
1972,-54,-76,485,-38,-2450,-428
1973,-13,-53,445,-24,-2219,-471
1974,17,-30,430,-53,-1991,-454
1975,41,-18,436,-102,-1764,-440
1976,84,-9,417,-161,-1575,-413
1977,103,5,411,-202,-1456,-364
1978,132,23,417,-143,-1360,-325
1979,134,51,400,-16,-1293,-307
1980,134,56,427,119,-1213,-239
1981,133,47,419,294,-1061,-170
1982,131,30,431,478,-891,-137
1983,131,17,474,531,-655,-145
1984,167,39,574,480,-389,-159
1985,194,84,671,427,-188,-209
1986,205,135,782,416,-129,-229
1987,212,205,870,433,-184,-188
1988,232,286,911,324,-260,-122
1989,248,353,923,132,-301,1
1990,259,426,935,-38,-301,150
1991,248,438,944,-168,-211,369
1992,239,412,962,-131,-83,593
1993,232,406,1025,-18,41,716
1994,209,397,1103,-24,83,826
1995,203,398,1150,-159,89,929
1996,199,410,1167,-368,52,990
1997,190,439,1135,-639,-79,1072
1998,187,428,1075,-864,-239,1205
1999,162,400,984,-987,-350,1417
2000,138,353,877,-1061,-420,1669
2001,99,263,749,-993,-426,1843
2002,68,165,630,-866,-315,1951
2003,88,70,549,-721,-96,2031
2004,104,6,529,-522,119,1957
2005,105,-9,510,-346,269,1849
2006,111,-3,514,-194,351,1843
2007,89,-4,528,-18,427,1876
2008,44,-59,549,23,599,1988
2009,29,-138,545,60,765,2123
2010,-3,-223,596,132,884,2214
2011,-6,-307,599,236,962,2166
2012,-12,-358,627,353,1023,1996
2013,-24,-355,643,414,1097,1824
2014,-31,-358,683,457,1169,1638
2015,-52,-331,711,375,1236,1513
2016,-70,-349,704,292,1304,1453
2017,-90,-359,697,203,1402,1421
2018,-76,-397,719,125,1488,1429
2019,-97,-433,736,140,1550,1378
2020,-119,-453,766,171,1599,1285
2021,-138,-472,779,240,1677,1177
2022,-156,-453,849,304,1812,1041
2023,-169,-465,889,296,1947,929
2024,-183,-472,916,171,2050,845
2025,-194,-518,911,87,2083,775
2026,-261,-539,931,195,2003,675
2027,-273,-608,925,349,2013,652
2028,-300,-647,941,523,2039,503
2029,-338,-647,999,712,2007,275
2030,-320,-642,1033,904,2050,46
2031,-327,-599,1098,843,2136,-172
2032,-328,-590,1130,525,2197,-262
2033,-316,-605,1132,304,2191,-381
2034,-334,-602,1132,292,2097,-536
2035,-344,-621,1164,392,2031,-653
2036,-365,-612,1229,529,1966,-811
2037,-371,-593,1298,562,1937,-1038
2038,-341,-554,1349,458,1882,-1221
2039,-338,-498,1378,265,1769,-1397
2040,-352,-410,1402,134,1662,-1538
2041,-363,-368,1401,150,1566,-1559
2042,-367,-343,1430,289,1437,-1588
2043,-357,-316,1486,357,1353,-1672
2044,-352,-270,1515,253,1251,-1784
2045,-344,-232,1546,89,1105,-1879
2046,-399,-185,1540,-59,921,-1989
2047,-361,-114,1508,-96,802,-1979
2048,-364,-63,1469,17,599,-2014
2049,-359,4,1456,107,417,-1997
2050,-323,69,1445,29,382,-1963
2051,-301,115,1414,-145,320,-1817
2052,-290,127,1350,-237,242,-1715
2053,-287,166,1302,-262,183,-1647
2054,-270,176,1259,-241,130,-1538
2055,-254,194,1220,-172,66,-1438
2056,-238,205,1176,-100,37,-1333
2057,-230,210,1139,-38,37,-1215
2058,-214,209,1145,11,44,-1102
2059,-206,219,1140,21,11,-987
2060,-203,207,1125,48,-69,-875
2061,-212,183,1097,80,-157,-768
2062,-213,137,1052,46,-196,-684
2063,-215,138,1013,15,-206,-645
2064,-196,123,1008,0,-196,-604
2065,-200,120,994,-34,-184,-559
2066,-205,112,974,-8,-184,-526
2067,-185,108,972,41,-131,-491
2068,-178,107,995,11,-116,-422
2069,-188,101,971,0,-141,-354
2070,-200,78,950,46,-155,-276
2071,-205,36,930,126,-155,-174
2072,-210,14,930,183,-143,-147
2073,-225,-4,925,130,-129,-106
2074,-209,-18,899,58,-83,-51
2075,-216,-32,937,56,-26,-28
2076,-227,-49,954,50,54,-32
2077,-229,-68,975,46,80,-14
2078,-235,-79,966,23,72,-6
2079,-233,-61,973,5,35,0
2080,-240,-82,963,111,15,-20
2081,-246,-99,953,185,44,-12
2082,-252,-104,973,185,85,-8
2083,-259,-104,976,132,95,-4
2084,-235,-101,973,80,103,-30
2085,-216,-93,969,82,85,-45
2086,-232,-87,953,195,64,-38
2087,-234,-83,991,292,107,1
2088,-234,-104,1019,283,156,56
2089,-258,-104,1075,128,107,-6
2090,-245,-119,1052,128,146,13
2091,-232,-117,1024,70,117,-8
2092,-251,-96,1044,189,103,-10
2093,-240,-92,1078,167,111,15
2094,-247,-101,1037,142,80,-26
2095,-262,-114,1055,218,154,54
2096,-261,-114,1083,68,93,-10
2097,-253,-121,1066,64,60,-40
2098,-248,-106,1063,52,13,-69
2099,-254,-93,1051,41,-16,-98
2100,-237,-79,1062,-4,-32,-108
2101,-232,-64,1019,-30,-42,-92
2102,-244,-75,1011,-2,-55,-67
2103,-246,-83,1008,111,-61,-61
2104,-257,-108,1019,205,-8,-86
2105,-258,-110,1031,207,25,-104
2106,-259,-102,1053,103,39,-133
2107,-237,-79,1062,-20,21,-141
2108,-235,-62,1034,-63,-30,-139
2109,-217,-43,1030,-42,-79,-110
2110,-231,-36,995,3,-100,-63
2111,-244,-50,1005,50,-79,-40
2112,-237,-77,1016,74,-49,-6
2113,-251,-88,1023,72,-24,-8
2114,-242,-96,1032,25,-16,-10
2115,-258,-114,1024,-26,-6,-34
2116,-245,-113,1031,-32,-12,-67
2117,-240,-89,1025,-26,-10,-102
2118,-238,-89,1018,-30,-38,-92
2119,-240,-96,1004,-10,-73,-83
2120,-243,-100,1004,15,-96,-67
2121,-240,-97,1015,11,-90,-42
2122,-233,-106,1008,-12,-92,-51
2123,-254,-96,987,-55,-86,-59
2124,-256,-112,994,-69,-75,-53
2125,-264,-111,993,-32,-75,-57
2126,-261,-121,1008,-53,-81,-63
2127,-259,-107,1002,-98,-59,-47
2128,-249,-108,1009,-137,-38,-63
2129,-240,-109,992,-145,-26,-65
2130,-251,-104,991,-129,-51,-69
2131,-237,-99,992,-102,-42,-53
2132,-238,-94,1016,-57,-22,-51
2133,-249,-112,1023,-38,-42,-42
2134,-246,-105,1039,-65,-71,-24
2135,-245,-108,1005,-110,-88,-30
2136,-245,-108,1010,-102,-90,-38
2137,-231,-104,1002,-98,-84,-32
2138,-234,-109,1000,-73,-96,-18
2139,-246,-111,995,9,-100,-20
2140,-247,-129,992,41,-53,-26
2141,-247,-131,992,46,-14,-40
2142,-245,-112,1015,7,-12,-73
2143,-239,-101,1017,-32,5,-86
2144,-234,-91,1036,-69,3,-86
2145,-232,-84,1021,-112,-28,-73
2146,-229,-79,1030,-92,-96,-53
2147,-237,-80,996,-42,-157,-28
2148,-245,-82,982,7,-167,-26
2149,-225,-81,974,-2,-129,-22
2150,-239,-68,985,-34,-86,-30
2151,-229,-66,997,-32,-61,1
2152,-231,-63,1000,-4,-40,11
2153,-232,-83,980,13,-26,25
2154,-236,-87,987,11,-10,17
2155,-247,-100,997,-16,1,21
2156,-237,-91,1009,-69,25,23
2157,-228,-99,1035,-131,27,21
2158,-234,-77,1039,-129,-34,39
2159,-235,-88,1016,-63,-57,52
2160,-236,-88,1018,-6,-81,76
2161,-239,-88,994,7,-83,76
2162,-236,-94,992,-20,-55,82
2163,-239,-97,1005,-10,-38,66
2164,-239,-92,1001,1,-30,54
2165,-234,-94,1010,9,-20,68
2166,-235,-98,1007,5,-14,74
2167,-244,-100,1008,-12,-24,74
2168,-247,-106,1028,-34,-30,93
2169,-238,-108,1003,-45,-26,95
2170,-254,-114,1009,-38,-32,85
2171,-252,-117,1024,-6,-28,52
2172,-245,-115,1020,9,-30,39
2173,-228,-111,1030,-2,-45,13
2174,-228,-93,1037,-55,-73,-22
2175,-222,-76,1035,-112,-90,1
2176,-220,-81,1017,-124,-110,39
2177,-229,-94,996,-79,-125,82
2178,-227,-117,975,-10,-84,89
2179,-228,-120,992,13,-10,68
2180,-222,-118,1010,-34,33,64
2181,-232,-119,1025,-40,37,39
2182,-228,-105,1065,-24,15,39
2183,-220,-116,1058,-6,-32,29
2184,-214,-106,1030,-16,-79,9
2185,-208,-98,1031,-65,-133,21
2186,-210,-83,1005,-63,-170,37
2187,-217,-86,996,-16,-151,60
2188,-233,-94,973,9,-108,76
2189,-241,-118,978,23,-42,68
2190,-250,-126,1003,25,23,76
2191,-250,-145,1023,3,48,42
2192,-251,-149,1037,-45,27,17
2193,-242,-132,1042,-127,-2,-12
2194,-237,-113,1029,-172,-59,-18
2195,-235,-117,1037,-151,-116,-12
2196,-240,-94,1002,-110,-163,-6
2197,-231,-104,967,-90,-176,17
2198,-236,-95,946,-61,-145,27
2199,-240,-99,960,-2,-57,15
2200,-236,-95,989,42,9,35
2201,-242,-108,1003,66,17,33
2202,-239,-112,1018,39,27,1
2203,-237,-108,1033,-53,21,-8
2204,-231,-107,1020,-116,-2,-24
2205,-231,-100,1003,-104,-53,-18
2206,-225,-99,997,-2,-94,0
2207,-224,-98,976,95,-129,23
2208,-224,-99,984,154,-116,15
2209,-216,-89,992,154,-57,13
2210,-227,-93,1017,101,-26,11
2211,-229,-96,1039,5,-10,13
2212,-234,-95,1032,-71,-26,21
2213,-245,-119,1005,-104,-42,23
2214,-252,-143,1004,-90,-43,15
2215,-248,-127,995,-36,-42,-24
2216,-241,-125,1015,-4,-32,-42
2217,-226,-99,1016,29,-24,-65
2218,-218,-89,1004,11,-36,-55
2219,-221,-89,1006,5,-38,-38
2220,-221,-96,1001,15,-18,-16
2221,-239,-100,1018,25,-30,0
2222,-226,-112,1011,9,-32,-4
2223,-228,-102,1009,-18,-36,-6
2224,-234,-104,1002,-2,-26,5
2225,-231,-103,1004,42,-18,1
2226,-236,-94,1033,70,-12,-16
2227,-230,-101,1029,42,-12,-4
2228,-236,-100,1032,-10,0,-4
2229,-234,-105,997,-34,0,21
2230,-242,-119,1006,-16,-2,31
2231,-239,-129,1002,21,1,21
2232,-245,-137,1022,3,-6,-14
2233,-250,-143,1021,-42,-26,-34
2234,-250,-124,1019,-61,-47,-38
2235,-241,-136,1015,-20,-86,-43
2236,-243,-128,996,46,-112,-45
2237,-234,-112,990,74,-88,-69
2238,-235,-116,991,21,-51,-73
2239,-224,-92,1004,-4,-26,-84
2240,-214,-91,1008,5,7,-84
2241,-215,-106,997,42,21,-73
2242,-227,-98,1008,50,27,-63
2243,-213,-103,1022,17,50,-67
2244,-215,-106,999,-32,37,-67
2245,-220,-89,1006,11,15,-43
2246,-214,-84,1033,91,-20,-8
2247,-223,-92,1034,179,-53,11
2248,-218,-75,1055,208,-63,7
2249,-224,-94,1029,148,-40,23
2250,-222,-85,1041,72,-4,29
2251,-227,-106,1055,-30,25,5
2252,-240,-85,1055,-81,31,-14
2253,-239,-89,1065,-42,-2,-26
2254,-243,-103,1051,31,-69,-24
2255,-255,-106,1061,76,-114,-10
2256,-250,-117,1069,76,-108,-8
2257,-236,-103,1051,42,-92,-24
2258,-240,-100,1074,-8,-90,-49
2259,-238,-86,1104,-10,-114,-51
2260,-247,-98,1111,15,-131,-42
2261,-248,-100,1098,-12,-159,-38
2262,-236,-98,1084,-61,-204,-43
2263,-236,-91,1073,-86,-239,-47
2264,-229,-84,1036,-75,-264,-30
2265,-227,-91,1010,1,-286,-36
2266,-220,-79,1002,115,-282,-45
2267,-238,-99,1012,144,-254,-49
2268,-223,-96,1006,52,-215,-71
2269,-206,-88,994,-106,-196,-65
2270,-213,-73,973,-208,-188,-67
2271,-205,-72,975,-209,-192,-34
2272,-189,-79,937,-157,-208,-12
2273,-212,-89,926,-20,-233,13
2274,-195,-105,952,105,-196,9
2275,-196,-113,978,166,-131,-12
2276,-190,-121,1017,154,-86,-55
2277,-180,-119,1072,119,-36,-83
2278,-157,-126,1181,97,42,-112
2279,-153,-84,1285,42,93,-141
2280,-174,-75,1423,7,136,-98
2281,-185,-112,1560,76,173,-71
2282,-202,-154,1706,173,66,-30
2283,-243,-203,1830,347,-174,-4
2284,-290,-208,2012,796,-411,-155
2285,-293,-186,2048,1189,-559,-252
2286,-308,-162,2048,1230,-854,-348
2287,-334,-146,2048,910,-1206,-422
2288,-415,-112,2048,341,-1624,-370
2289,-447,-135,2048,-153,-2047,-262
2290,-592,-185,2048,-245,-2627,-92
2291,-638,-227,2048,238,-2963,-81
2292,-710,-255,2048,498,-3321,-194
2293,-725,-264,2048,337,-3774,-200
2294,-729,-267,2048,-116,-4167,-315
2295,-688,-210,1842,-842,-4682,-469
2296,-639,-157,1454,-1362,-5028,-594
2297,-578,-93,1074,-1434,-5188,-704
2298,-512,-62,758,-1278,-5083,-749
2299,-404,-6,515,-1096,-4786,-731
2300,-311,37,321,-997,-4499,-612
2301,-238,13,153,-868,-4256,-499
2302,-196,-28,44,-627,-4061,-399
2303,-132,-98,9,-329,-3938,-405
2304,-104,-122,-33,-75,-3928,-491
2305,-62,-113,-114,7,-3893,-579
2306,13,-95,-149,128,-3698,-659
2307,80,-44,-132,347,-3399,-723
2308,173,24,-128,423,-3028,-690
2309,236,28,-83,359,-2768,-665
2310,288,56,-4,333,-2543,-665
2311,328,77,50,248,-2309,-622
2312,347,84,137,281,-2125,-596
2313,338,89,223,380,-2065,-538
2314,333,76,276,492,-2008,-452
2315,304,44,253,587,-1874,-366
2316,322,11,289,681,-1624,-331
2317,345,54,315,691,-1280,-372
2318,368,105,391,617,-958,-379
2319,390,158,435,509,-754,-321
2320,408,247,498,554,-583,-315
2321,392,293,519,644,-502,-209
2322,411,296,567,800,-430,-73
2323,436,332,606,830,-358,0
2324,449,417,657,781,-317,128
2325,494,500,721,761,-221,207
2326,544,608,788,742,-167,392
2327,570,691,873,888,-98,568
2328,578,776,951,1111,-112,753
2329,563,883,1053,1255,-127,949
2330,552,957,1163,1265,-108,1224
2331,556,1031,1257,962,-133,1552
2332,520,1051,1209,388,-250,1943
2333,472,1018,1134,-313,-340,2341
2334,395,911,1053,-817,-381,2691
2335,314,809,932,-1118,-391,3005
2336,245,673,760,-1206,-428,3279
2337,200,576,634,-985,-405,3457
2338,183,489,526,-598,-295,3542
2339,178,432,447,-338,-225,3621
2340,192,377,357,-288,-167,3736
2341,174,306,222,-454,-84,3923
2342,160,194,91,-610,25,4103
2343,149,65,-82,-495,117,4296
2344,53,-87,-185,44,236,4390
2345,57,-245,-200,689,576,4371
2346,-81,-380,-213,1380,921,4195
2347,-124,-542,-115,1656,1345,4085
2348,-149,-619,0,1697,2046,3716
2349,-131,-660,124,1478,2498,3378
2350,-178,-707,287,949,2742,3150
2351,-146,-747,322,464,3062,3111
2352,-226,-865,344,326,3052,3078
2353,-284,-970,433,625,3056,2861
2354,-313,-1022,525,958,3187,2535
2355,-388,-1127,643,960,3322,2171
2356,-384,-1221,710,593,3640,1890
2357,-504,-1284,809,207,3890,1402
2358,-458,-1270,893,-174,4183,1111
2359,-473,-1252,987,-311,4291,695
2360,-519,-1222,1090,-237,4171,404
2361,-468,-1232,1163,-133,4111,193
2362,-479,-1193,1244,-196,3960,-129
2363,-486,-1173,1229,-340,3789,-350
2364,-489,-1160,1214,-370,3650,-522
2365,-515,-1143,1211,-88,3501,-762
2366,-578,-1115,1213,515,3347,-1051
2367,-589,-1074,1256,1132,3341,-1438
2368,-582,-982,1400,1318,3503,-1786
2369,-604,-931,1505,1003,3566,-2083
2370,-565,-881,1587,464,3507,-2202
2371,-577,-860,1578,154,3236,-2368
2372,-597,-856,1530,261,2937,-2493
2373,-592,-814,1560,771,2705,-2670
2374,-667,-730,1661,1330,2503,-2956
2375,-627,-644,1774,1542,2427,-3131
2376,-630,-550,1855,1257,2318,-3393
2377,-624,-482,1867,716,2095,-3532
2378,-652,-441,1777,375,1771,-3655
2379,-611,-368,1738,421,1455,-3756
2380,-599,-208,1765,558,1283,-3995
2381,-532,-32,1766,605,1115,-4079
2382,-492,114,1781,515,861,-4043
2383,-421,272,1713,408,656,-3936
2384,-369,365,1620,207,425,-3756
2385,-294,457,1498,42,296,-3528
2386,-260,520,1375,-59,175,-3256
2387,-208,593,1324,42,210,-3030
2388,-181,665,1319,162,292,-2772
2389,-167,685,1313,224,283,-2432
2390,-181,657,1278,283,224,-2131
2391,-164,652,1249,371,146,-1889
2392,-183,612,1191,412,50,-1667
2393,-164,585,1156,384,-8,-1454
2394,-151,545,1132,240,-53,-1256
2395,-167,518,1104,115,-92,-1084
2396,-182,487,1083,140,-118,-922
2397,-193,441,1064,179,-159,-758
2398,-186,376,1026,171,-194,-600
2399,-183,314,993,130,-200,-487
2400,-188,279,971,128,-198,-375
2401,-191,229,950,183,-215,-278
2402,-205,142,935,248,-217,-204
2403,-211,89,934,308,-180,-147
2404,-200,53,951,298,-125,-122
2405,-183,29,979,212,-94,-125
2406,-192,28,968,105,-120,-118
2407,-183,-5,957,68,-141,-65
2408,-179,-8,973,101,-151,-30
2409,-195,-35,992,87,-194,-12
2410,-193,-53,968,41,-215,17
2411,-179,-65,975,-4,-206,29
2412,-196,-83,943,-28,-194,64
2413,-193,-101,941,56,-151,85
2414,-188,-99,954,195,-96,103
2415,-180,-120,985,242,15,107
2416,-171,-101,1041,156,103,87
2417,-157,-100,1059,17,119,91
2418,-174,-73,1066,-73,52,97
2419,-169,-89,1068,-43,-32,154
2420,-197,-113,1059,80,-151,201
2421,-220,-140,1033,134,-213,214
2422,-225,-179,1036,105,-161,207
2423,-239,-195,1029,70,-102,167
2424,-246,-186,1032,72,-51,125
2425,-227,-182,1030,126,-6,87
2426,-215,-176,1052,146,21,33
2427,-216,-140,1056,119,0,21
2428,-197,-134,1054,62,-30,33
2429,-205,-138,1050,-34,-90,37
2430,-195,-123,1043,-84,-147,27
2431,-193,-132,1035,-77,-163,27
2432,-210,-145,1021,-8,-165,48
2433,-216,-152,1007,109,-139,31
2434,-232,-169,1024,166,-75,-10
2435,-206,-164,1055,152,5,-53
2436,-205,-145,1062,46,21,-96
2437,-194,-121,1055,-20,-40,-84
2438,-201,-123,1045,-42,-92,-94
2439,-193,-116,1029,-75,-155,-88
2440,-208,-120,1033,-137,-219,-104
2441,-199,-120,1010,-153,-284,-100
2442,-198,-103,987,-86,-307,-81
2443,-202,-113,966,23,-268,-83
2444,-215,-116,982,85,-202,-81
2445,-211,-131,983,87,-127,-61
2446,-211,-121,991,74,-108,-83
2447,-212,-119,994,70,-98,-102
2448,-200,-112,987,33,-94,-94
2449,-188,-105,975,-8,-135,-94
2450,-186,-94,975,-24,-168,-100
2451,-186,-88,955,-77,-174,-98
2452,-189,-98,946,-104,-139,-79
2453,-176,-96,940,-57,-110,-42
2454,-178,-88,941,13,-75,-12
2455,-174,-127,935,37,-10,3
2456,-176,-121,965,31,54,1
2457,-173,-132,990,21,80,3
2458,-175,-132,1011,27,87,-34
2459,-176,-125,1027,-18,62,-67
2460,-168,-103,1032,-118,13,-47
2461,-177,-112,1004,-196,-38,-12
2462,-167,-117,978,-200,-45,21
2463,-181,-134,975,-88,-34,42
2464,-178,-144,982,54,-16,48
2465,-181,-148,992,125,35,54
2466,-187,-149,1010,113,85,39
2467,-184,-148,1020,74,115,15
2468,-181,-141,1031,42,111,13
2469,-175,-131,1039,13,70,-6
2470,-179,-128,1034,-30,27,13
2471,-182,-137,1031,-59,-2,37
2472,-179,-141,1014,-51,-36,42
2473,-190,-150,1008,-55,-38,60
2474,-187,-147,1011,-32,3,56
2475,-193,-159,1030,-8,41,52
2476,-197,-167,1045,-6,62,29
2477,-192,-152,1049,17,74,-4
2478,-201,-155,1042,25,42,-14
2479,-199,-151,1057,5,13,-24
2480,-197,-146,1052,-49,7,-38
2481,-200,-153,1036,-92,-6,-43
2482,-199,-160,1036,-100,-26,-43
2483,-200,-142,1046,-133,-42,-47
2484,-197,-132,1031,-131,-69,-38
2485,-193,-146,1023,-94,-69,-40
2486,-192,-136,1015,-79,-49,-45
2487,-186,-133,1011,-75,-53,-51
2488,-190,-119,1013,-36,-43,-53
2489,-183,-131,1005,0,-22,-57
2490,-191,-125,1021,11,-38,-42
2491,-179,-123,1019,9,-40,-32
2492,-195,-131,1044,0,-42,-22
2493,-191,-143,1028,-34,-63,-4
2494,-198,-133,1007,-51,-73,-26
2495,-192,-126,1003,-57,-53,-32
2496,-197,-122,1008,-47,-30,-42
2497,-178,-113,999,-38,-6,-34
2498,-178,-116,1008,-24,3,-32
2499,-181,-92,1004,3,-12,1
2500,-189,-116,999,13,0,27
2501,-192,-120,1004,-6,19,35
2502,-191,-134,1025,-32,19,15
2503,-202,-135,1022,-14,-8,-10
2504,-199,-133,1037,-22,-40,0
2505,-207,-133,1034,-28,-61,-8
2506,-198,-127,1005,5,-73,-20
2507,-201,-125,1009,41,-32,-4
2508,-196,-144,1011,54,0,-4
2509,-186,-124,1023,29,9,-22
2510,-195,-109,1026,11,-4,-10
2511,-186,-122,1021,37,-22,15
2512,-191,-128,1038,44,-55,27
2513,-190,-139,1028,15,-73,5
2514,-200,-128,1046,-65,-73,-10
2515,-191,-131,1024,-118,-59,-10
2516,-223,-139,1020,-124,-61,1
2517,-172,-133,1018,-108,-43,23
2518,-209,-123,1011,19,-79,-38
2519,-193,-142,1005,21,-53,-6
2520,-186,-132,1001,-4,-10,-20
2521,-189,-121,1016,-14,-38,-28
2522,-178,-105,1003,-6,-26,-28
2523,-188,-114,1020,-12,-36,-22
2524,-186,-96,1023,13,-75,-10
2525,-188,-114,1020,3,-79,21
2526,-200,-133,994,-16,-69,37
2527,-202,-143,990,-20,-28,33
2528,-195,-137,996,-4,15,23
2529,-195,-127,1015,31,29,3
2530,-194,-134,1024,44,29,-10
2531,-191,-131,1029,27,-4,0
2532,-188,-124,1019,15,-47,0
2533,-186,-138,1004,15,-75,-4
2534,-189,-122,1008,-24,-73,-12
2535,-191,-134,1012,-67,-38,3
2536,-171,-125,1012,-61,-32,7
2537,-178,-114,1004,-45,-36,0
2538,-177,-122,1014,-16,-43,23
2539,-185,-116,1011,25,-42,29
2540,-199,-133,1005,48,-51,9
2541,-191,-133,1009,21,-38,17
2542,-194,-133,1013,-28,-30,9
2543,-193,-143,1020,-14,-38,5
2544,-200,-141,1025,42,-32,0
2545,-192,-155,1013,56,0,-12
2546,-188,-144,1029,-22,5,-28
2547,-189,-136,1015,-90,-8,-51
2548,-181,-125,999,-98,-22,-51
2549,-183,-117,1002,-77,-40,-32
2550,-178,-131,986,-61,-43,0
2551,-187,-120,985,-30,-22,5
2552,-191,-138,1005,-8,5,11
2553,-193,-139,1016,7,39,11
2554,-194,-159,1022,3,46,1
2555,-196,-154,1035,-18,44,-22
2556,-190,-139,1044,-38,42,-34
2557,-196,-121,1015,-4,11,-57
2558,-189,-138,1046,15,-22,-53
2559,-180,-131,1050,-8,-61,-43
2560,-187,-128,1016,-59,-90,-57