sequence,AccelerometerX,AccelerometerY,AccelerometerZ,GyroscopeX,GyroscopeY,GyroscopeZ
0,315,159,987,-24,-67,31
1,310,150,973,-18,-75,23
2,321,154,981,-45,-81,17
3,328,151,979,-88,-88,7
4,317,161,991,-110,-102,11
5,325,157,992,-110,-110,27
6,328,166,981,-98,-125,25
7,317,155,989,-84,-151,9
8,302,159,971,-73,-161,25
9,316,157,984,-71,-141,50
10,321,152,984,-110,-120,58
11,320,139,983,-151,-131,48
12,332,134,987,-178,-147,44
13,316,144,987,-186,-188,21
14,327,145,972,-167,-215,3
15,316,145,973,-151,-217,7
16,320,148,970,-129,-206,9
17,316,137,962,-120,-202,1
18,317,150,957,-125,-204,7
19,327,150,963,-145,-204,17
20,328,144,968,-139,-198,21
21,332,149,974,-104,-200,23
22,334,158,969,-38,-202,21
23,343,149,946,13,-182,-6
24,334,153,967,56,-172,-16
25,336,157,956,78,-170,-6
26,333,160,951,78,-172,0
27,346,146,970,105,-165,1
28,370,155,962,140,-168,-16
29,358,166,971,152,-170,-20
30,356,161,983,152,-198,0
31,362,164,962,115,-229,37
32,373,162,950,44,-264,66
33,364,150,937,-65,-286,78
34,374,139,930,-172,-288,109
35,372,130,912,-237,-284,125
36,367,128,901,-284,-297,99
37,363,124,889,-354,-293,89
38,347,109,880,-411,-274,107
39,340,111,875,-395,-221,128
40,344,94,887,-360,-172,128
41,332,84,899,-303,-135,117
42,338,79,893,-249,-124,85
43,311,85,902,-213,-112,37
44,336,79,916,-204,-81,-10
45,331,84,924,-229,-65,-36
46,332,95,930,-245,-59,-75
47,330,109,944,-260,-94,-112
48,320,131,940,-245,-127,-122
49,317,134,923,-202,-149,-127
50,305,131,921,-124,-135,-131
51,310,133,905,-73,-112,-122
52,319,137,913,-86,-81,-112
53,307,135,907,-143,-65,-96
54,303,127,911,-229,-55,-71
55,316,141,889,-266,-12,-53
56,328,147,897,-266,37,-61
57,329,144,925,-227,76,-83
58,333,147,920,-155,91,-92
59,356,153,922,-94,95,-73
60,362,153,949,-49,111,-59
61,368,157,958,-10,136,-63
62,373,164,973,17,158,-57
63,380,171,1005,25,138,-43
64,374,155,1005,21,93,-34
65,375,162,1008,11,35,-4
66,368,163,989,-2,3,11
67,392,148,987,-16,11,21
68,385,143,1014,-32,29,21
69,373,152,1007,-63,29,23
70,370,147,993,-77,19,33
71,373,147,1006,-69,15,31
72,378,140,1026,-65,-2,29
73,380,140,1027,-59,-42,29
74,381,133,1026,-92,-94,31
75,366,134,1011,-141,-151,23
76,381,135,979,-178,-194,37
77,378,120,966,-194,-223,64
78,374,103,938,-204,-233,56
79,378,110,924,-204,-225,29
80,375,119,915,-190,-184,9
81,367,116,929,-176,-131,9
82,373,110,925,-176,-94,15
83,368,103,939,-194,-79,21
84,374,109,925,-202,-71,13
85,376,111,942,-215,-61,-12
86,363,112,946,-170,-90,-22
87,356,111,954,-155,-84,-22
88,363,98,927,-125,-110,-20
89,353,101,936,-98,-122,-28
90,342,92,917,-84,-125,-43
91,350,98,904,-77,-139,-49
92,357,106,888,-86,-125,-77
93,363,102,875,-100,-88,-100
94,352,121,893,-81,-28,-120
95,361,129,900,-51,19,-125
96,348,133,894,-26,54,-129
97,354,130,907,7,85,-129
98,355,131,911,48,99,-129
99,362,141,902,56,95,-122
100,357,133,890,39,87,-127
101,353,134,908,21,74,-131
102,371,133,908,-12,62,-137
103,375,150,909,-51,19,-161
104,362,160,895,-100,-24,-180
105,352,156,901,-98,-55,-174
106,356,172,896,-59,-47,-139
107,359,178,896,-42,-18,-120
108,358,167,872,-20,3,-108
109,352,162,862,0,23,-77
110,359,164,883,-8,50,-65
111,364,166,888,-47,68,-65
112,374,168,876,-81,68,-59
113,364,162,891,-116,62,-57
114,360,172,896,-110,87,-49
115,365,169,907,-75,134,-42
116,365,183,918,-43,175,-22
117,371,172,937,-12,216,1
118,362,176,957,31,240,9
119,379,169,967,80,240,11
120,367,160,987,103,199,23
121,368,145,992,82,130,35
122,363,138,998,23,58,42
123,359,135,979,-53,3,42
124,365,138,962,-120,-12,42
125,365,141,959,-153,-12,31
126,361,131,962,-155,-2,25
127,366,129,956,-135,-10,21
128,369,138,961,-114,-24,-8
129,362,141,947,-102,-24,-14
130,358,144,953,-77,1,3
131,361,136,957,-49,23,5
132,373,142,955,-51,33,-4
133,362,141,965,-63,15,15
134,365,145,964,-57,-22,35
135,365,139,971,-32,-51,52
136,349,136,967,-2,-53,48
137,349,119,949,9,-51,39
138,357,123,977,-2,-47,37
139,346,112,963,-40,-42,31
140,346,110,959,-88,-51,21
141,349,110,947,-124,-40,9
142,342,108,954,-149,-26,7
143,357,120,969,-157,-30,-24
144,348,125,955,-174,-53,-49
145,348,129,940,-165,-73,-47
146,353,139,931,-112,-79,-57
147,355,136,964,-75,-69,-69
148,356,140,960,-51,-63,-77
149,346,140,951,-47,-84,-90
150,358,144,956,-63,-88,-90
151,361,145,955,-75,-92,-77
152,366,168,952,-57,-88,-63
153,354,160,951,-32,-92,-71
154,358,166,965,-30,-79,-53
155,346,164,955,-26,-63,-30
156,361,158,965,-26,-71,5
157,361,160,951,-55,-110,9
158,353,148,938,-98,-149,7
159,345,141,913,-135,-143,9
160,353,142,925,-153,-129,21
161,357,144,943,-170,-104,29
162,357,145,928,-163,-96,37
163,359,140,934,-135,-88,39
164,358,139,926,-108,-90,33
165,350,139,935,-104,-83,25
166,347,131,930,-139,-86,33
167,341,123,918,-204,-104,33
168,346,126,904,-262,-120,21
169,355,125,903,-317,-133,9
170,370,127,903,-358,-170,5
171,357,137,873,-385,-227,7
172,355,131,835,-395,-258,21
173,350,136,831,-352,-221,39
174,340,126,836,-239,-106,42
175,350,132,831,-124,29,21
176,375,128,858,-73,134,-18
177,376,130,885,-65,173,-26
178,375,122,898,-81,171,-14
179,380,127,917,-96,152,5
180,364,128,930,-110,158,5
181,361,125,945,-84,173,1
182,370,123,956,-45,191,15
183,368,115,966,-30,166,15
184,364,115,940,-43,111,17
185,353,104,929,-92,68,31
186,356,101,914,-170,44,31
187,354,92,886,-276,35,27
188,347,80,887,-375,41,35
189,344,58,836,-430,33,7
190,340,46,835,-514,-14,-38
191,311,47,782,-624,-83,-75
192,278,36,765,-665,-151,-112
193,255,21,725,-627,-204,-159
194,241,3,666,-610,-241,-172
195,216,-27,625,-581,-309,-209
196,200,-45,556,-547,-395,-260
197,176,-65,465,-543,-510,-309
198,139,-89,378,-577,-651,-321
199,98,-113,287,-641,-799,-305
200,68,-132,188,-727,-997,-268
201,28,-154,85,-868,-1204,-260
202,-26,-143,-15,-1063,-1348,-290
203,-55,-138,-128,-1409,-1311,-350
204,-41,-117,-211,-1731,-1172,-403
205,32,-16,-380,-2043,-891,-424
206,75,83,-531,-2452,-624,-418
207,72,185,-641,-2756,-333,-333
208,29,238,-732,-2563,187,-84
209,-25,252,-843,-1696,964,197
210,-77,206,-870,-368,2330,357
211,-179,173,-695,1070,4228,171
212,-340,132,-435,2273,6304,-118
213,-424,115,-24,3078,8156,-432
214,-515,153,378,3287,9615,-801
215,-564,140,838,2908,10537,-1012
216,-543,165,1327,2138,10707,-1141
217,-583,123,1727,958,10195,-1053
218,-578,101,2048,-395,9193,-780
219,-529,141,2048,-1592,7937,-368
220,-502,138,2048,-2264,6404,220
221,-477,95,2048,-2061,4867,685
222,-460,83,2048,-1247,3892,632
223,-414,43,2048,-354,3289,292
224,-260,81,2048,197,2580,27
225,-180,173,2048,44,1515,-135
226,-176,257,2048,-588,513,-149
227,-211,349,2048,-1215,-223,-67
228,-224,456,2048,-1651,-629,-26
229,-231,611,2048,-1725,-719,-131
230,-204,760,2048,-1446,-686,-258
231,-97,954,2048,-770,-651,-282
232,-10,1172,2048,42,-795,-260
233,55,1437,2048,701,-1088,-260
234,113,1704,1995,1011,-1403,-182
235,59,1905,1768,955,-1866,396
236,-17,1978,1551,570,-2299,1453
237,-81,1935,1371,87,-2391,2636
238,-146,1842,1266,-295,-2012,3630
239,-237,1714,1222,-588,-1495,4478
240,-320,1561,1212,-758,-1065,5281
241,-429,1317,1237,-645,-805,5964
242,-492,1055,1349,-366,-708,6414
243,-531,829,1353,-243,-729,6691
244,-577,640,1324,-393,-1088,6943
245,-647,511,1249,-504,-1516,7101
246,-702,361,1113,-385,-1704,7142
247,-740,212,1011,-59,-1702,7232
248,-775,35,899,355,-1625,7250
249,-840,-198,806,738,-1368,7167
250,-851,-453,782,960,-979,7072
251,-847,-652,734,962,-448,6914
252,-786,-836,732,679,56,6609
253,-703,-983,749,267,476,6179
254,-657,-1145,855,-180,794,5689
255,-588,-1227,961,-473,939,5167
256,-501,-1272,998,-491,761,4630
257,-409,-1286,958,9,193,3990
258,-358,-1272,873,1021,-489,3150
259,-334,-1280,779,2150,-872,2261
260,-258,-1258,694,2878,-823,1480
261,-145,-1185,669,2806,-461,769
262,-81,-1043,687,2001,-24,171
263,-81,-879,717,882,314,-182
264,-62,-752,740,-49,591,-249
265,-32,-612,798,-569,794,-151
266,16,-483,843,-817,820,-83
267,61,-389,865,-918,626,-84
268,120,-289,817,-917,312,-6
269,102,-226,762,-819,23,68
270,65,-183,752,-678,-32,66
271,48,-159,760,-581,175,39
272,64,-154,809,-524,505,25
273,91,-144,877,-467,781,-49
274,105,-128,947,-458,914,-114
275,78,-115,1005,-356,884,-155
276,59,-122,1075,-122,855,-211
277,43,-122,1137,167,748,-268
278,48,-93,1167,314,568,-362
279,42,-57,1155,257,349,-454
280,22,-31,1111,85,117,-471
281,10,-24,1072,-127,-42,-383
282,7,-13,1024,-385,21,-274
283,18,7,1022,-657,160,-235
284,14,7,1044,-866,302,-221
285,15,30,1076,-975,416,-204
286,17,39,1114,-944,492,-211
287,43,52,1164,-774,505,-293
288,64,71,1202,-475,445,-436
289,42,98,1231,-137,330,-543
290,38,96,1220,76,146,-526
291,33,103,1194,152,-40,-442
292,17,100,1137,126,-129,-374
293,-9,62,1109,68,-168,-331
294,-36,44,1064,11,-149,-290
295,-50,29,1059,-90,-96,-276
296,-44,14,1063,-215,-24,-268
297,-17,12,1065,-301,48,-297
298,-1,11,1064,-362,89,-405
299,-8,36,1094,-383,85,-500
300,-17,59,1114,-329,41,-530
301,-3,79,1124,-188,-40,-553
302,-3,84,1142,-14,-163,-569
303,-11,80,1119,66,-282,-573
304,-31,27,1097,31,-348,-524
305,-28,-7,1085,-42,-342,-413
306,-29,-60,1083,-143,-292,-360
307,-35,-96,1094,-290,-213,-338
308,-29,-138,1135,-399,-139,-395
309,-30,-150,1184,-471,-114,-504
310,-39,-161,1207,-487,-120,-684
311,-39,-165,1239,-475,-149,-852
312,-29,-151,1258,-407,-292,-977
313,-41,-157,1238,-258,-442,-1065
314,-40,-141,1218,-170,-624,-1149
315,-45,-117,1171,-168,-793,-1225
316,-63,-82,1128,-239,-899,-1258
317,-55,-50,1077,-391,-932,-1188
318,-63,-7,1032,-563,-879,-1086
319,-55,13,1000,-692,-743,-981
320,-51,7,960,-725,-528,-854
321,-38,-12,1006,-641,-311,-784
322,-22,-38,1072,-428,-161,-801
323,-14,-75,1159,-319,-100,-860
324,6,-141,1253,-399,-459,-1067
325,-2,-109,1223,-331,-196,-920
326,-7,-148,1283,-463,-698,-1243
327,-12,-113,1320,-522,-731,-1364
328,-24,-109,1359,-624,-586,-1340
329,-23,-98,1411,-786,-348,-1266
330,26,-87,1487,-1010,-145,-1153
331,75,-101,1540,-1252,-208,-981
332,130,-115,1574,-1403,-567,-887
333,71,-124,1592,-1350,-969,-936
334,82,-117,1588,-1170,-1430,-1137
335,88,-90,1550,-801,-1725,-1301
336,73,-68,1500,-430,-1911,-1418
337,72,-44,1449,-125,-1985,-1454
338,85,-26,1378,37,-1963,-1456
339,81,7,1307,41,-1838,-1481
340,79,41,1241,-57,-1653,-1473
341,93,51,1193,-237,-1432,-1397
342,105,44,1178,-344,-1292,-1346
343,140,60,1163,-424,-1258,-1344
344,177,64,1151,-518,-1372,-1442
345,191,92,1134,-583,-1629,-1502
346,214,142,1110,-635,-1918,-1461
347,227,175,1071,-649,-2165,-1309
348,242,179,1007,-534,-2362,-1096
349,268,183,953,-288,-2475,-952
350,257,168,883,9,-2516,-895
351,231,141,818,263,-2467,-877
352,218,129,769,419,-2299,-842
353,215,111,718,449,-2049,-772
354,226,98,710,287,-1778,-670
355,245,91,686,-14,-1518,-586
356,239,52,701,-377,-1327,-516
357,226,40,713,-795,-1127,-413
358,222,48,719,-1260,-920,-270
359,237,42,747,-1506,-821,-114
360,245,33,762,-1288,-782,-26
361,265,38,752,-750,-792,-22
362,260,12,749,-100,-827,-57
363,244,-41,757,509,-817,-81
364,231,-92,756,917,-793,-98
365,200,-153,785,1001,-842,-159
366,180,-179,805,763,-866,-249
367,201,-209,804,316,-833,-319
368,222,-204,801,-219,-737,-364
369,224,-172,801,-752,-633,-368
370,222,-141,834,-1114,-495,-313
371,260,-109,866,-1188,-385,-274
372,289,-84,851,-967,-356,-299
373,310,-94,871,-586,-391,-375
374,316,-87,892,-172,-461,-461
375,332,-92,886,111,-545,-518
376,330,-108,875,201,-663,-565
377,325,-98,867,123,-739,-604
378,293,-119,862,-55,-711,-624
379,270,-145,890,-262,-614,-620
380,286,-132,903,-450,-426,-540
381,308,-131,920,-516,-276,-426
382,322,-127,957,-442,-233,-428
383,316,-125,979,-274,-258,-540
384,328,-119,976,-81,-303,-651
385,316,-133,990,13,-415,-762
386,299,-105,1007,41,-528,-768
387,299,-108,990,21,-612,-774
388,308,-103,983,-32,-676,-790
389,310,-100,952,-131,-708,-831
390,330,-88,929,-274,-723,-854
391,348,-67,899,-440,-750,-860
392,335,-54,863,-588,-788,-881
393,351,-36,858,-684,-786,-917
394,358,-4,841,-692,-723,-950
395,355,14,834,-633,-661,-971
396,363,23,846,-520,-622,-991
397,370,41,833,-387,-596,-1012
398,379,50,851,-239,-598,-999
399,375,55,874,-14,-667,-985
400,364,76,851,251,-717,-1000
401,363,61,858,457,-709,-997
402,381,71,838,554,-688,-956
403,390,75,841,509,-684,-903
404,409,82,846,359,-668,-850
405,415,111,813,171,-635,-819
406,423,123,814,-10,-584,-788
407,406,132,784,-157,-536,-713
408,406,136,801,-247,-479,-625
409,428,133,793,-256,-403,-577
410,429,115,791,-256,-354,-600
411,444,126,793,-282,-354,-622
412,442,133,811,-323,-377,-584
413,439,126,791,-381,-415,-530
414,429,133,781,-374,-424,-458
415,436,131,769,-293,-375,-401
416,447,135,737,-190,-295,-354
417,453,129,755,-108,-219,-340
418,451,116,764,-53,-127,-327
419,453,117,770,0,-18,-284
420,454,108,791,44,44,-268
421,442,116,806,68,52,-266
422,449,120,818,46,50,-266
423,460,124,819,-24,41,-239
424,457,111,796,-145,5,-184
425,476,103,773,-270,-16,-149
426,461,99,776,-344,-8,-161
427,453,102,758,-323,62,-170
428,443,106,778,-274,166,-159
429,447,98,806,-165,273,-116
430,465,81,816,-20,341,-71
431,470,68,844,107,371,-69
432,459,54,848,189,375,-104
433,452,49,885,224,361,-127
434,467,62,887,218,322,-133
435,458,57,884,142,257,-133
436,466,61,890,29,177,-83
437,467,50,877,-40,93,-59
438,441,37,877,-43,70,-69
439,443,36,858,-28,87,-90
440,449,46,842,-32,148,-116
441,443,52,838,-59,199,-125
442,449,41,835,-104,220,-94
443,443,46,855,-116,230,-73
444,440,36,870,-51,242,-104
445,442,44,884,25,232,-155
446,439,30,875,64,193,-188
447,448,41,874,44,162,-190
448,450,51,873,0,154,-188
449,433,65,865,-38,191,-211
450,443,82,873,-49,259,-213
451,443,92,902,-57,330,-194
452,445,96,922,-63,376,-165
453,453,108,929,-47,388,-161
454,444,110,940,3,365,-170
455,451,107,953,60,339,-155
456,459,104,958,78,300,-100
457,451,113,947,58,257,-57
458,443,113,973,44,214,-4
459,436,101,971,42,179,48
460,428,88,952,33,150,66
461,410,69,958,15,130,78
462,406,62,949,-20,134,85
463,416,58,942,-94,162,85
464,426,54,919,-198,183,85
465,416,52,941,-293,175,70
466,430,80,945,-321,171,72
467,425,87,934,-270,183,78
468,414,73,957,-161,154,99
469,411,56,978,-65,107,121
470,402,55,953,0,64,128
471,399,49,960,64,44,134
472,404,49,929,107,68,134
473,414,24,945,97,87,121
474,405,27,935,33,87,115
475,399,16,928,-42,83,107
476,415,22,945,-120,66,85
477,406,14,924,-178,56,46
478,404,21,938,-215,52,15
479,407,37,947,-190,83,-18
480,407,48,960,-127,109,-32
481,416,55,963,-38,95,15
482,418,42,978,37,56,60
483,412,34,954,64,3,85
484,404,28,933,54,-47,93
485,417,17,919,13,-67,76
486,422,6,900,-55,-81,46
487,414,8,873,-167,-81,37
488,418,39,875,-249,-65,37
489,414,49,859,-237,-14,42
490,401,35,855,-151,58,48
491,401,62,887,-51,162,103
492,415,49,908,-14,269,150
493,425,30,946,29,246,125
494,421,44,954,78,253,130
495,427,30,961,60,228,146
496,420,20,967,0,152,146
497,418,17,957,-26,80,134
498,423,0,948,-51,42,85
499,413,15,940,-73,7,80
500,406,15,923,-92,33,85
501,407,10,908,-116,68,85
502,411,17,915,-118,126,76
503,406,17,929,-112,199,68
504,395,18,949,-90,251,66
505,389,34,987,-96,261,70
506,404,27,972,-114,251,125
507,402,22,974,-51,205,160
508,418,7,972,21,146,146
509,415,17,989,82,82,42
510,416,20,972,80,-14,-40
511,405,20,966,41,-88,-77
512,397,37,956,-34,-129,-51
513,385,15,938,-102,-104,-12
514,391,17,931,-161,-75,21
515,401,5,930,-206,-45,21
516,408,-1,931,-229,-42,-6
517,412,29,932,-155,-86,-30
518,415,19,940,-202,-49,-16
519,407,47,948,-65,-88,-40
520,399,49,954,13,-22,-20
521,406,36,938,52,21,17
522,412,43,940,64,46,25
523,422,53,961,44,42,25
524,415,41,953,11,-14,25
525,407,49,949,13,-86,37
526,413,37,908,23,-137,64
527,407,19,894,37,-143,60
528,403,18,894,41,-122,29
529,398,10,897,21,-81,11
530,398,10,889,-38,-42,-12
531,398,18,888,-94,1,-18
532,406,33,925,-120,58,-6
533,409,32,923,-122,89,7
534,418,24,911,-112,91,9
535,421,31,915,-124,68,7
536,420,29,909,-133,15,21
537,418,33,900,-129,-36,9
538,400,21,879,-116,-75,-20
539,393,34,877,-100,-83,-28
540,392,16,856,-118,-53,-14
541,395,8,851,-131,-32,-18
542,400,2,827,-174,-8,-34
543,394,8,811,-235,3,-47
544,397,7,769,-295,1,-61
545,390,1,755,-301,19,-84
546,373,0,748,-313,44,-110
547,368,-16,722,-333,41,-127
548,376,-14,692,-381,-18,-157
549,368,-12,652,-493,-100,-198
550,363,-19,608,-622,-215,-239
551,361,-19,543,-774,-329,-266
552,355,14,465,-1006,-456,-292
553,327,34,380,-1252,-610,-278
554,298,42,297,-1538,-840,-215
555,269,69,196,-1711,-1042,-129
556,222,71,106,-1682,-1090,-4
557,175,64,-7,-1499,-1110,115
558,131,33,-82,-1147,-1073,150
559,106,31,-202,-770,-985,78
560,84,54,-337,-518,-786,-12
561,67,90,-479,-387,-522,-24
562,69,142,-658,-422,-206,15
563,48,186,-800,-545,140,58
564,-32,243,-957,-635,498,167
565,-162,264,-1064,-508,1078,396
566,-328,178,-1060,0,2109,705
567,-472,68,-962,839,3593,962
568,-603,-67,-658,1669,5375,933
569,-724,-164,-275,2140,7048,582
570,-828,-247,199,2195,8447,253
571,-843,-210,849,1951,9615,-211
572,-841,-146,1471,1568,10363,-559
573,-598,21,2048,1259,10175,-625
574,-413,245,2048,722,9003,-411
575,-247,341,2048,5,7027,265
576,-222,291,2048,-538,5017,1089
577,-276,108,2048,-633,3636,1585
578,-259,-79,2048,-239,2998,1601
579,-244,-189,2048,85,2861,1226
580,-253,-251,2048,220,2785,576
581,-190,-211,2048,361,2560,-51
582,-114,-90,2048,253,2312,-667
583,-34,110,2048,-81,2025,-1161
584,-38,326,2048,-676,1628,-1264
585,-42,547,2048,-1135,1156,-1034
586,15,726,2048,-1346,603,-674
587,89,965,2048,-1379,31,-415
588,150,1311,2048,-1381,-512,-301
589,208,1697,2048,-1397,-936,-124
590,285,2048,1873,-1450,-1262,343
591,370,2048,1501,-1655,-1708,1183
592,341,2048,1221,-1819,-2053,2300
593,124,2048,1076,-1573,-1950,3515
594,-110,2029,1011,-913,-1254,4716
595,-315,1649,1049,-83,-307,5800
596,-463,1277,1061,589,390,6572
597,-646,874,1109,1154,810,6966
598,-811,508,1235,1476,1158,7009
599,-894,196,1389,1078,1394,6830
600,-890,-92,1507,91,1320,6662
601,-879,-333,1566,-805,882,6531
602,-888,-535,1545,-1303,191,6349
603,-868,-709,1488,-1217,-604,6140
604,-820,-893,1406,-573,-1247,5933
605,-754,-1047,1260,259,-1698,5601
606,-671,-1140,1115,785,-1922,5087
607,-623,-1169,1012,908,-2026,4371
608,-578,-1131,926,873,-1926,3566
609,-542,-1028,838,818,-1600,2792
610,-515,-937,761,832,-1250,2158
611,-446,-884,668,910,-887,1701
612,-341,-832,625,1011,-481,1351
613,-262,-796,675,970,-86,1033
614,-204,-749,734,779,220,787
615,-171,-731,803,572,414,673
616,-131,-709,849,361,425,718
617,-117,-712,899,193,250,843
618,-82,-697,898,3,68,908
619,-66,-683,892,-208,-96,878
620,-54,-631,878,-278,-190,812
621,-46,-575,852,-249,-290,726
622,-61,-549,809,-167,-317,621
623,-49,-542,796,13,-227,529
624,-33,-538,764,226,-57,392
625,-38,-532,799,285,146,220
626,-30,-520,847,232,412,21
627,-17,-466,905,66,707,-198
628,4,-420,971,-182,882,-389
629,6,-347,1033,-407,882,-516
630,9,-283,1063,-583,693,-510
631,4,-247,1062,-729,435,-430
632,-27,-230,1052,-786,230,-368
633,-21,-233,1040,-735,177,-374
634,-26,-217,1032,-657,251,-469
635,-20,-175,1038,-659,410,-590
636,-43,-135,1028,-749,570,-713
637,-64,-87,1041,-833,671,-706
638,-71,-72,1067,-825,720,-649
639,-59,-50,1094,-672,695,-633
640,-53,-8,1106,-442,642,-663
641,-45,-4,1130,-186,505,-694
642,-56,12,1148,76,332,-717
643,-70,28,1148,271,189,-766
644,-76,20,1096,332,48,-801
645,-63,31,1056,308,-45,-778
646,-77,36,1035,265,-65,-750
647,-96,43,1026,271,15,-702
648,-113,73,1013,275,171,-672
649,-95,110,1013,240,375,-602
650,-85,143,1023,271,542,-467
651,-88,163,1033,369,593,-315
652,-97,159,1037,408,654,-225
653,-93,124,1088,408,759,-249
654,-70,116,1139,371,748,-319
655,-57,113,1158,228,568,-401
656,-69,105,1179,-30,277,-417
657,-90,112,1145,-313,-14,-352
658,-87,99,1121,-549,-170,-231
659,-98,73,1063,-668,-178,-141
660,-100,61,1052,-678,-96,-100
661,-104,58,1075,-588,-20,-96
662,-105,53,1083,-377,27,-112
663,-104,54,1072,-129,13,-141
664,-114,18,1061,66,-53,-168
665,-112,19,1067,166,-112,-196
666,-103,23,1049,126,-135,-231
667,-105,16,1039,-24,-161,-219
668,-109,27,1047,-231,-202,-155
669,-101,16,1025,-426,-266,-55
670,-100,12,1002,-569,-297,7
671,-96,-5,970,-610,-333,54
672,-101,-8,948,-598,-325,54
673,-112,-3,931,-534,-217,17
674,-109,11,953,-399,-51,0
675,-113,17,994,-243,41,21
676,-102,16,1010,-83,27,64
677,-83,33,1027,83,-38,68
678,-88,40,1002,187,-114,31
679,-97,38,1013,175,-194,39
680,-107,38,1008,123,-239,150
681,-100,15,1017,109,-239,283
682,-85,-5,1028,113,-217,378
683,-71,-34,1044,62,-196,375
684,-74,-59,1038,-51,-196,322
685,-86,-57,1046,-159,-182,257
686,-94,-50,1050,-227,-167,250
687,-81,-33,1074,-237,-147,257
688,-74,-34,1064,-192,-114,279
689,-59,-23,1079,-98,-79,279
690,-55,-26,1089,-10,-67,246
691,-55,-25,1087,35,-55,189
692,-60,-33,1083,44,-114,158
693,-72,-54,1100,5,-151,125
694,-83,-65,1091,-81,-180,128
695,-71,-71,1098,-170,-202,111
696,-64,-60,1107,-237,-221,91
697,-46,-56,1104,-284,-213,50
698,-52,-65,1129,-323,-250,-14
699,-63,-61,1137,-356,-301,-69
700,-56,-73,1140,-377,-338,-94
701,-58,-56,1157,-372,-346,-96
702,-29,-67,1175,-374,-321,-104
703,-20,-89,1201,-403,-293,-139
704,-24,-78,1245,-418,-280,-110
705,-29,-85,1271,-461,-327,-8
706,-26,-73,1296,-530,-385,87
707,-20,-79,1307,-588,-440,156
708,-6,-106,1315,-624,-524,210
709,-12,-128,1317,-583,-661,189
710,-22,-152,1306,-545,-850,154
711,-15,-169,1294,-516,-1096,107
712,-15,-178,1264,-456,-1293,52
713,-38,-200,1233,-395,-1368,-8
714,-35,-222,1200,-360,-1374,-83
715,-26,-215,1190,-329,-1334,-165
716,-24,-231,1157,-272,-1264,-274
717,-19,-215,1159,-221,-1184,-417
718,-5,-198,1174,-190,-1108,-579
719,-9,-171,1192,-211,-1057,-698
720,17,-130,1190,-260,-1071,-731
721,32,-131,1187,-307,-1159,-780
722,35,-112,1189,-288,-1272,-852
723,22,-96,1163,-237,-1417,-864
724,4,-103,1138,-161,-1534,-831
725,14,-112,1097,-84,-1602,-834
726,22,-123,1066,-73,-1647,-817
727,23,-130,1062,-106,-1647,-807
728,41,-132,1023,-153,-1577,-838
729,49,-134,1015,-190,-1508,-877
730,46,-128,1022,-258,-1440,-936
731,53,-109,1034,-323,-1377,-987
732,66,-93,1023,-340,-1319,-1016
733,61,-80,1027,-290,-1299,-1020
734,86,-68,1039,-141,-1307,-1028
735,94,-35,1042,37,-1348,-1059
736,104,-41,1019,154,-1440,-1081
737,100,-36,1010,152,-1555,-1034
738,108,-59,977,83,-1643,-954
739,110,-71,962,-2,-1625,-903
740,122,-77,942,-69,-1549,-883
741,121,-81,945,-118,-1440,-893
742,130,-62,962,-149,-1374,-928
743,153,-40,974,-159,-1348,-942
744,177,-26,982,-53,-1383,-942
745,170,-22,984,105,-1459,-971
746,172,-27,985,238,-1547,-991
747,194,-18,984,326,-1633,-1008
748,185,-17,958,337,-1721,-1022
749,191,-17,926,255,-1741,-1012
750,194,-16,911,156,-1696,-971
751,200,-15,900,68,-1612,-924
752,222,-4,874,-2,-1510,-895
753,235,0,855,-61,-1405,-895
754,230,5,886,-96,-1327,-895
755,236,7,908,-104,-1270,-856
756,263,21,916,-118,-1215,-819
757,268,40,924,-94,-1188,-799
758,291,45,927,-53,-1194,-788
759,288,55,920,-16,-1249,-772
760,305,51,936,-4,-1293,-741
761,289,43,905,0,-1352,-729
762,302,30,880,1,-1397,-700
763,297,24,847,-71,-1385,-680
764,299,1,831,-188,-1329,-694
765,313,8,813,-331,-1223,-655
766,322,12,824,-430,-1092,-620
767,338,27,833,-471,-991,-614
768,352,25,857,-428,-932,-610
769,354,34,867,-329,-917,-633
770,351,40,878,-247,-920,-645
771,364,41,886,-176,-942,-616
772,368,39,891,-73,-993,-602
773,378,48,877,62,-1022,-583
774,382,34,846,136,-1053,-588
775,383,11,819,156,-1073,-600
776,371,1,834,78,-1026,-624
777,381,-3,818,-63,-932,-651
778,382,13,824,-213,-864,-641
779,382,25,833,-319,-821,-631
780,407,34,831,-319,-795,-627
781,413,51,822,-215,-770,-653
782,414,56,820,-71,-768,-674
783,436,69,829,37,-778,-645
784,431,56,809,89,-799,-625
785,419,54,797,80,-819,-618
786,437,46,795,23,-778,-604
787,429,48,785,-61,-706,-590
788,434,52,772,-159,-629,-579
789,448,41,773,-233,-551,-575
790,463,54,776,-286,-483,-583
791,483,62,795,-321,-448,-590
792,479,72,815,-299,-430,-586
793,463,84,833,-186,-397,-579
794,468,84,830,-24,-354,-561
795,468,82,860,134,-333,-545
796,474,65,866,212,-370,-524
797,494,60,837,208,-448,-526
798,491,49,832,162,-555,-532
799,474,63,791,62,-581,-526
800,479,55,797,-65,-528,-514
801,497,59,782,-178,-432,-506
802,487,67,803,-243,-360,-516
803,494,84,796,-252,-295,-522
804,502,51,798,-268,-250,-499
805,500,62,800,-319,-202,-489
806,504,68,825,-403,-174,-475
807,517,75,848,-393,-180,-473
808,510,90,840,-282,-213,-502
809,525,82,844,-157,-262,-500
810,519,78,842,-38,-288,-465
811,518,80,826,42,-288,-448
812,537,76,806,41,-256,-434
813,521,71,821,-30,-229,-459
814,510,68,836,-153,-174,-467
815,517,72,832,-290,-108,-432
816,526,68,822,-426,-73,-387
817,527,81,838,-583,-65,-346
818,533,86,837,-676,-57,-307
819,542,89,861,-596,-81,-293
820,536,87,860,-399,-122,-315
821,525,88,867,-172,-206,-358
822,540,79,863,29,-295,-383
823,537,69,838,156,-331,-389
824,530,63,817,171,-323,-391
825,528,62,818,117,-268,-375
826,531,68,820,-10,-168,-364
827,550,77,841,-127,-86,-336
828,533,71,871,-190,-43,-321
829,526,86,877,-219,-10,-313
830,538,75,878,-252,19,-297
831,540,71,879,-352,-20,-278
832,534,69,891,-461,-98,-247
833,542,63,894,-520,-161,-233
834,535,53,858,-534,-206,-237
835,525,45,861,-540,-211,-260
836,509,38,839,-538,-174,-299
837,518,30,842,-553,-110,-331
838,524,36,845,-573,-42,-338
839,527,50,848,-596,-18,-333
840,524,56,840,-618,11,-319
841,511,64,850,-620,83,-327
842,514,61,885,-596,187,-321
843,550,65,908,-516,230,-344
844,533,72,941,-417,156,-411
845,519,71,942,-413,-2,-424
846,531,71,916,-461,-161,-366
847,538,66,878,-518,-293,-309
848,510,62,850,-516,-350,-325
849,516,66,838,-465,-282,-370
850,531,73,847,-389,-176,-403
851,527,85,866,-295,-102,-395
852,551,100,872,-211,-57,-379
853,541,94,869,-168,-30,-395
854,537,101,908,-151,-26,-389
855,550,103,906,-192,-26,-350
856,536,102,932,-276,-69,-274
857,554,107,920,-348,-149,-206
858,544,103,950,-409,-231,-182
859,536,97,916,-426,-297,-174
860,539,77,890,-415,-362,-141
861,529,68,849,-411,-424,-129
862,540,56,834,-405,-440,-155
863,540,54,830,-409,-417,-192
864,534,70,827,-401,-356,-211
865,520,66,826,-375,-295,-194
866,533,69,846,-311,-249,-176
867,543,72,850,-194,-239,-202
868,559,86,859,-137,-276,-245
869,562,77,850,-202,-381,-219
870,559,78,817,-350,-497,-168
871,551,75,785,-534,-577,-147
872,533,64,757,-633,-571,-141
873,546,75,743,-653,-508,-145
874,548,75,709,-643,-442,-131
875,535,70,687,-575,-393,-135
876,543,69,700,-458,-331,-143
877,548,50,704,-340,-262,-157
878,562,44,686,-297,-235,-178
879,563,35,683,-321,-229,-209
880,555,50,663,-344,-213,-233
881,551,48,660,-333,-208,-229
882,546,39,634,-334,-243,-213
883,545,9,600,-368,-299,-215
884,514,-7,558,-495,-405,-235
885,468,-42,493,-704,-532,-264
886,421,-68,426,-967,-694,-295
887,451,-80,330,-1280,-874,-280
888,466,-37,227,-1631,-987,-270
889,460,-13,150,-1868,-1038,-237
890,440,28,91,-1825,-969,-282
891,418,34,37,-1448,-641,-362
892,390,43,-3,-823,-151,-452
893,342,35,-20,-106,312,-549
894,245,4,-25,523,734,-661
895,159,-27,-33,917,1058,-717
896,82,-63,-76,970,1226,-653
897,27,-113,-131,615,1291,-497
898,27,-111,-186,-61,1228,-317
899,44,-102,-266,-811,1044,-131
900,57,-50,-355,-1647,787,11
901,43,6,-445,-2329,595,85
902,5,50,-522,-2442,601,58
903,-94,99,-626,-1877,966,44
904,-261,138,-689,-737,1812,33
905,-476,149,-681,822,3126,-94
906,-585,95,-597,2347,4855,-280
907,-673,10,-422,3261,6751,-399
908,-698,-15,-135,3273,8517,-305
909,-697,13,274,2699,10009,-208
910,-723,62,793,2542,11445,-258
911,-733,192,1472,3041,12503,-678
912,-689,288,2048,3822,12640,-1077
913,-510,298,2048,4253,11599,-1188
914,-334,307,2048,3929,9607,-1127
915,-280,253,2048,2751,7250,-899
916,-306,189,2048,1037,5267,-555
917,-265,96,2048,-1047,3998,-67
918,-211,39,2048,-2889,3167,322
919,-165,-25,2048,-3756,2468,386
920,-104,-18,2048,-3526,1708,52
921,-88,111,2048,-2575,1109,-647
922,-81,282,2048,-1538,617,-1362
923,1,459,2048,-1108,27,-1690
924,72,707,2048,-1184,-446,-1805
925,138,987,2048,-1473,-604,-1862
926,218,1381,2048,-1698,-618,-1772
927,321,1896,2048,-1649,-588,-1569
928,357,2048,1984,-1350,-672,-1104
929,294,2048,1689,-1133,-1127,-137
930,167,2048,1478,-1559,-1760,1605
931,18,2048,1197,-1864,-1918,3464
932,-132,2048,969,-2151,-1905,5492
933,-300,2048,860,-2481,-1461,7431
934,-490,1620,783,-2528,-838,8677
935,-635,1202,866,-2077,-282,9250
936,-703,854,1047,-776,277,9126
937,-769,609,1228,982,957,8396
938,-869,333,1499,2566,1361,7462
939,-928,53,1719,3388,1212,6828
940,-970,-232,1776,3171,605,6673
941,-975,-558,1788,2300,-260,6849
942,-909,-860,1746,1154,-1042,7015
943,-805,-1162,1652,154,-1618,7011
944,-676,-1375,1568,-334,-1961,6775
945,-518,-1488,1445,-272,-2155,6119
946,-404,-1441,1277,-73,-2295,5019
947,-359,-1254,1128,72,-2573,3644
948,-420,-1059,982,345,-2954,2423
949,-400,-876,811,681,-3081,1642
950,-340,-708,689,933,-2809,1269
951,-249,-583,598,1128,-2233,1105
952,-200,-458,580,1187,-1532,994
953,-150,-379,577,1046,-940,988
954,-123,-345,576,865,-502,1185
955,-112,-350,587,697,-192,1484
956,-113,-411,622,607,-16,1792
957,-110,-475,647,554,91,1953
958,-78,-511,682,425,207,1861
959,-45,-500,729,156,361,1714
960,-36,-476,738,-61,431,1658
961,-23,-457,756,-155,373,1611
962,-25,-434,767,-137,312,1460
963,-10,-412,775,-63,287,1289
964,31,-389,800,66,326,1140
965,48,-370,800,173,361,945
966,47,-332,826,140,460,710
967,31,-281,883,-38,621,562
968,33,-251,922,-348,781,560
969,32,-237,963,-696,835,693
970,50,-234,963,-993,748,904
971,69,-241,971,-1139,623,1000
972,69,-227,959,-1145,539,916
973,49,-244,977,-997,474,667
974,27,-265,993,-708,435,437
975,44,-260,1001,-329,449,261
976,68,-243,1032,-55,544,78
977,93,-212,1037,60,611,-67
978,77,-176,1071,82,654,-198
979,55,-149,1115,130,744,-303
980,48,-141,1161,228,796,-348
981,65,-121,1174,257,712,-334
982,76,-108,1168,185,507,-323
983,84,-94,1150,21,257,-323
984,60,-75,1102,-120,148,-383
985,53,-48,1073,-239,119,-440
986,58,-31,1060,-340,187,-469
987,42,-7,1056,-372,259,-475
988,27,-9,1058,-321,302,-442
989,33,-8,1053,-186,337,-452
990,46,-14,1068,-51,345,-512
991,55,-7,1074,27,296,-561
992,62,7,1102,82,289,-639
993,60,30,1101,136,300,-706
994,65,43,1117,140,265,-694
995,58,58,1115,85,146,-608
996,52,63,1101,-12,0,-508
997,45,53,1077,-86,-131,-434
998,56,48,1056,-143,-206,-407
999,65,50,1050,-165,-163,-426
1000,49,51,1060,-112,-49,-461
1001,43,37,1096,-28,44,-469
1002,45,30,1117,3,93,-479
1003,45,17,1122,-32,119,-500
1004,48,24,1152,-67,83,-512
1005,50,29,1156,-71,9,-512
1006,44,42,1158,-38,-116,-514
1007,40,41,1136,-28,-293,-469
1008,28,23,1098,-147,-475,-375
1009,22,5,1052,-288,-522,-336
1010,-3,10,1008,-405,-430,-360
1011,9,11,1007,-502,-309,-325
1012,22,19,993,-555,-266,-293
1013,9,9,987,-516,-268,-315
1014,22,18,1000,-424,-231,-366
1015,30,26,1014,-334,-200,-409
1016,32,85,992,-286,-235,-424
1017,34,53,1001,-288,-206,-440
1018,19,99,963,-284,-290,-362
1019,19,102,937,-235,-338,-286
1020,19,104,911,-135,-370,-252
1021,17,92,886,-49,-327,-231
1022,15,85,872,-8,-266,-213
1023,24,64,889,7,-209,-229
1024,21,67,894,5,-98,-270
1025,3,59,895,-79,1,-249
1026,-8,46,938,-215,78,-157
1027,15,26,978,-307,80,-108
1028,44,41,960,-383,41,-116
1029,29,45,933,-477,-34,-137
1030,4,59,922,-500,-94,-161
1031,9,58,925,-360,-30,-168
1032,45,59,900,-149,97,-202
1033,43,59,929,3,185,-286
1034,43,62,982,99,232,-323
1035,45,79,999,85,289,-307
1036,53,78,1004,-20,308,-227
1037,56,80,1055,-88,308,-129
1038,76,64,1066,-131,251,-59
1039,66,48,1069,-200,128,17
1040,76,20,1056,-260,-8,66
1041,55,-3,1059,-295,-57,48
1042,40,-19,1064,-360,7,0
1043,57,-11,1106,-403,105,-18
1044,62,-14,1110,-374,152,-47
1045,63,-18,1137,-274,130,-88
1046,58,-20,1141,-157,66,-110
1047,58,-14,1135,-75,7,-135
1048,58,-13,1137,-28,-49,-163
1049,59,-17,1112,-14,-90,-172
1050,57,-19,1097,-57,-90,-168
1051,64,-6,1103,-127,-81,-149
1052,63,-13,1100,-198,-100,-129
1053,55,-13,1091,-256,-143,-114
1054,56,-29,1107,-254,-155,-120
1055,67,-32,1100,-180,-155,-116
1056,85,-40,1113,-83,-200,-135
1057,80,-50,1108,-38,-245,-202
1058,65,-58,1119,-30,-272,-241
1059,69,-54,1118,-18,-270,-274
1060,70,-33,1112,-47,-237,-297
1061,86,-39,1107,-141,-272,-274
1062,70,-21,1103,-286,-356,-229
1063,76,-22,1091,-403,-405,-190
1064,69,-31,1084,-432,-411,-161
1065,74,-40,1075,-387,-401,-135
1066,82,-50,1080,-319,-381,-141
1067,86,-63,1086,-206,-366,-184
1068,93,-71,1104,-94,-374,-247
1069,74,-98,1095,-28,-379,-329
1070,76,-76,1114,-36,-397,-362
1071,78,-81,1105,-106,-422,-364
1072,78,-61,1079,-168,-436,-370
1073,81,-46,1087,-163,-426,-385
1074,98,-25,1094,-125,-424,-383
1075,114,-23,1093,-71,-444,-375
1076,100,-32,1077,-59,-534,-360
1077,91,-49,1068,-94,-629,-336
1078,87,-55,1055,-149,-676,-334
1079,85,-63,1046,-209,-672,-366
1080,94,-70,1057,-295,-641,-426
1081,91,-60,1043,-360,-614,-454
1082,107,-58,1031,-391,-635,-454
1083,100,-53,1034,-362,-678,-477
1084,82,-37,1009,-293,-680,-518
1085,94,-46,986,-245,-672,-520
1086,94,-43,982,-227,-670,-504
1087,85,-40,991,-204,-676,-493
1088,96,-36,964,-184,-696,-495
1089,122,-27,959,-180,-737,-508
1090,129,-19,943,-168,-690,-528
1091,146,-12,928,-143,-602,-530
1092,140,-16,944,-122,-499,-516
1093,140,-28,976,-63,-405,-499
1094,137,-35,998,23,-348,-487
1095,152,-49,1027,115,-317,-520
1096,129,-58,1029,144,-278,-557
1097,142,-66,1054,52,-256,-545
1098,140,-79,1092,-63,-270,-522
1099,132,-77,1093,-167,-321,-481
1100,140,-101,1105,-241,-411,-450
1101,149,-105,1085,-305,-493,-471
1102,137,-131,1079,-374,-536,-532
1103,150,-141,1081,-395,-547,-584
1104,138,-130,1094,-350,-534,-657
1105,152,-120,1093,-243,-508,-745
1106,163,-115,1086,-124,-495,-844
1107,159,-98,1098,-4,-518,-940
1108,152,-92,1098,74,-547,-995
1109,171,-99,1081,66,-573,-1034
1110,181,-91,1102,41,-579,-1061
1111,164,-99,1100,-2,-592,-1077
1112,152,-121,1104,-45,-571,-1079
1113,158,-141,1094,-153,-508,-1084
1114,162,-137,1110,-397,-422,-1104
1115,160,-128,1105,-727,-338,-1159
1116,158,-103,1140,-1081,-249,-1186
1117,167,-75,1128,-1397,-252,-1180
1118,179,-54,1132,-1545,-354,-1163
1119,172,-28,1149,-1436,-495,-1157
1120,179,-35,1164,-1098,-616,-1229
1121,193,-24,1164,-600,-829,-1346
1122,187,-13,1104,-133,-985,-1473
1123,201,-9,1076,160,-1124,-1598
1124,179,3,1056,359,-1209,-1653
1125,172,13,1031,320,-1219,-1581
1126,188,7,1012,89,-1163,-1440
1127,202,8,994,-176,-1069,-1301
1128,227,21,1006,-417,-1006,-1190
1129,224,9,993,-602,-987,-1155
1130,210,17,1002,-786,-932,-1133
1131,220,39,1004,-983,-918,-1067
1132,246,45,1024,-1032,-934,-1008
1133,261,66,1014,-911,-1000,-1000
1134,262,68,999,-700,-1088,-1020
1135,275,73,1006,-454,-1143,-1036
1136,290,70,986,-168,-1168,-1036
1137,296,62,969,56,-1182,-1020
1138,291,52,967,101,-1204,-973
1139,284,49,949,-22,-1208,-875
1140,290,42,914,-250,-1188,-741
1141,293,27,907,-510,-1133,-624
1142,288,21,884,-721,-1030,-559
1143,304,24,877,-825,-940,-493
1144,309,16,876,-805,-891,-444
1145,310,7,868,-700,-842,-469
1146,306,6,862,-583,-825,-475
1147,325,17,853,-444,-844,-485
1148,345,11,864,-280,-852,-518
1149,338,10,832,-106,-874,-542
1150,312,4,848,27,-907,-534
1151,330,-4,848,52,-813,-524
1152,340,8,833,-12,-696,-508
1153,322,-6,864,-141,-627,-463
1154,334,-4,861,-272,-549,-399
1155,340,-8,884,-331,-458,-336
1156,338,-27,883,-354,-415,-305
1157,361,-26,895,-370,-432,-338
1158,354,-25,888,-389,-475,-409
1159,368,-21,903,-387,-524,-454
1160,384,-16,884,-331,-551,-473
1161,379,-5,897,-204,-573,-534
1162,375,-13,887,-131,-592,-583
1163,373,-8,882,-124,-569,-600
1164,377,-5,892,-170,-579,-569
1165,387,-12,867,-270,-596,-549
1166,404,-4,859,-374,-629,-524
1167,407,11,842,-399,-649,-514
1168,398,15,818,-374,-635,-522
1169,394,11,829,-317,-577,-528
1170,392,8,835,-225,-499,-534
1171,405,16,852,-116,-417,-524
1172,408,13,861,-55,-360,-520
1173,418,18,877,-51,-360,-499
1174,433,20,891,-63,-397,-485
1175,446,41,887,-135,-458,-467
1176,459,49,876,-190,-454,-454
1177,442,39,865,-167,-469,-407
1178,453,43,856,-180,-491,-358
1179,439,9,841,-258,-514,-317
1180,413,-2,826,-350,-514,-323
1181,426,-16,796,-432,-491,-323
1182,430,-31,789,-497,-434,-331
1183,440,-44,804,-553,-352,-370
1184,439,-44,816,-579,-254,-407
1185,433,-27,821,-600,-184,-407
1186,440,-8,836,-606,-149,-375
1187,458,-11,855,-543,-155,-348
1188,477,-9,867,-438,-188,-331
1189,485,-32,842,-383,-211,-297
1190,477,-38,848,-379,-278,-325
1191,474,-52,833,-399,-331,-352
1192,464,-38,824,-348,-329,-391
1193,456,-33,826,-221,-247,-405
1194,481,-43,849,-100,-147,-403
1195,478,-46,869,-26,-88,-420
1196,474,-53,887,-6,-112,-452
1197,482,-18,917,-106,-145,-506
1198,483,-26,909,-47,-133,-497
1199,478,-5,936,-182,-161,-475
1200,483,8,925,-280,-196,-432
1201,489,9,912,-342,-225,-377
1202,487,22,929,-338,-254,-358
1203,496,23,906,-276,-229,-333
1204,497,-3,921,-170,-247,-356
1205,482,-13,934,-77,-315,-387
1206,493,-18,922,-75,-342,-391
1207,502,-16,892,-122,-368,-393
1208,509,-8,895,-163,-331,-393
1209,503,7,909,-196,-258,-391
1210,477,-2,924,-208,-209,-321
1211,483,-4,944,-184,-180,-202
1212,463,-10,925,-118,-127,-124
1213,494,-13,921,-77,-157,-71
1214,509,-29,910,7,-151,-106
1215,493,-6,904,101,-110,-186
1216,502,14,901,101,-110,-208
1217,493,18,897,31,-161,-204
1218,501,-6,883,-71,-249,-157
1219,503,-5,874,-127,-333,-184
1220,489,-8,880,-143,-368,-262
1221,485,-7,860,-129,-377,-336
1222,494,-18,846,-168,-424,-372
1223,511,-8,843,-288,-504,-381
1224,504,1,824,-444,-559,-393
1225,508,18,818,-540,-590,-379
1226,499,33,796,-530,-553,-375
1227,520,45,815,-440,-461,-364
1228,518,66,817,-311,-350,-383
1229,517,77,850,-172,-260,-385
1230,527,82,869,-112,-264,-319
1231,550,72,869,-159,-377,-229
1232,537,39,824,-295,-532,-163
1233,542,13,786,-461,-661,-124
1234,553,35,767,-584,-680,-110
1235,554,45,743,-633,-610,-102
1236,539,51,750,-542,-461,-104
1237,533,47,717,-364,-286,-108
1238,536,25,737,-299,-190,-57
1239,534,12,747,-290,-96,-6
1240,534,9,770,-280,-20,35
1241,533,-7,787,-231,21,33
1242,524,-13,791,-211,33,39
1243,521,-7,777,-266,-6,68
1244,549,-17,738,-360,-106,89
1245,539,-28,703,-483,-204,68
1246,521,-9,683,-565,-258,35
1247,519,-19,644,-604,-260,39
1248,514,-7,629,-565,-170,35
1249,521,8,606,-397,-51,17
1250,497,6,623,-157,85,-32
1251,485,7,624,66,185,-67
1252,472,-9,613,125,222,-77
1253,439,-19,605,11,167,-94
1254,418,-47,539,-254,27,-131
1255,371,-59,451,-622,-153,-143
1256,363,-86,351,-1133,-397,-108
1257,370,-80,224,-1829,-637,-36
1258,348,-35,95,-2583,-823,17
1259,333,0,8,-3077,-997,52
1260,315,52,-83,-3233,-1206,25
1261,257,91,-166,-3018,-1319,-6
1262,200,143,-246,-2432,-1063,-8
1263,138,154,-291,-1758,-625,46
1264,48,117,-327,-1071,-92,121
1265,-7,84,-333,-454,539,240
1266,-60,45,-331,-143,1216,322
1267,-115,17,-348,-118,1818,396
1268,-160,38,-382,-268,2326,457
1269,-204,112,-423,-557,2679,460
1270,-261,138,-512,-817,2722,615
1271,-352,136,-600,-870,2519,929
1272,-442,122,-736,-481,2355,1357
1273,-556,63,-904,464,2699,1666
1274,-718,-52,-953,1835,4046,1546
1275,-890,-168,-745,3373,6490,1005
1276,-1057,-258,-319,4552,9529,253
1277,-969,-255,216,4861,12265,-256
1278,-1033,-82,815,4787,14775,-790
1279,-1124,23,1762,4855,16042,-1770
1280,-828,341,2048,4541,15857,-2563
1281,-591,515,2048,3601,14466,-2366
1282,-338,533,2048,2177,10927,-1002
1283,-287,498,2048,894,6642,78
1284,-285,322,2048,64,3539,628
1285,-261,195,2048,-731,1783,873
1286,-156,167,2048,-1538,810,994
1287,-136,165,2048,-2225,320,1000
1288,-160,205,2048,-2745,83,910
1289,-177,280,2048,-2868,83,667
1290,-173,372,2048,-2581,134,412
1291,-152,493,2048,-2180,19,224
1292,-139,680,2048,-1797,-280,85
1293,-89,897,2048,-1653,-872,58
1294,-28,1162,2048,-1700,-1672,322
1295,24,1460,2014,-1823,-2454,839
1296,59,1714,1688,-1680,-3135,1416
1297,75,1898,1334,-1067,-3510,2021
1298,5,1892,1078,23,-3385,2671
1299,-136,1714,915,1390,-2793,3425
1300,-286,1568,888,2400,-1792,4179
1301,-467,1344,890,2652,-778,4917
1302,-552,1128,891,2171,-135,5757
1303,-589,935,866,1332,132,6630
1304,-679,726,839,517,64,7332
1305,-792,530,869,117,-83,7720
1306,-887,330,944,212,-135,7886
1307,-941,117,987,468,1,7900
1308,-994,-83,998,550,240,7822
1309,-1015,-346,1024,486,447,7794
1310,-1010,-602,1088,314,593,7781
1311,-990,-817,1120,52,576,7654
1312,-931,-1010,1157,-75,169,7232
1313,-867,-1169,1124,148,-311,6544
1314,-748,-1273,1090,664,-727,5642
1315,-630,-1308,1048,1173,-1014,4546
1316,-512,-1319,977,1275,-942,3492
1317,-426,-1252,967,1009,-754,2658
1318,-368,-1151,958,566,-590,1910
1319,-373,-993,950,140,-463,1351
1320,-359,-862,933,-51,-424,1177
1321,-332,-782,907,68,-463,1222
1322,-260,-727,839,345,-536,1287
1323,-172,-694,770,521,-592,1292
1324,-143,-676,704,480,-561,1216
1325,-146,-646,699,337,-350,1062
1326,-126,-581,726,207,17,939
1327,-127,-565,792,95,404,890
1328,-94,-544,872,48,673,843
1329,-40,-538,957,-14,830,720
1330,-6,-526,1028,-153,765,542
1331,-30,-465,1096,-333,480,375
1332,-67,-416,1091,-432,78,343
1333,-70,-434,1073,-385,-194,414
1334,-40,-449,1057,-120,-258,378
1335,-32,-448,1060,234,-182,142
1336,-51,-452,1057,455,-32,-133
1337,-68,-445,1060,464,107,-379
1338,-50,-409,1079,257,185,-553
1339,-23,-342,1090,-75,226,-702
1340,-32,-266,1090,-418,208,-807
1341,-42,-185,1099,-733,162,-883
1342,-33,-111,1087,-954,140,-881
1343,-19,-49,1064,-971,132,-762
1344,-19,-31,1079,-809,123,-735
1345,-28,-42,1079,-479,136,-756
1346,-29,-66,1072,-55,173,-803
1347,-27,-82,1091,306,265,-954
1348,-18,-51,1079,447,328,-1145
1349,-18,0,1085,386,349,-1245
1350,-27,36,1123,310,289,-1227
1351,-33,64,1168,332,203,-1172
1352,-36,70,1170,365,78,-1125
1353,-35,90,1157,376,-83,-1079
1354,-30,148,1117,333,-307,-1081
1355,-47,173,1021,259,-452,-1081
1356,-62,155,962,156,-530,-977
1357,-68,140,936,126,-458,-864
1358,-61,135,928,197,-241,-803
1359,-67,129,957,244,-51,-797
1360,-26,145,1006,195,0,-801
1361,-9,186,1011,5,-14,-807
1362,-34,216,1023,-184,-94,-756
1363,-36,221,1047,-325,-200,-657
1364,-18,221,1042,-327,-299,-514
1365,-26,195,1048,-297,-428,-331
1366,-40,160,1029,-200,-506,-186
1367,-55,97,1048,23,-452,-118
1368,-40,50,1022,230,-354,-114
1369,-28,39,1020,226,-319,-186
1370,-46,22,993,33,-344,-329
1371,-59,56,966,-196,-356,-413
1372,-52,73,938,-356,-292,-407
1373,-49,97,948,-446,-200,-372
1374,-59,100,960,-516,-118,-342
1375,-61,130,990,-510,-40,-307
1376,-51,135,1009,-403,-2,-278
1377,-40,126,1033,-190,-57,-217
1378,-36,98,1030,3,-125,-157
1379,-30,55,1003,93,-161,-133
1380,-33,55,990,91,-174,-163
1381,-41,55,964,19,-170,-196
1382,-58,63,944,-122,-145,-190
1383,-68,53,925,-233,-100,-127
1384,-58,38,923,-274,1,-67
1385,-36,31,926,-274,123,-42
1386,-35,22,986,-284,205,-98
1387,-23,35,1056,-297,251,-151
1388,-21,68,1105,-329,277,-137
1389,-22,38,1125,-303,218,-77
1390,-19,17,1168,-153,126,-22
1391,-8,-3,1150,-30,54,-4
1392,10,8,1132,-53,-42,-69
1393,-20,16,1067,-245,-213,-108
1394,-40,23,1033,-428,-366,-53
1395,-51,12,1019,-444,-342,-16
1396,-23,-5,982,-389,-186,-14
1397,-9,-12,983,-385,-49,-43
1398,-26,-4,1009,-434,37,-98
1399,-43,-11,1034,-434,115,-127
1400,-26,-37,1098,-295,166,-125
1401,-10,-65,1111,-102,158,-137
1402,-11,-81,1146,66,99,-204
1403,-11,-82,1169,154,5,-311
1404,-20,-83,1194,152,-81,-391
1405,-7,-54,1158,76,-190,-422
1406,-6,-35,1127,-86,-379,-389
1407,-13,-53,1085,-299,-579,-313
1408,-38,-72,1050,-395,-647,-313
1409,-24,-58,1008,-327,-571,-362
1410,-24,-62,1012,-208,-418,-428
1411,7,-53,1029,-112,-260,-538
1412,4,-52,1072,-73,-161,-643
1413,19,-45,1101,-53,-153,-655
1414,16,-42,1151,-42,-161,-625
1415,22,-44,1176,19,-165,-627
1416,47,-51,1210,101,-184,-641
1417,49,-41,1227,117,-260,-645
1418,43,-35,1220,21,-370,-657
1419,40,-21,1195,-165,-475,-575
1420,33,-11,1180,-364,-627,-405
1421,35,-33,1138,-524,-713,-282
1422,33,-85,1101,-600,-715,-295
1423,32,-96,1106,-579,-672,-358
1424,36,-102,1124,-473,-588,-434
1425,49,-109,1139,-323,-497,-563
1426,58,-97,1179,-235,-477,-659
1427,38,-76,1199,-227,-575,-711
1428,31,-61,1177,-262,-704,-737
1429,45,-50,1157,-262,-829,-756
1430,26,-45,1137,-217,-975,-764
1431,19,-67,1098,-153,-1053,-776
1432,34,-46,1067,-73,-1004,-803
1433,24,-48,1052,-40,-948,-838
1434,18,-58,1058,-61,-915,-848
1435,43,-47,1079,-61,-889,-858
1436,68,-23,1072,-88,-889,-895
1437,57,-25,1062,-194,-973,-905
1438,52,-20,1060,-290,-1081,-866
1439,62,-11,1032,-311,-1106,-864
1440,78,-10,1004,-295,-1077,-891
1441,74,-10,992,-297,-1055,-924
1442,64,6,994,-278,-993,-934
1443,69,30,1002,-206,-920,-909
1444,87,46,1016,-137,-889,-877
1445,92,47,1002,-73,-889,-819
1446,92,34,1019,-40,-915,-790
1447,96,18,996,-40,-909,-790
1448,99,11,999,-100,-905,-776
1449,110,12,971,-192,-913,-760
1450,116,18,964,-270,-928,-758
1451,102,15,960,-282,-901,-750
1452,108,-8,958,-223,-846,-719
1453,118,-14,975,-153,-795,-723
1454,112,-17,989,-122,-790,-764
1455,102,-38,1007,-124,-786,-793
1456,116,-45,984,-139,-756,-784
1457,150,-19,996,-182,-713,-756
1458,161,-7,1003,-217,-719,-754
1459,169,10,1020,-198,-756,-790
1460,158,2,1007,-96,-754,-848
1461,153,24,1023,54,-735,-848
1462,178,14,1030,173,-723,-840
1463,188,-4,1031,169,-741,-856
1464,187,-5,1033,76,-749,-860
1465,181,-8,1044,-43,-770,-854
1466,179,-14,1039,-149,-778,-848
1467,195,-11,1040,-221,-756,-848
1468,183,-9,1048,-266,-719,-856
1469,172,-16,1042,-315,-731,-858
1470,171,-13,1056,-338,-778,-833
1471,174,-35,1052,-348,-840,-792
1472,188,-51,1036,-375,-936,-788
1473,178,-38,1016,-413,-1004,-831
1474,178,-41,995,-440,-1012,-881
1475,201,-47,979,-375,-1022,-922
1476,208,-34,967,-247,-1032,-946
1477,218,-29,941,-112,-1032,-997
1478,221,-19,930,-4,-981,-1061
1479,221,-12,909,29,-864,-1083
1480,200,0,921,33,-725,-1079
1481,221,3,942,-22,-624,-1038
1482,256,21,941,-98,-586,-1002
1483,266,42,971,-157,-575,-1038
1484,265,45,970,-143,-633,-1098
1485,284,71,984,-81,-717,-1108
1486,296,74,976,-32,-792,-1086
1487,290,81,960,19,-854,-1077
1488,287,98,966,74,-840,-1049
1489,282,98,951,148,-770,-989
1490,290,94,971,169,-688,-930
1491,302,90,956,115,-627,-856
1492,294,92,945,-4,-543,-768
1493,288,77,947,-178,-444,-711
1494,302,60,968,-377,-350,-653
1495,296,53,983,-637,-321,-594
1496,307,66,998,-862,-354,-557
1497,307,78,1011,-934,-436,-526
1498,305,77,990,-879,-543,-512
1499,301,59,976,-729,-653,-506
1500,315,52,942,-561,-756,-491
1501,325,48,919,-426,-797,-508
1502,312,37,900,-317,-770,-569
1503,291,26,908,-262,-676,-592
1504,301,30,899,-334,-538,-565
1505,336,15,891,-504,-420,-543
1506,328,18,905,-713,-360,-514
1507,338,32,948,-868,-360,-502
1508,352,47,995,-821,-446,-516
1509,371,55,996,-508,-542,-561
1510,378,82,989,-83,-670,-645
1511,374,97,995,294,-836,-676
1512,341,65,988,607,-981,-659
1513,322,44,973,835,-1047,-598
1514,330,34,939,902,-1026,-540
1515,356,6,942,832,-999,-502
1516,365,7,921,724,-1000,-499
1517,361,13,916,636,-991,-538
1518,357,25,935,607,-915,-590
1519,353,25,941,630,-813,-637
1520,364,35,991,632,-768,-665
1521,392,49,992,566,-821,-688
1522,401,68,996,458,-932,-723
1523,388,83,985,333,-1024,-776
1524,375,91,972,212,-1083,-838
1525,402,116,934,97,-1086,-840
1526,404,138,923,-38,-1084,-815
1527,411,151,906,-188,-1090,-750
1528,413,155,907,-309,-1061,-692
1529,405,153,887,-350,-1040,-651
1530,410,130,862,-342,-1043,-616
1531,416,121,836,-342,-1042,-604
1532,419,114,815,-454,-944,-622
1533,416,105,817,-602,-795,-647
1534,433,128,848,-708,-624,-627
1535,447,138,859,-795,-542,-604
1536,457,129,850,-917,-590,-581
1537,463,133,853,-1045,-686,-532
1538,474,152,848,-1098,-747,-516
1539,483,183,830,-913,-811,-542
1540,473,202,833,-512,-913,-569
1541,478,193,821,-8,-948,-543
1542,496,180,796,476,-950,-575
1543,501,167,790,800,-971,-612
1544,489,162,807,908,-959,-625
1545,475,150,794,849,-922,-586
1546,506,150,775,628,-885,-499
1547,525,147,749,298,-891,-434
1548,515,143,722,-116,-936,-401
1549,494,158,699,-514,-932,-321
1550,517,171,712,-743,-856,-243
1551,521,180,703,-743,-708,-208
1552,519,171,702,-573,-545,-211
1553,521,176,721,-334,-403,-256
1554,527,184,752,-157,-276,-286
1555,536,167,777,-45,-229,-286
1556,540,161,785,-49,-250,-266
1557,563,148,780,-178,-325,-225
1558,557,165,790,-342,-381,-211
1559,554,185,809,-485,-409,-180
1560,540,194,808,-542,-397,-122
1561,548,187,790,-547,-385,-57
1562,549,171,772,-516,-364,-6
1563,549,149,761,-448,-325,7
1564,548,137,762,-395,-274,-22
1565,535,124,756,-428,-243,-49
1566,545,118,769,-491,-227,-24
1567,551,115,750,-545,-208,-20
1568,563,124,751,-584,-174,-28
1569,555,123,761,-624,-139,-26
1570,549,138,765,-645,-118,-26
1571,546,140,797,-637,-100,-16
1572,555,134,811,-608,-88,-6
1573,561,158,833,-518,-73,-34
1574,573,156,871,-360,-124,-51
1575,571,148,853,-245,-245,-36
1576,588,135,811,-268,-411,9
1577,587,116,761,-381,-565,76
1578,588,113,730,-395,-637,93
1579,588,123,728,-200,-606,80
1580,594,129,751,173,-493,58
1581,608,116,730,578,-387,31
1582,588,113,785,857,-274,-26
1583,574,103,839,917,-153,11
1584,575,84,854,720,-96,121
1585,593,64,841,324,-114,275
1586,585,35,827,-182,-141,400
1587,563,37,810,-698,-122,464
1588,566,32,809,-1098,-43,511
1589,565,27,805,-1297,19,529
1590,554,20,770,-1293,50,511
1591,557,-5,771,-1161,44,476
1592,568,-14,743,-985,52,417
1593,579,-22,723,-790,62,314
1594,566,-6,722,-545,89,199
1595,551,7,743,-264,130,103
1596,573,5,770,-49,173,44
1597,576,11,786,-16,169,-24
1598,569,31,767,-135,111,-47
1599,584,50,769,-305,-10,-12
1600,561,48,749,-438,-84,31
1601,542,55,699,-508,-118,72
1602,519,34,682,-557,-139,107
1603,510,10,628,-635,-157,138
1604,478,-10,586,-756,-167,140
1605,430,-27,505,-889,-186,125
1606,382,-81,478,-1073,-235,107
1607,336,-114,420,-1313,-321,56
1608,299,-152,353,-1659,-418,-24
1609,259,-158,284,-2200,-532,-84
1610,248,-121,207,-2911,-627,-125
1611,223,-55,81,-3602,-782,-114
1612,201,0,-31,-4202,-1139,-4
1613,158,91,-139,-4502,-1584,283
1614,98,175,-303,-4426,-1956,621
1615,58,197,-466,-3995,-2268,925
1616,24,207,-643,-3108,-2559,978
1617,-72,235,-807,-1915,-2838,708
1618,-173,250,-924,-713,-2590,390
1619,-332,229,-1097,523,-1676,132
1620,-472,192,-1248,1718,-331,164
1621,-603,149,-1301,2769,1238,404
1622,-627,71,-1269,3449,3064,576
1623,-603,16,-1142,3671,5408,603
1624,-636,5,-887,3507,7894,404
1625,-772,32,-541,3177,9960,13
1626,-954,41,-151,2671,11689,-299
1627,-1043,88,464,2058,13373,-438
1628,-1116,147,1323,1814,15001,-547
1629,-1081,269,2048,1845,15759,-624
1630,-861,334,2048,1839,15544,-221
1631,-408,118,2048,1619,13976,884
1632,60,-74,2048,1505,10501,1742
1633,226,-171,2048,1277,6523,1925
1634,37,-343,2048,386,3265,1666
1635,-62,-407,2048,-678,957,1468
1636,-7,-428,2048,-1569,-65,1314
1637,16,-349,2048,-2094,-377,929
1638,56,-233,2048,-2073,-243,253
1639,173,-65,2048,-1434,259,-530
1640,240,149,2048,-479,978,-1375
1641,223,361,2048,185,1427,-2040
1642,198,553,2048,257,1234,-2116
1643,191,716,2048,-38,757,-1745
1644,178,812,2048,-389,37,-1098
1645,212,843,2048,-711,-840,-364
1646,228,866,1877,-893,-1622,136
1647,211,928,1638,-752,-1958,296
1648,177,1016,1437,-448,-1920,335
1649,172,1131,1294,-151,-1674,382
1650,129,1254,1239,134,-1387,580
1651,62,1345,1172,320,-1186,1105
1652,7,1383,1092,355,-1069,1802
1653,-53,1432,1004,308,-973,2607
1654,-80,1480,895,333,-952,3509
1655,-121,1486,801,595,-842,4250
1656,-249,1411,728,1035,-458,4871
1657,-395,1299,689,1322,146,5605
1658,-525,1200,674,1150,736,6337
1659,-665,1018,706,515,1185,7138
1660,-802,812,793,-233,1439,7933
1661,-957,565,964,-663,1634,8740
1662,-1045,168,1145,-553,1634,9500
1663,-1069,-277,1339,31,1468,9751
1664,-1036,-648,1483,894,1250,9386
1665,-1021,-1009,1521,1748,896,8580
1666,-873,-1323,1535,2230,371,7423
1667,-731,-1456,1393,2003,37,6134
1668,-675,-1516,1313,1093,-379,5089
1669,-619,-1492,1207,31,-792,4396
1670,-518,-1406,1114,-731,-959,3814
1671,-353,-1318,1004,-1145,-956,3132
1672,-238,-1182,877,-1331,-899,2457
1673,-175,-996,818,-1327,-819,1792
1674,-167,-786,787,-1094,-688,1099
1675,-216,-564,781,-686,-534,511
1676,-244,-434,726,-120,-481,296
1677,-199,-372,694,519,-387,408
1678,-155,-373,685,1017,-55,630
1679,-90,-403,745,1093,353,968
1680,-50,-467,790,777,578,1300
1681,-31,-558,818,261,496,1544
1682,-47,-627,837,-165,294,1621
1683,-66,-647,858,-329,269,1443
1684,-75,-646,877,-293,419,1142
1685,-59,-616,903,-225,541,779
1686,-18,-516,929,-225,574,371
1687,-2,-408,929,-288,498,-8
1688,8,-294,922,-319,363,-221
1689,-29,-219,906,-245,222,-256
1690,-56,-193,913,-106,216,-235
1691,-53,-183,935,44,386,-200
1692,-13,-183,984,162,587,-184
1693,-6,-195,1029,228,712,-208
1694,-8,-216,1080,275,767,-264
1695,-34,-219,1112,275,710,-360
1696,-32,-229,1135,240,582,-438
1697,-19,-198,1165,207,435,-504
1698,5,-168,1166,167,265,-600
1699,-4,-156,1157,177,103,-709
1700,-30,-125,1132,228,11,-766
1701,-44,-103,1108,242,-28,-778
1702,-66,-85,1067,166,-43,-758
1703,-76,-80,1031,13,-36,-676
1704,-57,-64,1021,-159,5,-573
1705,-41,-50,1035,-235,76,-522
1706,-30,-20,1082,-108,199,-545
1707,-2,12,1122,171,232,-567
1708,-6,23,1147,486,138,-579
1709,-29,20,1168,755,-40,-635
1710,-34,22,1147,933,-254,-700
1711,-33,2,1128,949,-370,-793
1712,-11,9,1099,835,-422,-811
1713,-17,25,1087,611,-381,-815
1714,-34,49,1070,281,-268,-840
1715,-39,64,1062,-36,-163,-801
1716,-38,77,1055,-288,-102,-680
1717,-33,95,1031,-481,-40,-563
1718,-23,99,1024,-641,-38,-436
1719,-21,99,1020,-700,-71,-375
1720,-11,105,1043,-649,-20,-405
1721,-10,111,1079,-463,29,-469
1722,-10,117,1085,-133,-16,-559
1723,-17,116,1084,191,-67,-633
1724,-20,111,1057,351,-143,-629
1725,-24,122,1035,320,-188,-547
1726,-1,132,1039,195,-194,-471
1727,-20,111,1037,37,-245,-454
1728,-50,101,1016,-118,-280,-323
1729,-48,88,996,-206,-213,-180
1730,-38,57,1026,-235,-83,-112
1731,-28,43,1045,-247,31,-75
1732,-9,41,1073,-278,93,-51
1733,-20,41,1109,-313,48,-92
1734,-28,19,1132,-338,-51,-125
1735,-29,17,1139,-321,-110,-84
1736,-47,-4,1126,-286,-180,-20
1737,-38,-19,1116,-290,-215,39
1738,-42,-37,1090,-391,-186,130
1739,-44,-46,1105,-588,-131,253
1740,-34,-52,1112,-774,-63,365
1741,-19,-74,1139,-805,35,439
1742,-1,-89,1168,-678,95,429
1743,15,-130,1235,-436,123,314
1744,30,-146,1260,-211,128,107
1745,22,-149,1318,-120,1,-98
1746,-1,-152,1327,-141,-215,-262
1747,3,-161,1321,-245,-399,-319
1748,-1,-169,1285,-417,-571,-336
1749,-2,-171,1252,-614,-680,-366
1750,-7,-159,1227,-762,-749,-444
1751,-2,-148,1202,-795,-772,-502
1752,4,-127,1194,-756,-739,-596
1753,-24,-114,1179,-713,-700,-680
1754,-20,-115,1188,-733,-682,-678
1755,5,-117,1220,-715,-719,-702
1756,16,-89,1223,-639,-792,-764
1757,18,-102,1208,-543,-922,-868
1758,5,-86,1192,-389,-1065,-952
1759,-1,-83,1159,-247,-1172,-985
1760,-5,-89,1115,-211,-1245,-987
1761,11,-106,1081,-282,-1286,-1018
1762,12,-101,1064,-452,-1243,-1042
1763,9,-82,1070,-668,-1157,-1034
1764,2,-64,1076,-831,-1100,-995
1765,4,-46,1061,-917,-1053,-989
1766,12,-26,1051,-917,-1090,-1000
1767,30,-22,1040,-795,-1206,-993
1768,36,-21,997,-547,-1286,-1020
1769,66,-7,997,-250,-1288,-1075
1770,61,22,1015,-10,-1209,-1133
1771,62,32,1017,113,-1198,-1090
1772,56,25,999,85,-1161,-999
1773,64,22,969,-24,-1172,-883
1774,82,9,917,-149,-1170,-782
1775,89,-6,914,-299,-1135,-717
1776,74,-29,923,-417,-1096,-729
1777,84,-53,943,-491,-1045,-698
1778,95,-46,939,-526,-997,-682
1779,98,-52,957,-495,-997,-686
1780,101,-40,947,-403,-993,-704
1781,120,-34,944,-299,-999,-739
1782,112,-47,920,-256,-1022,-756
1783,113,-65,906,-272,-1032,-745
1784,119,-69,888,-297,-963,-704
1785,139,-75,921,-286,-844,-702
1786,149,-77,959,-264,-768,-737
1787,150,-74,996,-278,-723,-756
1788,153,-65,987,-292,-729,-776
1789,147,-71,995,-239,-801,-788
1790,155,-82,955,-157,-887,-764
1791,169,-106,950,-92,-934,-784
1792,187,-104,949,-63,-918,-856
1793,184,-92,950,-40,-870,-924
1794,188,-70,969,-40,-844,-940
1795,191,-70,945,-32,-866,-932
1796,197,-89,937,-2,-897,-965
1797,215,-67,912,27,-858,-1014
1798,209,-63,920,48,-790,-1055
1799,216,-55,936,64,-708,-1075
1800,221,-62,953,58,-590,-1069
1801,228,-53,996,-42,-538,-1032
1802,247,-33,1033,-176,-588,-997
1803,273,-16,1047,-274,-665,-932
1804,286,5,1030,-280,-786,-877
1805,274,-7,1031,-172,-932,-907
1806,265,-28,985,-79,-1004,-920
1807,259,-22,975,-20,-1010,-918
1808,251,-34,950,13,-963,-936
1809,261,-38,923,-10,-901,-911
1810,280,-43,922,-124,-825,-866
1811,271,-34,919,-260,-760,-829
1812,286,-28,932,-319,-731,-807
1813,300,-21,951,-276,-672,-817
1814,307,-21,963,-149,-655,-838
1815,295,-34,959,-34,-676,-831
1816,296,-24,986,27,-704,-825
1817,307,-22,990,52,-717,-821
1818,314,-15,984,5,-743,-776
1819,328,-24,966,-112,-807,-723
1820,324,-36,938,-223,-840,-700
1821,305,-33,928,-286,-821,-745
1822,307,-42,943,-315,-760,-792
1823,315,-23,941,-323,-678,-780
1824,317,-37,929,-311,-631,-799
1825,317,-33,937,-260,-602,-844
1826,321,-17,938,-141,-588,-897
1827,334,-27,953,-4,-579,-942
1828,342,-19,963,123,-567,-985
1829,350,4,953,187,-571,-1012
1830,360,12,966,169,-616,-1012
1831,351,18,971,101,-688,-1024
1832,361,29,961,19,-747,-1043
1833,355,41,954,-53,-766,-1051
1834,358,64,941,-110,-764,-1038
1835,370,79,926,-114,-739,-999
1836,373,81,916,-53,-737,-961
1837,371,72,911,48,-721,-950
1838,360,68,922,144,-684,-938
1839,357,70,901,175,-645,-905
1840,355,61,895,130,-602,-838
1841,381,43,912,21,-584,-790
1842,412,62,913,-102,-618,-786
1843,409,91,905,-178,-709,-797
1844,382,95,899,-186,-782,-788
1845,380,91,900,-124,-766,-735
1846,412,92,889,-90,-725,-676
1847,424,83,869,-112,-698,-667
1848,430,87,867,-159,-678,-657
1849,430,89,859,-229,-643,-639
1850,427,96,866,-256,-645,-612
1851,425,89,854,-231,-610,-579
1852,430,81,865,-217,-563,-571
1853,438,73,861,-239,-506,-567
1854,432,65,887,-286,-465,-540
1855,453,69,895,-272,-481,-518
1856,467,83,893,-208,-528,-545
1857,453,95,890,-135,-592,-557
1858,452,95,891,-57,-631,-512
1859,474,100,888,-32,-663,-442
1860,478,94,861,-84,-661,-405
1861,490,101,844,-192,-649,-387
1862,465,101,841,-336,-635,-358
1863,475,101,864,-450,-600,-292
1864,485,89,854,-477,-536,-208
1865,493,82,860,-438,-440,-198
1866,501,97,887,-389,-336,-200
1867,506,87,896,-366,-237,-178
1868,506,86,963,-374,-157,-139
1869,525,106,1013,-366,-145,-129
1870,510,103,1018,-333,-241,-100
1871,520,85,1027,-356,-452,-57
1872,513,70,989,-436,-692,0
1873,508,55,940,-522,-852,39
1874,484,33,895,-569,-917,31
1875,474,23,865,-565,-897,-4
1876,492,30,833,-567,-833,-24
1877,490,48,810,-542,-747,-20
1878,501,41,849,-454,-676,-26
1879,501,38,854,-264,-598,-63
1880,502,31,850,-61,-514,-116
1881,526,42,860,64,-495,-157
1882,534,54,866,101,-516,-202
1883,546,68,867,62,-581,-196
1884,529,95,894,46,-614,-188
1885,509,80,895,89,-624,-182
1886,497,66,882,58,-639,-118
1887,529,43,865,-90,-704,-36
1888,557,29,834,-288,-749,-26
1889,543,24,805,-350,-792,-96
1890,515,21,787,-280,-827,-127
1891,519,24,788,-217,-776,-125
1892,548,27,769,-180,-696,-141
1893,558,29,761,-163,-624,-149
1894,545,47,769,-120,-571,-151
1895,538,46,777,-30,-518,-104
1896,537,18,788,7,-493,-43
1897,547,-1,779,-106,-536,-26
1898,557,-22,743,-391,-645,-30
1899,574,-15,687,-680,-766,-16
1900,579,30,659,-827,-739,-10
1901,555,44,657,-735,-581,-34
1902,572,45,641,-543,-356,-30
1903,572,43,661,-350,-168,-32
1904,582,43,693,-188,-84,-42
1905,574,17,719,-36,-90,-73
1906,560,13,713,-6,-129,-86
1907,557,-18,733,-71,-196,-71
1908,587,-32,719,-172,-229,-77
1909,575,-15,708,-249,-235,-112
1910,570,6,718,-315,-219,-129
1911,580,9,705,-362,-174,-116
1912,575,5,713,-333,-108,-73
1913,597,-2,698,-260,-59,-57
1914,599,9,702,-170,-26,-86
1915,597,10,733,-94,33,-159
1916,595,26,731,-75,117,-211
1917,585,42,757,-43,175,-190
1918,587,38,772,-6,160,-145
1919,596,39,794,-20,126,-133
1920,618,14,775,-90,25,-129
1921,617,8,753,-196,-77,-124
1922,599,16,746,-268,-131,-141
1923,589,35,742,-315,-49,-194
1924,582,33,740,-290,101,-227
1925,601,51,768,-249,240,-231
1926,623,78,793,-247,345,-208
1927,629,74,824,-225,388,-143
1928,632,75,868,-180,351,-116
1929,609,73,902,-137,324,-125
1930,603,66,896,-96,294,-84
1931,593,52,898,-86,191,0
1932,606,15,876,-188,46,72
1933,600,0,816,-415,-112,132
1934,595,-4,793,-629,-209,136
1935,591,5,754,-749,-163,113
1936,598,31,743,-678,-18,111
1937,572,37,769,-471,134,117
1938,591,43,821,-223,259,103
1939,610,28,854,-43,345,46
1940,605,22,870,13,343,1
1941,584,7,894,23,240,31
1942,595,-11,922,-10,105,42
1943,583,-15,907,-75,19,25
1944,586,-34,879,-127,-100,21
1945,588,-31,836,-172,-196,9
1946,596,-31,811,-221,-213,-18
1947,601,-23,771,-354,-233,-18
1948,574,-9,761,-584,-280,-14
1949,569,5,728,-774,-286,-24
1950,570,7,714,-774,-217,-12
1951,570,21,682,-604,-122,-10
1952,544,-6,683,-370,-57,-53
1953,529,-25,677,-184,-16,-131
1954,498,-38,697,-112,-14,-182
1955,466,-74,665,-159,-86,-229
1956,438,-89,660,-340,-215,-370
1957,381,-124,600,-653,-370,-520
1958,320,-149,542,-1096,-663,-596
1959,261,-163,423,-1653,-999,-655
1960,206,-164,296,-2262,-1334,-715
1961,177,-147,154,-2866,-1678,-725
1962,178,-87,38,-3473,-1991,-704
1963,194,38,-93,-4036,-2297,-653
1964,184,146,-203,-4395,-2715,-588
1965,184,277,-414,-4145,-2905,-430
1966,195,381,-664,-3467,-2772,-241
1967,136,431,-865,-2456,-2500,-202
1968,88,457,-974,-1043,-1979,-342
1969,57,450,-1158,599,-846,-432
1970,-33,377,-1246,2113,828,-372
1971,-167,274,-1249,3238,2591,-202
1972,-335,189,-1145,3806,4341,-57
1973,-535,79,-973,3871,5984,80
1974,-690,-36,-731,3457,7466,253
1975,-806,-156,-434,2642,8859,443
1976,-828,-193,-122,1488,10089,507
1977,-896,-199,209,404,11203,500
1978,-879,-91,652,-159,12070,541
1979,-948,-3,1202,193,12568,458
1980,-907,52,1896,1341,12828,289
1981,-784,62,2048,2646,12910,-71
1982,-567,51,2048,3541,12244,-194
1983,-261,-8,2048,3359,10335,64
1984,-27,-52,2048,2136,7435,267
1985,-55,-84,2048,720,4642,378
1986,-157,-161,2048,-276,2816,343
1987,-96,-110,2048,-965,1839,283
1988,-54,-91,2048,-1350,1435,167
1989,-9,-67,2048,-1575,1076,33
1990,36,76,2048,-1596,1054,-295
1991,76,280,2048,-1319,1462,-713
1992,104,484,2048,-868,1892,-954
1993,161,651,2048,-471,1869,-1083
1994,183,836,2048,-250,1423,-1141
1995,212,1033,2048,-344,722,-1028
1996,218,1317,2048,-694,-167,-799
1997,178,1627,2048,-1243,-1092,-254
1998,112,1955,1877,-1901,-1985,568
1999,81,2048,1491,-2321,-2700,1662
2000,21,2048,1134,-2395,-3243,2763
2001,-92,2048,895,-1907,-3495,3871
2002,-247,2017,735,-844,-3163,4791
2003,-392,1743,649,337,-2370,5609
2004,-551,1416,619,1125,-1292,6482
2005,-702,1090,662,1351,-375,7251
2006,-811,717,772,1277,261,7800
2007,-879,399,960,912,847,8001
2008,-982,150,1161,482,1533,7957
2009,-1013,-125,1394,265,1841,7839
2010,-995,-361,1555,283,1742,7669
2011,-964,-584,1602,572,1220,7439
2012,-878,-802,1582,1044,460,7048
2013,-772,-943,1454,1404,-358,6505
2014,-688,-1023,1307,1376,-1102,5892
2015,-636,-1068,1208,1041,-1665,5289
2016,-604,-1104,1115,693,-1934,4783
2017,-560,-1114,1037,556,-1981,4371
2018,-504,-1142,977,751,-1922,3867
2019,-455,-1139,903,1259,-1782,3154
2020,-378,-1132,817,1830,-1573,2326
2021,-300,-1093,769,2128,-1301,1595
2022,-225,-1009,738,1947,-881,1037
2023,-181,-925,747,1283,-397,744
2024,-121,-829,805,470,-40,683
2025,-92,-732,856,-167,148,675
2026,-48,-653,884,-563,158,769
2027,9,-593,896,-614,31,865
2028,42,-567,863,-389,-98,810
2029,55,-561,861,-34,-182,607
2030,40,-523,869,201,-211,375
2031,27,-500,873,261,-165,228
2032,13,-467,850,166,-92,189
2033,11,-448,855,-47,-79,197
2034,21,-431,851,-270,-42,232
2035,64,-416,851,-434,35,236
2036,77,-372,879,-512,87,156
2037,65,-335,932,-524,83,52
2038,57,-319,951,-428,68,-75
2039,71,-278,995,-202,134,-239
2040,52,-257,1029,21,203,-446
2041,33,-226,1065,3,171,-563
2042,50,-191,1056,-237,126,-540
2043,54,-172,1053,-543,62,-452
2044,68,-148,1026,-807,-10,-383
2045,81,-137,1039,-879,19,-372
2046,75,-117,1046,-850,113,-415
2047,73,-119,1082,-770,216,-499
2048,62,-100,1127,-665,244,-547
2049,58,-101,1135,-579,220,-561
2050,53,-99,1143,-500,201,-596
2051,59,-81,1137,-389,216,-653
2052,27,-80,1132,-215,216,-713
2053,23,-84,1140,60,222,-801
2054,25,-105,1186,386,292,-920
2055,46,-85,1196,654,390,-1104
2056,67,-55,1224,673,361,-1313
2057,59,-19,1244,558,240,-1458
2058,60,11,1262,396,128,-1465
2059,59,25,1285,142,5,-1362
2060,34,30,1279,-180,-196,-1208
2061,35,6,1284,-502,-358,-1088
2062,58,9,1272,-702,-411,-1016
2063,55,12,1258,-778,-424,-993
2064,47,23,1250,-790,-428,-963
2065,49,21,1216,-741,-440,-946
2066,51,11,1214,-649,-481,-969
2067,42,26,1186,-536,-543,-989
2068,45,22,1167,-379,-596,-1006
2069,44,32,1135,-280,-635,-1022
2070,33,43,1157,-313,-665,-999
2071,41,45,1136,-432,-745,-950
2072,53,72,1120,-586,-776,-887
2073,79,75,1086,-684,-801,-833
2074,74,84,1094,-667,-866,-780
2075,76,88,1097,-682,-840,-782
2076,82,92,1099,-668,-788,-774
2077,85,117,1103,-502,-801,-729
2078,83,117,1112,-258,-815,-698
2079,89,107,1084,-114,-825,-629
2080,104,90,1057,-75,-852,-516
2081,100,82,994,-61,-887,-418
2082,90,66,977,-92,-940,-354
2083,76,43,963,-196,-938,-301
2084,75,25,945,-340,-909,-284
2085,63,8,948,-467,-858,-301
2086,67,7,960,-561,-770,-292
2087,75,16,967,-604,-635,-239
2088,92,14,993,-534,-497,-194
2089,111,18,1036,-393,-450,-186
2090,117,35,1018,-223,-471,-200
2091,123,25,1010,-108,-524,-223
2092,114,1,1025,-108,-620,-213
2093,120,-21,1017,-174,-717,-184
2094,110,-37,1028,-299,-776,-176
2095,107,-52,1007,-471,-833,-204
2096,115,-55,1011,-598,-817,-204
2097,114,-51,1001,-663,-735,-206
2098,111,-65,987,-696,-647,-217
2099,116,-73,1017,-639,-590,-217
2100,145,-61,1032,-506,-575,-264
2101,153,-64,1042,-313,-590,-307
2102,169,-50,1022,-127,-678,-346
2103,160,-77,1027,-8,-809,-405
2104,151,-93,1019,83,-901,-461
2105,139,-91,996,126,-917,-520
2106,136,-77,975,101,-911,-551
2107,153,-90,975,15,-868,-559
2108,155,-65,956,-118,-772,-538
2109,168,-55,964,-223,-686,-483
2110,200,-62,947,-319,-625,-444
2111,194,-44,994,-399,-624,-458
2112,202,-43,989,-358,-682,-475
2113,208,-43,992,-196,-731,-542
2114,207,-38,1002,-36,-770,-643
2115,214,-38,984,56,-809,-702
2116,215,-42,970,87,-829,-690
2117,210,-38,964,52,-825,-663
2118,222,-33,944,0,-792,-624
2119,242,-17,945,-110,-702,-561
2120,236,-36,941,-67,-739,-594
2121,235,-23,976,-120,-692,-536
2122,224,-26,976,-108,-667,-506
2123,231,-38,970,-77,-661,-495
2124,240,-57,970,-53,-706,-518
2125,256,-58,933,-59,-733,-573
2126,250,-56,920,-83,-745,-651
2127,254,-40,896,-131,-737,-668
2128,245,-23,922,-170,-682,-665
2129,245,-17,935,-206,-637,-625
2130,267,-17,918,-256,-567,-596
2131,271,-15,915,-278,-549,-575
2132,276,-9,918,-219,-557,-567
2133,268,-24,900,-120,-545,-569
2134,277,-24,922,-49,-514,-586
2135,270,-36,942,15,-483,-633
2136,288,-19,948,25,-487,-676
2137,310,-9,949,7,-504,-708
2138,300,-16,934,-57,-598,-717
2139,297,-12,936,-114,-653,-704
2140,295,-6,915,-167,-633,-688
2141,298,-6,918,-237,-571,-674
2142,301,2,887,-323,-526,-633
2143,312,19,893,-401,-504,-592
2144,319,12,880,-411,-491,-559
2145,321,-2,878,-358,-479,-542
2146,323,6,884,-252,-452,-557
2147,321,-1,913,-106,-372,-606
2148,330,9,944,9,-311,-635
2149,329,5,942,78,-325,-631
2150,325,4,937,42,-362,-608
2151,319,-3,937,-55,-405,-592
2152,327,-6,932,-186,-420,-577
2153,333,8,932,-290,-368,-545
2154,354,1,934,-372,-336,-499
2155,349,25,956,-395,-309,-450
2156,373,25,962,-301,-290,-420
2157,361,17,971,-167,-264,-448
2158,355,10,995,-45,-295,-500
2159,359,8,992,74,-317,-551
2160,356,7,1006,197,-329,-600
2161,360,10,990,248,-321,-637
2162,357,11,996,191,-317,-629
2163,355,11,1003,83,-319,-575
2164,355,10,1005,-63,-348,-516
2165,384,13,988,-182,-377,-469
2166,367,23,974,-233,-436,-491
2167,378,23,966,-260,-520,-499
2168,370,5,957,-290,-516,-489
2169,366,-3,932,-350,-497,-479
2170,358,-11,926,-413,-434,-485
2171,379,2,968,-413,-379,-514
2172,368,11,981,-344,-364,-577
2173,377,4,966,-270,-418,-635
2174,387,3,976,-235,-487,-659
2175,378,10,970,-278,-553,-637
2176,391,17,945,-354,-618,-567
2177,389,4,919,-399,-674,-538
2178,387,-5,895,-403,-692,-547
2179,392,18,889,-381,-649,-559
2180,382,7,915,-377,-553,-551
2181,398,14,932,-395,-448,-538
2182,400,17,938,-417,-395,-520
2183,423,19,932,-434,-374,-500
2184,420,22,947,-432,-407,-506
2185,417,41,948,-385,-459,-502
2186,412,39,958,-270,-508,-510
2187,405,29,963,-141,-571,-534
2188,416,24,932,-57,-588,-557
2189,418,17,931,-22,-581,-551
2190,407,-7,938,-45,-569,-516
2191,405,0,920,-116,-545,-473
2192,412,-6,919,-204,-504,-448
2193,416,-8,907,-295,-471,-438
2194,422,-6,923,-383,-444,-440
2195,426,10,893,-459,-405,-432
2196,433,3,913,-499,-387,-407
2197,434,13,911,-493,-368,-401
2198,418,8,904,-473,-338,-424
2199,423,12,919,-454,-301,-434
2200,430,9,920,-422,-278,-413
2201,443,7,927,-387,-288,-397
2202,468,1,913,-336,-333,-409
2203,460,0,902,-309,-379,-440
2204,444,0,906,-297,-413,-438
2205,441,-7,913,-280,-362,-424
2206,436,-16,920,-260,-282,-420
2207,449,-24,934,-305,-219,-438
2208,451,-34,921,-422,-163,-446
2209,448,-23,925,-592,-90,-436
2210,459,10,945,-727,-8,-405
2211,465,15,967,-797,9,-344
2212,458,18,982,-833,-28,-282
2213,466,0,1007,-856,-102,-276
2214,475,-2,974,-887,-223,-311
2215,462,-1,946,-909,-350,-329
2216,470,-11,932,-875,-461,-340
2217,459,-28,888,-756,-532,-389
2218,454,-37,899,-631,-514,-497
2219,452,-24,892,-528,-448,-618
2220,466,-4,890,-405,-432,-690
2221,444,-3,873,-276,-454,-725
2222,444,-11,856,-184,-463,-729
2223,446,-19,840,-165,-438,-647
2224,458,-18,833,-247,-420,-608
2225,447,-43,797,-409,-426,-624
2226,444,-43,786,-608,-418,-608
2227,461,-41,766,-815,-374,-575
2228,468,-11,780,-897,-313,-583
2229,470,1,784,-883,-237,-592
2230,480,6,771,-801,-174,-565
2231,486,39,797,-635,-124,-543
2232,487,43,824,-430,-100,-530
2233,499,32,842,-213,-124,-516
2234,524,49,844,-16,-178,-514
2235,518,58,861,111,-258,-555
2236,512,42,838,148,-315,-561
2237,504,51,834,105,-344,-487
2238,506,46,830,27,-303,-397
2239,505,20,825,-77,-260,-327
2240,490,18,832,-194,-276,-252
2241,506,11,817,-309,-264,-231
2242,507,17,830,-420,-211,-249
2243,523,33,820,-459,-151,-270
2244,517,52,832,-415,-106,-268
2245,515,52,860,-303,-145,-200
2246,534,42,872,-153,-204,-149
2247,508,39,856,-67,-252,-135
2248,500,54,832,-106,-262,-92
2249,478,61,800,-270,-262,-22
2250,474,54,777,-436,-182,125
2251,500,26,766,-491,-69,242
2252,529,30,760,-588,23,375
2253,524,43,739,-649,93,414
2254,520,40,756,-625,144,375
2255,543,50,781,-471,230,197
2256,534,45,827,-196,283,21
2257,515,52,896,89,347,-43
2258,516,55,955,285,396,-6
2259,505,35,989,361,371,37
2260,496,5,1013,310,240,115
2261,497,-18,977,103,52,236
2262,509,-31,906,-272,-125,378
2263,501,-22,883,-672,-176,460
2264,502,-25,827,-915,-141,558
2265,499,-11,805,-907,23,642
2266,506,-5,826,-715,197,572
2267,522,-13,813,-452,291,439
2268,525,-21,835,-282,277,304
2269,500,-45,864,-129,248,244
2270,488,-40,852,17,250,275
2271,500,-32,857,93,304,347
2272,498,-53,852,80,265,322
2273,510,-73,862,-14,113,283
2274,503,-83,833,-129,-2,267
2275,499,-81,831,-174,-45,210
2276,487,-87,815,-135,-32,74
2277,492,-62,821,-102,15,-88
2278,490,-30,817,-168,35,-182
2279,511,-18,843,-303,-24,-149
2280,521,-41,839,-413,-153,-98
2281,529,-34,817,-506,-284,-131
2282,511,-36,805,-584,-411,-157
2283,493,-33,783,-592,-444,-63
2284,489,-48,768,-514,-397,21
2285,496,-62,752,-395,-299,31
2286,497,-79,746,-311,-211,-4
2287,491,-69,727,-245,-141,-75
2288,499,-56,729,-237,-12,-124
2289,490,-48,752,-272,123,-116
2290,498,-60,749,-340,197,-49
2291,492,-56,745,-442,220,17
2292,499,-64,722,-512,197,27
2293,497,-66,680,-528,144,21
2294,493,-61,694,-508,126,0
2295,496,-64,649,-436,154,-45
2296,489,-74,654,-336,208,-112
2297,473,-60,638,-284,281,-182
2298,442,-47,638,-340,337,-215
2299,406,-45,616,-506,337,-147
2300,368,-60,581,-747,316,-49
2301,329,-81,533,-1043,281,17
2302,285,-89,440,-1448,191,54
2303,226,-115,333,-1934,-20,107
2304,232,-109,185,-2430,-295,228
2305,263,-55,61,-2797,-579,304
2306,235,4,-80,-2868,-868,253
2307,189,84,-201,-2418,-1180,128
2308,134,139,-357,-1518,-1354,0
2309,69,181,-523,-278,-1372,-83
2310,-43,207,-637,953,-1047,-145
2311,-135,206,-708,1833,-235,-57
2312,-257,182,-800,2337,1037,130
2313,-372,139,-836,2457,2535,365
2314,-471,122,-901,2216,3871,714
2315,-533,108,-903,1699,4777,1126
2316,-504,147,-847,1000,5611,1490
2317,-540,175,-813,835,6634,1742
2318,-735,112,-588,1382,7318,1767
2319,-868,158,-221,2052,8218,1498
2320,-1199,31,495,3244,9974,855
2321,-1332,-70,1791,4435,11853,-420
2322,-1311,-131,2048,4572,13128,-1901
2323,-787,-295,2048,3970,12927,-2196
2324,-110,-466,2048,2160,10708,-1530
2325,238,-410,2048,-190,6964,-561
2326,33,-206,2048,-2448,3255,390
2327,-152,-150,2048,-4030,716,802
2328,-92,-189,2048,-4178,-346,837
2329,1,-155,2048,-3448,-661,660
2330,84,-9,2048,-2516,-704,150
2331,172,181,2048,-1688,-491,-336
2332,220,365,2048,-864,83,-670
2333,225,576,2048,-180,1021,-836
2334,229,777,2048,64,1755,-792
2335,198,933,2048,121,2230,-405
2336,181,1102,2048,74,2236,232
2337,246,1251,2048,-311,1568,947
2338,308,1439,2048,-934,187,1572
2339,245,1658,2048,-1438,-1299,2068
2340,108,1825,2021,-1750,-2467,2546
2341,-19,1866,1812,-1639,-3241,3226
2342,-78,1792,1566,-1002,-3614,4078
2343,-187,1638,1385,-53,-3612,4871
2344,-327,1384,1188,830,-3500,5646
2345,-459,1090,985,1324,-3219,6365
2346,-582,868,882,1298,-2629,6923
2347,-757,634,847,861,-1754,7375
2348,-956,336,948,388,-872,7900
2349,-1099,-48,1086,83,-278,8423
2350,-1113,-393,1157,56,201,8675
2351,-1060,-710,1103,125,382,8488
2352,-932,-990,1039,507,283,7925
2353,-781,-1135,934,875,296,6949
2354,-650,-1198,869,904,232,5902
2355,-626,-1217,872,726,-213,5001
2356,-635,-1154,870,324,-647,4240
2357,-570,-1008,780,-100,-772,3591
2358,-572,-858,670,-88,-872,3046
2359,-601,-774,630,466,-1026,2636
2360,-576,-825,567,1363,-1026,2365
2361,-521,-995,601,2076,-739,2052
2362,-463,-1096,693,2064,-292,1814
2363,-378,-1187,746,1404,21,1945
2364,-310,-1255,800,515,125,2115
2365,-244,-1285,826,-215,160,2031
2366,-180,-1209,847,-596,144,1548
2367,-136,-1063,820,-717,93,849
2368,-104,-932,792,-553,9,236
2369,-106,-805,795,-184,-110,-229
2370,-103,-708,778,126,-94,-528
2371,-80,-591,758,46,113,-659
2372,-68,-478,775,-342,423,-563
2373,-90,-390,801,-788,634,-311
2374,-98,-339,857,-1067,750,-12
2375,-90,-335,903,-1073,843,203
2376,-62,-342,990,-877,880,210
2377,-47,-337,1030,-676,849,80
2378,-27,-339,1048,-438,691,-40
2379,2,-325,1069,-194,453,-153
2380,-2,-320,1067,15,199,-280
2381,-28,-306,1053,87,23,-430
2382,-52,-279,1065,60,42,-627
2383,-42,-209,1032,-2,187,-786
2384,-42,-168,1036,-55,406,-807
2385,-17,-134,1065,-10,613,-739
2386,-14,-102,1114,121,808,-733
2387,-5,-104,1173,300,968,-756
2388,-20,-87,1234,425,998,-770
2389,-30,-74,1255,404,816,-780
2390,-16,-60,1254,283,525,-715
2391,-15,-52,1230,103,189,-604
2392,-25,-47,1203,-92,-22,-493
2393,-27,-48,1152,-243,-98,-385
2394,-43,-61,1143,-334,-149,-307
2395,-49,-71,1104,-327,-190,-290
2396,-57,-75,1084,-219,-202,-331
2397,-63,-83,1067,-55,-165,-426
2398,-64,-58,1069,62,-79,-526
2399,-67,-32,1076,76,-36,-514
2400,-63,-19,1069,25,-102,-430
2401,-64,-12,1040,-51,-180,-327
2402,-63,-5,993,-77,-208,-284
2403,-58,-2,992,-28,-219,-274
2404,-66,-10,981,68,-209,-252
2405,-69,-5,988,220,-151,-229
2406,-46,-15,988,398,-90,-215
2407,-34,-5,982,531,-47,-256
2408,-48,-4,992,566,-36,-270
2409,-43,21,991,640,-34,-206
2410,-38,40,1019,757,1,-133
2411,-26,60,1036,833,21,-57
2412,-44,26,1063,884,-12,11
2413,-48,-24,1063,880,-57,0
2414,-47,-60,1059,792,-75,-51
2415,-52,-100,1062,617,-135,-61
2416,-58,-139,1042,384,-217,-73
2417,-69,-151,1031,97,-288,-96
2418,-88,-145,1037,-157,-272,-163
2419,-95,-123,1058,-338,-122,-276
2420,-64,-108,1083,-420,3,-362
2421,-38,-92,1093,-413,-2,-387
2422,-43,-81,1112,-323,-92,-397
2423,-46,-78,1131,-168,-163,-458
2424,-40,-62,1135,-6,-190,-500
2425,-26,-75,1153,132,-225,-499
2426,-23,-83,1160,199,-286,-489
2427,-16,-95,1146,144,-375,-471
2428,-29,-98,1147,-4,-499,-436
2429,-29,-111,1135,-188,-567,-405
2430,-39,-113,1119,-327,-542,-403
2431,-27,-126,1121,-428,-497,-403
2432,-21,-135,1104,-497,-479,-428
2433,-25,-136,1131,-516,-477,-475
2434,-27,-119,1138,-442,-458,-538
2435,-30,-106,1160,-307,-448,-584
2436,-5,-98,1147,-204,-448,-620
2437,-2,-87,1135,-184,-502,-631
2438,-7,-75,1152,-194,-616,-624
2439,8,-85,1122,-190,-711,-614
2440,-6,-83,1096,-165,-749,-622
2441,-5,-80,1105,-143,-754,-661
2442,-10,-102,1082,-133,-745,-672
2443,1,-121,1060,-194,-721,-696
2444,-3,-123,1031,-286,-692,-698
2445,-7,-110,1051,-364,-661,-653
2446,0,-111,1061,-329,-616,-602
2447,8,-94,1064,-229,-530,-604
2448,20,-100,1072,-157,-506,-567
2449,17,-90,1096,-145,-569,-489
2450,36,-72,1101,-180,-645,-458
2451,41,-64,1078,-172,-706,-526
2452,39,-73,1049,-217,-805,-594
2453,22,-92,1008,-270,-881,-625
2454,10,-102,977,-301,-918,-635
2455,13,-110,971,-299,-870,-670
2456,-5,-137,967,-280,-752,-721
2457,8,-120,960,-297,-602,-745
2458,15,-104,957,-348,-446,-708
2459,10,-84,959,-342,-297,-610
2460,27,-61,979,-307,-143,-502
2461,59,-40,1003,-217,-16,-405
2462,64,-42,1035,-51,41,-362
2463,74,-53,1062,83,-55,-354
2464,85,-57,1068,156,-219,-381
2465,92,-82,1058,148,-440,-467
2466,85,-86,1031,80,-643,-577
2467,64,-91,986,3,-772,-643
2468,52,-86,994,-59,-792,-696
2469,58,-78,969,-133,-754,-747
2470,77,-85,986,-163,-702,-758
2471,87,-78,963,-131,-645,-768
2472,77,-83,971,-102,-596,-797
2473,68,-77,1004,-122,-526,-831
2474,84,-51,1030,-178,-450,-815
2475,83,-33,1035,-209,-409,-766
2476,92,-18,1040,-235,-428,-653
2477,116,-24,1047,-241,-458,-561
2478,113,-28,1060,-223,-520,-581
2479,110,-45,1033,-237,-573,-602
2480,108,-64,1034,-266,-639,-618
2481,106,-79,1004,-309,-690,-668
2482,110,-101,973,-362,-721,-721
2483,120,-78,973,-413,-704,-745
2484,104,-53,979,-409,-667,-743
2485,116,-34,999,-336,-627,-721
2486,111,-31,1008,-209,-612,-663
2487,143,-48,1008,-100,-559,-584
2488,145,-51,1000,-79,-536,-512
2489,149,-54,996,-172,-526,-430
2490,137,-63,1004,-333,-506,-372
2491,146,-55,1014,-538,-379,-409
2492,168,-63,1001,-624,-346,-405
2493,168,-79,1027,-635,-413,-368
2494,176,-83,1017,-569,-487,-383
2495,173,-82,1015,-463,-567,-446
2496,161,-91,1012,-374,-631,-526
2497,151,-94,1016,-282,-674,-579
2498,159,-92,1009,-206,-696,-608
2499,159,-107,1010,-122,-684,-598
2500,169,-104,1000,-77,-659,-596
2501,184,-116,990,-55,-659,-610
2502,199,-124,1008,-51,-663,-676
2503,174,-122,1007,-84,-668,-739
2504,167,-125,999,-167,-649,-737
2505,175,-135,999,-278,-624,-706
2506,193,-129,1005,-422,-625,-686
2507,211,-106,1011,-467,-674,-680
2508,221,-95,1004,-348,-731,-688
2509,223,-110,995,-172,-784,-743
2510,218,-105,1004,-18,-850,-817
2511,212,-130,973,35,-893,-852
2512,205,-142,953,-38,-883,-844
2513,209,-140,949,-168,-803,-817
2514,214,-127,943,-292,-708,-821
2515,207,-133,934,-420,-610,-844
2516,223,-138,931,-581,-530,-850
2517,215,-153,933,-797,-448,-823
2518,220,-160,948,-1012,-372,-825
2519,220,-149,963,-1192,-274,-860
2520,231,-132,957,-1311,-239,-877
2521,239,-105,985,-1282,-297,-866
2522,259,-101,993,-1024,-430,-868
2523,261,-85,998,-549,-577,-934
2524,288,-84,974,-2,-729,-1067
2525,264,-82,961,416,-821,-1231
2526,250,-116,960,607,-838,-1297
2527,245,-124,958,542,-782,-1336
2528,249,-127,931,244,-686,-1377
2529,262,-106,924,-180,-584,-1358
2530,265,-84,918,-604,-497,-1241
2531,263,-60,916,-856,-436,-1098
2532,285,-48,924,-872,-401,-1002
2533,280,-43,938,-758,-403,-999
2534,285,-51,913,-625,-422,-1040
2535,285,-49,914,-469,-465,-1075
2536,309,-43,911,-268,-473,-1098
2537,327,-36,910,-86,-454,-1125
2538,315,-24,906,-2,-409,-1122
2539,307,-32,919,41,-370,-1088
2540,297,-24,924,62,-317,-1028
2541,310,-27,931,83,-288,-963
2542,340,-37,938,101,-325,-938
2543,341,-30,927,58,-387,-952
2544,339,-19,938,-30,-461,-952
2545,334,-17,916,-112,-473,-915
2546,328,2,901,-161,-415,-850
2547,327,6,921,-147,-290,-795
2548,332,20,945,-102,-143,-774
2549,336,16,954,-100,-38,-749
2550,344,4,953,-176,9,-704
2551,364,-2,965,-323,-18,-653
2552,384,-1,968,-481,-94,-635
2553,382,6,943,-590,-211,-606
2554,371,4,953,-614,-315,-571
2555,350,6,951,-512,-362,-553
2556,347,13,954,-284,-358,-543
2557,347,6,937,-38,-331,-557
2558,364,-9,948,191,-340,-581
2559,352,-17,927,330,-379,-598
2560,337,-43,928,351,-411,-588
2561,350,-46,929,244,-393,-583
2562,337,-45,921,27,-344,-586
2563,349,-58,903,-233,-336,-583
2564,348,-36,909,-502,-340,-567
2565,341,-29,890,-698,-327,-538
2566,370,-14,875,-795,-297,-534
2567,383,-2,862,-819,-282,-528
2568,404,23,843,-731,-256,-530
2569,396,37,851,-526,-227,-553
2570,390,52,855,-278,-204,-543
2571,388,49,875,-42,-186,-491
2572,399,35,887,177,-170,-456
2573,399,23,891,337,-174,-463
2574,406,12,900,410,-200,-456
2575,408,3,900,388,-233,-415
2576,399,-3,914,298,-221,-379
2577,397,1,928,160,-182,-362
2578,383,-1,912,-14,-149,-327
2579,384,-8,925,-192,-129,-243
2580,390,-31,922,-313,-98,-168
2581,387,-14,911,-358,-57,-165
2582,378,-21,912,-348,-28,-202
2583,378,-10,909,-317,-43,-196
2584,393,-22,909,-233,-73,-163
2585,399,-22,881,-157,-110,-145
2586,382,-50,880,-92,-135,-141
2587,388,-66,872,-69,-155,-176
2588,401,-69,871,-114,-137,-215
2589,393,-51,890,-202,-125,-229
2590,395,-43,896,-288,-114,-217
2591,402,-22,902,-333,-96,-188
2592,380,-30,884,-323,-73,-182
2593,398,-39,895,-233,-45,-198
2594,397,-32,916,-81,-38,-245
2595,414,-22,922,87,-57,-288
2596,419,-4,928,218,-71,-309
2597,412,2,940,287,-102,-286
2598,414,-3,942,269,-116,-231
2599,402,-12,947,179,-92,-190
2600,415,-14,943,56,-59,-155
2601,410,-27,957,-71,-65,-124
2602,415,-32,957,-184,-61,-104
2603,415,-22,969,-237,-86,-100
2604,422,-24,959,-215,-135,-122
2605,423,-16,958,-139,-176,-147
2606,419,-14,951,-47,-219,-159
2607,416,-26,926,-14,-247,-161
2608,419,-36,904,-90,-225,-159
2609,412,-37,904,-229,-149,-145
2610,405,-23,917,-334,-51,-129
2611,420,0,933,-370,19,-110
2612,405,-15,937,-340,46,-104
2613,416,-22,958,-284,15,-106
2614,413,-9,970,-215,-42,-92
2615,427,-13,972,-122,-118,-94
2616,425,-13,948,-22,-202,-116
2617,432,-13,935,68,-293,-141
2618,424,-11,913,113,-329,-135
2619,417,-11,896,85,-313,-110
2620,420,-12,877,27,-249,-90
2621,416,-19,890,-67,-174,-86
2622,421,-9,893,-151,-92,-75
2623,424,-12,923,-196,-2,-83
2624,416,6,949,-176,74,-83
2625,425,24,987,-83,91,-40
2626,447,21,1018,50,11,11
2627,461,2,1013,140,-131,23
2628,457,-6,989,126,-297,25
2629,444,-11,982,29,-422,64
2630,422,2,958,-32,-428,109
2631,434,2,955,-42,-331,146
2632,423,-2,961,-53,-209,158
2633,430,-20,981,-75,-149,171
2634,427,-34,1005,-122,-168,179
2635,432,-35,997,-217,-219,158
2636,433,-29,978,-350,-274,146
2637,448,-50,967,-459,-356,167
2638,435,-43,955,-506,-415,179
2639,433,-35,934,-448,-434,185
2640,438,-17,945,-323,-395,185
2641,434,-19,947,-188,-344,171
2642,437,-40,943,-106,-340,171
2643,440,-56,930,-125,-405,185
2644,440,-79,900,-221,-516,185
2645,424,-92,857,-364,-586,162
2646,410,-87,836,-489,-575,136
2647,415,-91,824,-575,-516,87
2648,431,-85,789,-620,-485,29
2649,436,-80,766,-686,-475,-42
2650,433,-76,729,-788,-502,-53
2651,430,-74,684,-887,-569,-32
2652,425,-86,642,-930,-606,-40
2653,421,-98,594,-973,-579,-88
2654,406,-91,556,-1028,-516,-147
2655,406,-61,535,-1081,-422,-186
2656,396,-56,504,-1096,-362,-170
2657,385,-54,473,-1116,-350,-139
2658,379,-69,439,-1217,-395,-157
2659,382,-77,362,-1366,-444,-200
2660,388,-39,280,-1571,-493,-272
2661,367,5,196,-1831,-600,-375
2662,339,30,95,-2092,-780,-440
2663,299,46,-9,-2274,-1084,-383
2664,257,92,-154,-2190,-1422,-268
2665,213,107,-313,-1897,-1672,-100
2666,166,119,-509,-1299,-1749,21
2667,98,158,-692,-321,-1366,-163
2668,-33,230,-846,544,-579,-653
2669,-136,307,-1047,1294,443,-875
2670,-294,364,-1351,2031,1572,-762
2671,-537,343,-1671,2417,2556,-483
2672,-729,222,-1903,1951,3861,56
2673,-799,56,-1850,798,6033,888
2674,-840,-43,-1377,-83,8892,1580
2675,-866,-29,-625,244,11482,1839
2676,-1058,23,208,1498,13615,1597
2677,-1225,71,1364,2851,14505,1080
2678,-1093,130,2048,3494,14085,511
2679,-808,-121,2048,4164,12589,93
2680,-351,-383,2048,4212,9189,386
2681,-226,-648,2048,1931,4730,794
2682,-372,-625,2048,-1350,1761,1023
2683,-496,-510,2048,-3682,666,1121
2684,-417,-499,2048,-3827,1068,1275
2685,-234,-497,2048,-2663,1664,1136
2686,-169,-371,2048,-1274,1822,304
2687,-128,-173,2048,-190,1675,-721
2688,-80,57,2048,263,1611,-1413
2689,-7,293,2048,99,1599,-1690
2690,90,604,2048,-241,1355,-1618
2691,151,834,2048,-510,806,-1311
2692,194,1017,2048,-647,-135,-928
2693,180,1161,2048,-571,-1163,-551
2694,127,1297,2048,-483,-1969,-143
2695,92,1405,2048,-536,-2524,421
2696,37,1534,1942,-803,-2911,1128
2697,17,1613,1620,-1217,-3225,1945
2698,-19,1685,1329,-1532,-3366,2896
2699,-44,1729,1079,-1680,-3284,3894
2700,-66,1634,839,-1588,-2975,4888
2701,-118,1493,726,-1047,-2399,5705
2702,-241,1255,714,0,-1461,6203
2703,-415,1018,788,1353,-338,6462
2704,-622,752,965,2656,638,6560
2705,-754,445,1186,3492,1453,6431
2706,-796,197,1409,3232,1849,6251
2707,-794,-56,1518,2148,1669,6271
2708,-844,-260,1549,984,882,6441
2709,-913,-507,1545,302,-176,6720
2710,-931,-768,1454,308,-1030,6931
2711,-825,-1054,1275,591,-1280,6851
2712,-690,-1321,1148,970,-1413,6300
2713,-551,-1444,1030,1351,-1495,5416
2714,-500,-1431,983,1498,-1448,4306
2715,-492,-1324,983,1388,-1309,3236
2716,-487,-1118,971,1048,-938,2410
2717,-426,-916,948,640,-411,1935
2718,-344,-735,963,361,27,1748
2719,-283,-574,942,236,271,1746
2720,-191,-543,907,271,306,1781
2721,-148,-537,889,343,115,1789
2722,-152,-565,856,302,-161,1771
2723,-152,-604,817,208,-356,1792
2724,-156,-653,778,140,-458,1765
2725,-141,-713,761,115,-403,1625
2726,-107,-708,768,48,-235,1406
2727,-91,-696,835,11,-32,1191
2728,-75,-672,882,-10,113,1025
2729,-84,-623,935,-36,255,900
2730,-59,-564,950,-2,341,869
2731,-30,-539,1013,136,283,798
2732,-27,-504,1027,250,109,615
2733,-29,-515,1039,144,-71,476
2734,-17,-488,1041,-122,-129,412
2735,3,-446,1033,-364,-71,371
2736,-1,-413,1017,-536,-30,339
2737,-4,-389,995,-616,-16,318
2738,-4,-402,994,-590,41,275
2739,10,-390,998,-577,144,150
2740,8,-341,1003,-678,265,7
2741,8,-308,1028,-805,312,-26
2742,11,-272,1073,-815,294,-20
2743,16,-239,1073,-686,263,-92
2744,17,-228,1093,-512,187,-204
2745,-14,-229,1086,-313,76,-286
2746,-18,-221,1051,-137,13,-381
2747,-33,-222,1049,-14,-32,-497
2748,-28,-203,1039,80,-55,-647
2749,-15,-188,1016,111,-53,-793
2750,-17,-140,1000,37,-36,-864
2751,-20,-95,1022,-24,19,-825
2752,5,-57,1022,-30,83,-774
2753,31,-22,1048,-24,113,-764
2754,22,0,1050,9,91,-782
2755,14,17,1035,29,37,-749
2756,9,25,990,25,-63,-661
2757,6,8,975,23,-110,-577
2758,-15,-12,964,1,-65,-549
2759,-10,-20,987,-73,44,-549
2760,6,-12,1007,-182,173,-553
2761,19,11,1022,-286,226,-547
2762,22,46,1054,-315,148,-485
2763,6,48,1069,-286,-2,-403
2764,4,48,1016,-209,-106,-360
2765,26,53,982,-112,-157,-401
2766,8,47,964,-14,-192,-430
2767,-8,46,970,37,-135,-403
2768,-2,25,976,87,17,-372
2769,19,30,998,140,160,-370
2770,8,25,1031,134,236,-370
2771,3,16,1036,66,296,-381
2772,-2,12,1063,-4,324,-362
2773,2,11,1062,-110,251,-286
2774,15,14,1094,-245,74,-202
2775,1,13,1088,-366,-131,-153
2776,2,19,1051,-372,-274,-116
2777,-11,2,1000,-260,-313,-88
2778,-13,-8,989,-135,-239,-81
2779,-7,-20,968,-63,-129,-110
2780,-7,-28,953,-53,-53,-120
2781,-19,-35,966,-2,21,-118
2782,-28,-58,983,48,111,-133
2783,-17,-62,1006,76,214,-194
2784,-9,-45,1051,48,261,-270
2785,-8,-38,1090,3,175,-274
2786,15,-34,1130,-38,27,-223
2787,-1,-28,1125,-137,-116,-153
2788,-15,-43,1088,-249,-262,-55
2789,-45,-60,1060,-317,-327,21
2790,-30,-82,1056,-290,-247,70
2791,-4,-109,1058,-149,-96,91
2792,28,-140,1081,58,3,50
2793,27,-158,1083,253,58,-77
2794,12,-175,1131,275,85,-243
2795,14,-159,1130,107,78,-358
2796,14,-141,1129,-165,70,-374
2797,12,-117,1144,-446,19,-315
2798,20,-99,1153,-622,-75,-247
2799,40,-77,1143,-586,-206,-262
2800,43,-87,1136,-436,-333,-340
2801,35,-86,1104,-260,-440,-381
2802,4,-90,1085,-28,-487,-407
2803,8,-99,1077,148,-452,-477
2804,26,-118,1072,187,-387,-543
2805,23,-114,1051,95,-331,-561
2806,27,-86,1056,-59,-286,-508
2807,10,-74,1066,-180,-268,-432
2808,24,-88,1083,-245,-270,-420
2809,33,-101,1082,-303,-288,-467
2810,40,-92,1081,-329,-338,-518
2811,31,-74,1082,-344,-442,-547
2812,21,-82,1062,-309,-499,-530
2813,26,-94,1064,-241,-504,-532
2814,44,-103,1050,-141,-465,-563
2815,42,-98,1082,-77,-409,-612
2816,44,-107,1096,-73,-336,-602
2817,36,-103,1109,-116,-282,-577
2818,40,-108,1141,-174,-262,-557
2819,35,-106,1148,-252,-274,-532
2820,40,-122,1158,-358,-325,-506
2821,54,-122,1120,-475,-424,-458
2822,78,-113,1107,-534,-590,-450
2823,56,-129,1079,-467,-780,-500
2824,40,-147,1066,-383,-842,-557
2825,32,-167,1072,-350,-790,-590
2826,43,-183,1067,-309,-690,-604
2827,47,-196,1091,-260,-588,-696
2828,47,-187,1088,-307,-538,-792
2829,48,-186,1091,-422,-565,-793
2830,27,-179,1102,-491,-594,-764
2831,40,-172,1091,-497,-553,-754
2832,63,-168,1098,-432,-479,-805
2833,84,-154,1085,-348,-487,-911
2834,93,-150,1091,-266,-627,-965
2835,91,-147,1061,-170,-827,-987
2836,78,-157,1057,-116,-999,-999
2837,50,-175,1027,-125,-1036,-995
2838,64,-170,1012,-196,-932,-997
2839,78,-163,1012,-284,-719,-993
2840,89,-159,1025,-325,-555,-979
2841,101,-158,1080,-321,-491,-991
2842,107,-157,1079,-295,-500,-1059
2843,112,-144,1094,-245,-553,-1141
2844,118,-142,1094,-233,-672,-1188
2845,118,-134,1106,-249,-815,-1170
2846,111,-147,1089,-272,-942,-1143
2847,112,-146,1081,-352,-1002,-1090
2848,114,-142,1040,-465,-973,-999
2849,116,-147,1019,-567,-930,-915
2850,118,-125,1016,-586,-875,-897
2851,121,-131,992,-528,-823,-950
2852,124,-138,981,-407,-778,-1014
2853,112,-139,980,-288,-723,-1055
2854,128,-156,972,-223,-684,-1104
2855,135,-160,980,-260,-584,-1208
2856,174,-142,1002,-399,-452,-1311
2857,201,-116,1037,-553,-381,-1383
2858,198,-73,1097,-629,-387,-1420
2859,186,-52,1135,-645,-458,-1413
2860,191,-36,1136,-651,-616,-1350
2861,181,-48,1121,-717,-836,-1235
2862,176,-79,1051,-836,-1000,-1102
2863,150,-108,1022,-971,-1051,-1022
2864,136,-125,965,-1083,-1038,-1004
2865,141,-128,970,-1043,-1020,-1006
2866,131,-141,945,-758,-1006,-1030
2867,150,-162,945,-375,-985,-1125
2868,167,-181,918,-18,-965,-1256
2869,176,-166,914,226,-907,-1407
2870,182,-149,927,351,-795,-1561
2871,185,-109,971,355,-717,-1670
2872,193,-86,991,240,-750,-1676
2873,206,-70,982,111,-879,-1622
2874,211,-68,947,-30,-1047,-1575
2875,189,-75,915,-221,-1165,-1543
2876,195,-75,862,-465,-1170,-1528
2877,212,-71,845,-764,-1040,-1536
2878,259,-50,848,-1092,-838,-1553
2879,273,-34,841,-1411,-629,-1534
2880,290,-3,873,-1653,-420,-1411
2881,297,25,907,-1790,-202,-1250
2882,302,29,943,-1747,91,-1112
2883,315,39,979,-1590,298,-952
2884,308,43,1027,-1342,437,-821
2885,317,20,1088,-1012,427,-801
2886,330,9,1098,-696,259,-872
2887,320,-21,1067,-532,-63,-942
2888,316,-51,1024,-454,-471,-928
2889,308,-63,964,-403,-778,-842
2890,294,-63,883,-362,-899,-766
2891,304,-71,849,-338,-866,-739
2892,281,-66,826,-280,-743,-729
2893,265,-56,831,-131,-542,-708
2894,267,-60,840,74,-319,-647
2895,269,-71,865,238,-143,-594
2896,280,-104,907,251,-28,-612
2897,311,-123,932,91,-16,-690
2898,335,-95,935,-157,-98,-774
2899,346,-65,937,-456,-196,-815
2900,345,-52,944,-717,-362,-790
2901,333,-45,883,-891,-502,-700
2902,331,-56,844,-1008,-594,-596
2903,324,-59,843,-977,-551,-555
2904,327,-49,802,-795,-401,-573
2905,327,-54,812,-565,-276,-637
2906,334,-43,824,-356,-217,-672
2907,340,-29,836,-165,-161,-622
2908,322,-45,837,74,-96,-528
2909,328,-71,872,316,-57,-493
2910,338,-83,913,480,-16,-538
2911,362,-88,916,554,-16,-635
2912,381,-64,943,509,-90,-747
2913,385,-38,932,333,-208,-749
2914,385,-29,926,93,-340,-641
2915,374,-30,913,-69,-434,-534
2916,362,-38,900,-124,-446,-485
2917,366,-36,912,-112,-364,-493
2918,381,-36,907,-77,-274,-502
2919,369,-34,908,-77,-211,-499
2920,378,-36,929,-118,-180,-465
2921,398,-27,916,-178,-118,-420
2922,398,-18,935,-258,-90,-385
2923,405,-24,937,-323,-118,-354
2924,406,-30,945,-311,-174,-346
2925,381,-35,928,-252,-237,-344
2926,367,-42,945,-198,-264,-334
2927,379,-43,941,-131,-254,-333
2928,379,-37,944,-49,-223,-331
2929,391,-47,938,-16,-229,-297
2930,407,-50,959,-24,-245,-243
2931,396,-47,956,-45,-260,-217
2932,388,-52,960,-59,-247,-211
2933,406,-57,949,-42,-274,-200
2934,393,-57,948,-34,-356,-198
2935,387,-86,919,-43,-434,-202
2936,401,-89,916,-94,-454,-211
2937,401,-79,905,-135,-424,-233
2938,417,-73,894,-161,-356,-243
2939,416,-62,898,-204,-313,-221
2940,417,-56,912,-217,-313,-186
2941,410,-71,894,-172,-325,-159
2942,406,-70,906,-131,-319,-172
2943,413,-79,907,-127,-323,-198
2944,403,-83,909,-129,-374,-217
2945,424,-83,915,-131,-420,-202
2946,422,-94,906,-147,-430,-172
2947,415,-96,893,-135,-418,-174
2948,404,-102,896,-94,-393,-196
2949,417,-101,879,-94,-401,-209
2950,430,-103,855,-161,-428,-208
2951,437,-98,828,-229,-465,-219
2952,430,-80,835,-245,-415,-233
2953,418,-71,838,-186,-327,-225
2954,446,-77,864,-114,-225,-213
2955,457,-81,876,-45,-172,-206
2956,448,-84,917,-10,-172,-219
2957,459,-70,925,-30,-190,-227
2958,452,-59,923,-83,-208,-188
2959,458,-65,969,-135,-250,-133
2960,456,-64,957,-170,-292,-88
2961,464,-79,943,-167,-336,-79
2962,480,-99,942,-141,-364,-106
2963,473,-92,930,-137,-370,-137
2964,460,-102,921,-155,-374,-145
2965,445,-101,927,-188,-331,-159
2966,444,-77,949,-198,-264,-149
2967,435,-105,956,-225,-229,-125
2968,451,-108,949,-305,-264,-125
2969,461,-109,963,-426,-336,-167
2970,468,-94,927,-602,-422,-223
2971,491,-63,901,-784,-495,-225
2972,475,-43,858,-874,-565,-180
2973,473,-51,829,-854,-614,-102
2974,466,-51,823,-762,-596,-75
2975,477,-55,796,-649,-542,-112
2976,492,-61,795,-526,-454,-163
2977,490,-66,802,-411,-375,-194
2978,486,-53,804,-370,-292,-180
2979,511,-36,836,-399,-198,-131
2980,519,-31,841,-446,-190,-59
2981,523,-27,830,-452,-293,21
2982,503,-25,834,-368,-409,52
2983,500,-50,821,-213,-452,37
2984,517,-66,772,-81,-434,25
2985,508,-72,768,-10,-375,5
2986,502,-72,771,-2,-288,25
2987,495,-92,781,-40,-211,74
2988,486,-101,789,-129,-141,117
2989,507,-109,795,-229,-61,138
2990,515,-79,833,-278,9,128
2991,509,-53,865,-278,48,150
2992,531,-62,851,-292,-8,222
2993,513,-87,817,-342,-129,304
2994,497,-103,783,-323,-229,339
2995,473,-108,754,-237,-241,322
2996,463,-139,761,-178,-198,289
2997,472,-156,732,-186,-167,292
2998,483,-161,716,-206,-137,279
2999,495,-175,709,-219,-108,244
3000,500,-166,700,-202,-28,207
3001,468,-148,744,-73,119,156
3002,481,-135,759,107,279,109
3003,495,-118,801,197,390,117
3004,508,-119,823,164,343,158
3005,494,-124,820,46,193,195
3006,489,-148,792,-116,50,201
3007,455,-159,750,-295,-28,199
3008,422,-187,730,-454,-69,175
3009,421,-196,677,-598,-143,152
3010,419,-224,597,-838,-235,85
3011,432,-221,518,-1219,-379,15
3012,417,-203,409,-1667,-514,0
3013,388,-153,345,-1946,-567,9
3014,362,-137,316,-1924,-528,-34
3015,334,-90,304,-1633,-422,-94
3016,326,-37,269,-1227,-323,-165
3017,298,33,234,-899,-290,-288
3018,288,85,177,-799,-479,-350
3019,268,132,77,-795,-807,-346
3020,223,174,-65,-864,-1297,-321
3021,111,187,-247,-950,-1792,-239
3022,52,223,-416,-987,-2192,-38
3023,-7,243,-665,-989,-2333,66
3024,-83,284,-912,-754,-1917,107
3025,-192,298,-1273,-221,-860,236
3026,-321,254,-1395,408,541,507
3027,-439,248,-1442,1083,2494,869
3028,-599,232,-1392,1699,4591,1248
3029,-684,182,-1210,2261,6667,1574
3030,-761,140,-840,2992,8636,1820
3031,-824,127,-362,3587,9978,1839
3032,-914,129,197,3945,10595,1652
3033,-975,118,931,4373,10488,1351
3034,-824,200,1606,4691,9853,1011
3035,-679,161,1984,4492,9457,781
3036,-590,8,2048,4021,8666,464
3037,-578,-94,2048,3369,7773,283
3038,-459,-283,2048,2498,6947,615
3039,-300,-444,2048,1156,6218,1044
3040,-188,-537,2048,-524,5226,1427
3041,-122,-517,2048,-1872,3839,1630
3042,-82,-498,2048,-2465,2416,1535
3043,13,-460,2048,-2147,1503,1175
3044,125,-353,2048,-1088,1292,541
3045,181,-226,2048,15,1291,-217
3046,188,-61,2048,386,1134,-670
3047,174,112,2048,-34,726,-670
3048,138,323,2048,-938,416,-411
3049,146,521,2048,-1868,359,-47
3050,181,783,2048,-2461,394,304
3051,244,1064,2048,-2608,294,525
3052,304,1395,2048,-2344,-10,601
3053,367,1720,2048,-1901,-583,677
3054,386,1997,1866,-1452,-1391,1085
3055,288,2048,1641,-1120,-2301,1800
3056,64,2048,1450,-1120,-3208,2722
3057,-113,2048,1209,-965,-3532,4265
3058,-291,2001,995,-538,-3542,5853
3059,-431,1711,822,35,-3375,6994
3060,-571,1389,742,837,-2752,7533
3061,-715,1080,758,1748,-1690,7738
3062,-916,833,930,2466,-543,7798
3063,-1046,586,1260,2894,42,7746
3064,-1131,319,1510,3302,257,7525
3065,-1173,-3,1600,3402,117,7226
3066,-1147,-357,1588,3333,-319,7109
3067,-1047,-720,1536,3087,-708,7093
3068,-950,-975,1458,2554,-934,6933
3069,-897,-1164,1354,1867,-1268,6605
3070,-836,-1307,1278,1402,-1729,6072
3071,-768,-1330,1165,1314,-1969,5171
3072,-736,-1219,1024,1369,-2004,4064
3073,-727,-1050,932,1441,-1956,3076
3074,-685,-895,841,1525,-1739,2414
3075,-570,-821,729,1748,-1325,2052
3076,-466,-784,626,1921,-713,1818
3077,-404,-770,659,1857,121,1675
3078,-383,-808,763,1462,849,1716
3079,-330,-885,967,820,1240,2005
3080,-235,-954,1101,117,1316,2349
3081,-171,-1029,1187,-506,974,2539
3082,-104,-1063,1175,-922,255,2533
3083,-38,-1006,1070,-948,-538,2156
3084,-55,-937,947,-489,-1024,1474
3085,-108,-894,845,107,-1208,865
3086,-102,-870,777,496,-1125,447
3087,-64,-826,755,494,-719,146
3088,-23,-725,751,74,-176,3
3089,-7,-616,814,-604,173,50
3090,-5,-506,847,-1217,294,146
3091,-19,-446,895,-1575,345,218
3092,3,-387,921,-1686,388,271
3093,23,-325,890,-1606,304,292
3094,26,-308,879,-1250,140,236
3095,35,-332,829,-637,62,17
3096,30,-359,890,99,189,-374
3097,11,-360,933,654,382,-752
3098,18,-348,972,783,554,-940
3099,17,-311,1020,589,720,-1057
3100,-2,-257,1069,232,822,-1108
3101,11,-182,1079,-231,816,-1043
3102,38,-114,1067,-672,664,-897
3103,69,-79,1059,-891,451,-754
3104,76,-52,1076,-854,261,-700
3105,58,-17,1070,-627,101,-760
3106,32,11,1063,-393,74,-846
3107,27,37,1042,-229,173,-862
3108,40,66,1009,-118,242,-840
3109,30,68,1001,-24,238,-792
3110,8,33,1013,42,253,-756
3111,2,12,1037,70,378,-770
3112,22,12,1044,33,576,-797
3113,48,16,1090,-20,753,-797
3114,48,24,1136,-47,830,-793
3115,60,48,1212,0,769,-793
3116,59,50,1235,128,640,-792
3117,49,35,1248,218,482,-788
3118,43,-5,1271,189,279,-786
3119,22,-26,1268,76,21,-801
3120,4,-50,1227,-55,-186,-813
3121,-4,-53,1174,-172,-303,-833
3122,-25,-55,1149,-225,-286,-840
3123,-4,-53,1143,-215,-176,-850
3124,11,-36,1133,-217,-51,-856
3125,3,-15,1159,-266,80,-881
3126,0,-20,1159,-309,126,-885
3127,6,-21,1182,-374,130,-870
3128,41,-6,1196,-483,111,-872
3129,50,-12,1232,-553,-12,-899
3130,47,-24,1241,-608,-204,-909
3131,32,-16,1239,-717,-401,-862
3132,20,-7,1226,-801,-575,-752
3133,15,-22,1220,-754,-682,-676
3134,0,-44,1185,-631,-721,-694
3135,18,-58,1150,-473,-719,-762
3136,24,-71,1123,-340,-670,-852
3137,18,-74,1085,-284,-612,-928
3138,-24,-64,1080,-309,-522,-950
3139,-20,-70,1123,-366,-405,-911
3140,0,-71,1130,-477,-272,-883
3141,10,-67,1131,-694,-190,-852
3142,39,-69,1139,-958,-219,-768
3143,43,-53,1157,-1106,-348,-706
3144,32,-48,1154,-1088,-502,-692
3145,10,-64,1155,-934,-622,-715
3146,18,-89,1143,-704,-702,-770
3147,9,-104,1109,-459,-739,-792
3148,13,-122,1096,-237,-733,-799
3149,7,-134,1077,-110,-670,-864
3150,9,-146,1054,-125,-557,-940
3151,-19,-153,1054,-268,-407,-956
3152,-11,-160,1066,-510,-231,-932
3153,36,-151,1122,-829,-110,-901
3154,51,-120,1161,-1116,-182,-901
3155,54,-129,1185,-1282,-389,-911
3156,54,-114,1191,-1256,-643,-918
3157,57,-101,1186,-1022,-842,-1006
3158,59,-109,1190,-733,-1020,-1145
3159,53,-112,1139,-473,-1217,-1211
3160,43,-118,1067,-334,-1352,-1241
3161,43,-146,1023,-358,-1428,-1221
3162,50,-139,1000,-461,-1372,-1209
3163,56,-113,973,-573,-1274,-1208
3164,45,-96,937,-682,-1116,-1161
3165,38,-87,941,-780,-936,-1061
3166,84,-84,1001,-704,-848,-975
3167,127,-59,1010,-415,-881,-1045
3168,140,-49,1009,-79,-1051,-1221
3169,143,-41,1000,212,-1274,-1362
3170,113,-34,985,376,-1399,-1405
3171,117,-31,981,412,-1391,-1340
3172,140,-44,949,302,-1295,-1239
3173,154,-31,967,97,-1200,-1135
3174,162,-36,926,-145,-1157,-1022
3175,161,-32,918,-389,-1151,-905
3176,149,-37,894,-571,-1155,-811
3177,144,-52,871,-625,-1098,-758
3178,164,-46,859,-573,-993,-768
3179,170,-40,867,-479,-924,-821
3180,180,-48,869,-393,-893,-850
3181,194,-49,888,-284,-829,-881
3182,196,-38,913,-127,-741,-917
3183,210,-42,918,-10,-670,-936
3184,206,-43,922,1,-655,-926
3185,214,-36,959,-43,-653,-872
3186,227,-36,956,-100,-665,-780
3187,254,-36,955,-180,-739,-680
3188,236,-54,937,-233,-842,-622
3189,233,-66,940,-219,-903,-624
3190,211,-94,905,-172,-874,-663
3191,210,-96,908,-155,-790,-709
3192,219,-103,906,-245,-700,-719
3193,231,-108,894,-428,-598,-715
3194,247,-110,891,-596,-542,-686
3195,261,-96,910,-596,-489,-680
3196,266,-74,942,-444,-438,-704
3197,249,-82,977,-194,-403,-709
3198,273,-86,1011,19,-428,-754
3199,286,-94,998,44,-549,-815
3200,281,-103,988,-49,-713,-829
3201,280,-109,949,-178,-833,-827
3202,257,-83,930,-288,-833,-825
3203,264,-90,897,-372,-741,-782
3204,285,-92,896,-428,-618,-729
3205,322,-80,867,-458,-524,-715
3206,316,-82,887,-456,-446,-743
3207,305,-62,901,-461,-364,-747
3208,312,-65,942,-430,-262,-719
3209,339,-30,1003,-307,-176,-725
3210,359,-28,1024,-155,-204,-739
3211,372,-40,1031,-45,-387,-721
3212,361,-47,1029,-4,-616,-700
3213,340,-55,1005,-47,-784,-717
3214,337,-64,992,-139,-889,-708
3215,340,-83,927,-258,-913,-657
3216,331,-87,894,-387,-875,-631
3217,336,-77,881,-516,-762,-637
3218,339,-70,872,-602,-649,-624
3219,345,-43,892,-571,-543,-596
3220,347,-48,889,-467,-450,-577
3221,366,-45,923,-375,-395,-581
3222,376,-43,947,-346,-385,-567
3223,378,-53,966,-334,-461,-540
3224,372,-65,965,-276,-547,-553
3225,377,-60,961,-225,-594,-561
3226,396,-65,947,-120,-649,-555
3227,389,-64,921,-2,-711,-579
3228,366,-64,895,70,-741,-596
3229,356,-81,886,138,-708,-596
3230,359,-89,873,148,-641,-586
3231,373,-92,864,27,-571,-606
3232,373,-78,845,-188,-520,-584
3233,378,-65,837,-364,-495,-520
3234,380,-76,818,-438,-432,-487
3235,402,-71,831,-446,-329,-504
3236,399,-48,860,-467,-229,-538
3237,414,-40,884,-458,-225,-497
3238,416,-54,880,-387,-317,-452
3239,418,-57,871,-295,-387,-456
3240,421,-64,842,-204,-415,-481
3241,416,-65,848,-83,-372,-499
3242,405,-66,864,48,-303,-499
3243,408,-77,852,136,-264,-491
3244,412,-98,864,162,-231,-477
3245,416,-103,874,109,-190,-489
3246,422,-100,900,-26,-110,-512
3247,430,-81,901,-217,-24,-522
3248,420,-73,918,-409,-6,-487
3249,440,-56,922,-502,-53,-424
3250,447,-51,931,-520,-127,-387
3251,439,-62,931,-528,-194,-370
3252,435,-70,909,-491,-241,-366
3253,436,-72,905,-407,-258,-374
3254,432,-85,893,-317,-252,-407
3255,419,-83,899,-217,-225,-444
3256,438,-76,909,-120,-188,-454
3257,435,-81,894,-49,-190,-440
3258,447,-89,907,0,-202,-438
3259,442,-87,906,21,-194,-459
3260,433,-86,913,-18,-172,-479
3261,439,-71,919,-118,-174,-499
3262,425,-73,933,-292,-159,-479
3263,440,-86,926,-485,-116,-434
3264,446,-78,944,-670,-67,-407
3265,451,-63,930,-846,-40,-379
3266,432,-79,941,-1018,-71,-352
3267,419,-94,921,-1155,-79,-340
3268,429,-84,897,-1237,-36,-346
3269,453,-91,892,-1249,5,-366
3270,460,-70,892,-1202,-53,-405
3271,444,-51,903,-1047,-129,-467
3272,450,-28,946,-731,-180,-530
3273,470,-5,950,-299,-227,-583
3274,482,-2,957,83,-290,-641
3275,471,-24,934,302,-383,-682
3276,465,-27,916,320,-461,-676
3277,451,-37,872,191,-450,-624
3278,463,-43,879,-45,-366,-551
3279,460,-42,884,-342,-268,-483
3280,460,-31,877,-588,-204,-420
3281,456,-35,874,-688,-151,-358
3282,459,-40,873,-665,-55,-350
3283,457,-51,885,-659,74,-370
3284,444,-72,924,-750,171,-352
3285,452,-75,940,-909,234,-282
3286,474,-71,945,-1081,277,-235
3287,497,-57,947,-1231,238,-219
3288,518,-53,909,-1309,85,-153
3289,507,-32,922,-1241,-131,-81
3290,478,-44,902,-983,-266,-73
3291,465,-64,880,-633,-288,-127
3292,480,-79,866,-256,-272,-184
3293,493,-87,885,85,-256,-229
3294,487,-101,865,345,-249,-284
3295,464,-108,879,441,-225,-297
3296,466,-126,884,369,-159,-245
3297,473,-140,904,208,-98,-145
3298,494,-143,930,33,-55,-73
3299,514,-141,946,-167,-92,-75
3300,511,-123,947,-307,-174,-108
3301,491,-119,947,-333,-319,-122
3302,478,-128,917,-254,-446,-108
3303,468,-150,886,-143,-526,-127
3304,467,-154,845,-75,-530,-159
3305,465,-157,815,-43,-502,-192
3306,481,-149,797,-53,-436,-219
3307,474,-140,782,-102,-329,-237
3308,478,-125,777,-145,-219,-225
3309,469,-100,796,-149,-112,-170
3310,490,-108,813,-106,-43,-141
3311,496,-106,832,-47,-57,-174
3312,492,-111,845,-18,-114,-245
3313,477,-100,831,-18,-206,-299
3314,487,-95,802,-32,-295,-331
3315,477,-98,787,-84,-348,-338
3316,481,-84,741,-167,-354,-321
3317,484,-81,720,-256,-313,-292
3318,471,-66,703,-282,-252,-278
3319,475,-63,693,-233,-168,-270
3320,481,-36,695,-141,-36,-252
3321,496,-27,722,0,121,-233
3322,507,-28,733,121,240,-215
3323,509,-60,782,171,283,-215
3324,501,-63,835,107,279,-241
3325,515,-47,831,-79,248,-245
3326,520,-40,828,-299,171,-206
3327,521,-14,837,-350,115,-131
3328,530,-8,867,-204,107,-106
3329,535,-6,864,0,85,-114
3330,543,-15,864,160,54,-110
3331,532,-23,854,222,-16,-94
3332,519,-37,842,216,-79,-55
3333,503,-46,815,162,-40,0
3334,504,-54,828,85,103,39
3335,506,-60,833,7,267,78
3336,498,-77,895,-75,359,117
3337,519,-80,911,-137,355,156
3338,535,-73,911,-165,302,152
3339,526,-76,937,-139,187,125
3340,512,-74,964,-45,109,128
3341,506,-77,957,85,85,138
3342,495,-101,925,171,60,121
3343,504,-109,918,158,21,115
3344,491,-111,919,83,-6,121
3345,492,-122,908,9,13,111
3346,499,-114,909,-84,46,93
3347,494,-110,904,-190,44,125
3348,499,-109,888,-245,42,158
3349,497,-113,895,-219,62,162
3350,507,-104,904,-141,101,117
3351,503,-116,907,-61,128,60
3352,501,-112,936,0,117,44
3353,495,-110,937,48,60,66
3354,494,-131,936,89,-8,64
3355,493,-137,915,76,-55,25
3356,491,-132,911,19,-75,5
3357,495,-130,915,-55,-67,21
3358,490,-122,892,-151,-81,54
3359,485,-125,872,-225,-106,76
3360,485,-142,857,-250,-116,60
3361,482,-131,838,-227,-88,21
3362,488,-131,836,-204,-34,-18
3363,491,-129,836,-186,3,-28
3364,509,-118,837,-192,29,-57
3365,492,-114,830,-213,-12,-86
3366,480,-103,849,-223,-81,-88
3367,478,-97,821,-200,-98,-71
3368,491,-93,811,-168,-86,-79
3369,491,-83,775,-182,-104,-104
3370,496,-86,750,-241,-176,-110
3371,484,-88,702,-299,-229,-94
3372,469,-98,688,-301,-211,-96
3373,479,-102,656,-280,-135,-141
3374,481,-82,674,-268,-51,-184
3375,467,-70,669,-272,19,-204
3376,457,-70,654,-329,54,-172
3377,450,-90,648,-446,46,-108
3378,437,-94,605,-635,7,-65
3379,408,-117,548,-864,-61,-75
3380,370,-126,477,-1129,-192,-122
3381,354,-82,397,-1463,-366,-196
3382,334,-27,283,-1852,-545,-301
3383,309,48,180,-2262,-809,-368
3384,290,125,17,-2729,-1241,-274
3385,272,210,-123,-2981,-1651,-59
3386,273,377,-344,-3002,-2084,95
3387,263,584,-622,-2872,-2153,167
3388,87,830,-1065,-2311,-2334,3
3389,-300,1015,-1563,-647,-2553,-231
3390,-755,980,-2048,2597,-1932,-249
3391,-1202,730,-2048,6427,705,228
3392,-1426,288,-2048,8160,5083,970
3393,-1380,-149,-2048,6681,9962,1638
3394,-1504,-537,-1198,3324,13740,1681
3395,-1494,-718,-38,396,15869,1007
3396,-1504,-677,1307,-1329,16894,382
3397,-1350,-345,2048,-661,16291,271
3398,-914,-138,2048,1765,13800,507
3399,-445,-2,2048,3726,10468,808
3400,-246,-50,2048,3496,6533,791
3401,-399,-121,2048,1773,3480,683
3402,-449,-149,2048,-67,1765,1076
3403,-305,-144,2048,-1157,1333,1511
3404,-199,-43,2048,-1319,2060,1402
3405,-160,62,2048,-905,3033,835
3406,-186,150,2048,-354,3623,214
3407,-136,233,2048,-200,3455,-102
3408,-24,411,2048,-612,2664,-88
3409,42,564,2048,-1147,1443,111
3410,103,701,2048,-1323,144,417
3411,109,875,2048,-1194,-694,558
3412,116,1013,2048,-1065,-1268,656
3413,117,1163,2048,-1075,-1811,953
3414,102,1299,2048,-1180,-2233,1443
3415,44,1381,1942,-1215,-2372,2146
3416,-21,1352,1701,-1147,-2366,3027
3417,-76,1174,1543,-909,-2288,3849
3418,-105,1019,1465,-413,-2059,4330
3419,-168,927,1381,234,-1600,4376
3420,-268,776,1319,753,-1198,4468
3421,-331,702,1271,908,-899,4732
3422,-418,597,1208,544,-668,5164
3423,-506,457,1126,-219,-553,5789
3424,-582,298,1021,-1145,-543,6435
3425,-666,131,965,-1936,-633,7005
3426,-751,-40,978,-2129,-870,7427
3427,-785,-312,1008,-1206,-1270,7503
3428,-756,-536,1009,583,-1434,6894
3429,-716,-689,973,2503,-1206,5779
3430,-645,-864,971,3953,-870,4630
3431,-567,-945,991,4357,-450,3703
3432,-496,-915,980,3683,-71,3125
3433,-445,-911,979,2490,9,2998
3434,-417,-844,969,1269,54,3005
3435,-382,-722,939,199,185,2998
3436,-331,-640,918,-528,291,3019
3437,-298,-557,900,-854,341,2941
3438,-305,-467,890,-936,337,2791
3439,-330,-455,928,-754,171,2732
3440,-330,-499,928,-153,-204,2712
3441,-284,-582,847,781,-528,2513
3442,-283,-717,844,1775,-571,2041
3443,-267,-841,883,2468,-399,1517
3444,-217,-927,930,2507,-51,1080
3445,-186,-933,1000,1876,265,767
3446,-171,-897,1015,916,392,613
3447,-185,-835,1038,-12,333,603
3448,-159,-749,1069,-645,222,632
3449,-132,-665,1061,-897,166,623
3450,-103,-623,1043,-850,78,554
3451,-88,-600,1051,-602,-6,400
3452,-87,-582,1066,-305,-55,162
3453,-92,-553,1045,-69,-69,-108
3454,-94,-533,1015,7,-79,-329
3455,-100,-494,1002,-167,-84,-497
3456,-77,-416,971,-506,-40,-559
3457,-62,-335,977,-852,35,-559
3458,-36,-266,1015,-1057,117,-555
3459,-35,-226,1057,-1043,134,-571
3460,-26,-205,1106,-858,101,-641
3461,-33,-168,1115,-651,62,-729
3462,-41,-138,1105,-520,0,-799
3463,-30,-124,1097,-461,-73,-782
3464,-28,-95,1058,-446,-157,-750
3465,-34,-81,1027,-448,-198,-782
3466,-30,-61,1030,-458,-184,-831
3467,-33,-23,1003,-456,-100,-856
3468,-40,15,982,-424,3,-874
3469,-23,50,998,-411,101,-883
3470,-24,71,981,-430,175,-899
3471,-44,120,1001,-483,205,-877
3472,-27,134,1012,-475,191,-750
3473,-10,128,1037,-344,148,-557
3474,-17,94,1056,-127,37,-459
3475,-25,42,1055,54,-20,-456
3476,-34,19,1040,144,-24,-508
3477,-57,-2,1031,175,-22,-571
3478,-62,-5,1007,150,0,-651
3479,-50,39,962,89,82,-717
3480,-52,84,942,111,171,-778
3481,-49,143,955,240,244,-809
3482,-41,177,993,503,283,-747
3483,-38,172,1043,794,218,-633
3484,-56,128,1059,910,107,-536
3485,-49,103,1068,792,46,-438
3486,-48,62,1066,460,21,-342
3487,-53,35,1059,70,21,-249
3488,-44,5,1069,-284,70,-176
3489,-36,-4,1065,-547,123,-120
3490,-44,23,1039,-688,138,-124
3491,-65,55,1045,-676,89,-147
3492,-80,58,1062,-471,35,-104
3493,-53,60,1064,-159,35,-88
3494,-50,45,1047,39,56,-98
3495,-35,38,1049,85,46,-100
3496,-44,33,1023,60,3,-81
3497,-61,23,1042,19,-26,-43
3498,-81,-2,1072,-30,-2,15
3499,-54,-34,1063,-116,50,44
3500,-49,-33,1083,-190,87,29
3501,-57,-27,1081,-241,80,23
3502,-55,-27,1092,-227,-12,42
3503,-79,-36,1103,-135,-108,56
3504,-81,-56,1087,-28,-153,33
3505,-83,-76,1062,64,-167,-14
3506,-95,-89,1040,115,-139,-47
3507,-83,-108,1033,111,-42,-67
3508,-67,-110,1039,52,72,-94
3509,-46,-99,1065,-24,162,-81
3510,-52,-103,1079,-45,263,-59
3511,-47,-101,1100,-8,351,-73
3512,-55,-106,1151,72,375,-92
3513,-39,-129,1183,107,339,-129
3514,-21,-132,1185,78,203,-188
3515,-13,-137,1181,1,-8,-237
3516,-23,-147,1178,-79,-192,-307
3517,-31,-132,1165,-106,-305,-389
3518,-50,-128,1177,-116,-342,-422
3519,-40,-129,1157,-125,-348,-426
3520,-24,-111,1145,-141,-346,-411
3521,-37,-110,1133,-167,-391,-454
3522,-52,-111,1154,-196,-444,-508
3523,-52,-109,1145,-245,-440,-551
3524,-27,-81,1140,-288,-477,-567
3525,-17,-82,1116,-338,-590,-545
3526,-30,-71,1092,-409,-731,-543
3527,-45,-75,1080,-411,-778,-571
3528,-41,-68,1052,-297,-729,-631
3529,-34,-69,1046,-176,-651,-696
3530,-21,-61,1059,-118,-622,-752
3531,-23,-60,1061,-141,-616,-795
3532,-23,-54,1050,-227,-608,-809
3533,-18,-45,1076,-313,-596,-766
3534,10,-23,1082,-327,-567,-715
3535,19,-23,1091,-317,-583,-686
3536,19,-24,1091,-303,-655,-663
3537,11,-43,1086,-325,-735,-602
3538,14,-62,1056,-356,-788,-567
3539,-1,-74,1047,-381,-813,-559
3540,-13,-95,1046,-446,-817,-569
3541,-15,-103,1020,-528,-793,-581
3542,-10,-115,1025,-594,-721,-583
3543,-23,-129,1012,-661,-614,-581
3544,-15,-128,1019,-776,-497,-553
3545,-15,-154,1062,-842,-391,-491
3546,-18,-169,1091,-821,-321,-450
3547,15,-170,1123,-737,-342,-477
3548,33,-189,1118,-608,-483,-590
3549,43,-195,1119,-413,-692,-741
3550,25,-183,1099,-200,-844,-924
3551,2,-180,1073,-38,-918,-1055
3552,-7,-180,1067,27,-920,-1081
3553,11,-186,1023,-45,-848,-1075
3554,24,-183,1015,-213,-694,-1086
3555,2,-172,1007,-405,-512,-1100
3556,-13,-148,1020,-555,-334,-1063
3557,-35,-170,1054,-604,-157,-995
3558,6,-190,1106,-604,-40,-961
3559,40,-192,1135,-639,15,-995
3560,54,-205,1164,-674,-118,-1069
3561,62,-213,1198,-653,-262,-1168
3562,61,-217,1185,-518,-528,-1243
3563,61,-217,1166,-356,-788,-1333
3564,49,-207,1134,-245,-963,-1401
3565,45,-218,1084,-200,-1077,-1409
3566,43,-224,1010,-143,-1098,-1448
3567,35,-214,988,-124,-1032,-1534
3568,-3,-227,977,-155,-903,-1612
3569,-2,-237,999,-237,-768,-1680
3570,38,-210,1003,-428,-672,-1774
3571,61,-172,986,-727,-674,-1829
3572,62,-145,982,-1030,-739,-1780
3573,73,-106,974,-1124,-780,-1702
3574,83,-82,994,-940,-788,-1686
3575,84,-76,1003,-592,-770,-1721
3576,110,-74,1032,-194,-752,-1801
3577,120,-82,1031,119,-758,-1883
3578,149,-80,1040,281,-799,-1911
3579,156,-85,1053,291,-848,-1909
3580,156,-73,1051,208,-911,-1862
3581,146,-69,1052,33,-975,-1786
3582,146,-77,1031,-229,-1067,-1694
3583,140,-73,1012,-530,-1145,-1622
3584,145,-72,983,-803,-1145,-1567
3585,136,-37,981,-997,-1016,-1514
3586,133,-14,1001,-1042,-842,-1440
3587,148,8,1023,-815,-702,-1321
3588,180,8,1025,-375,-649,-1217
3589,199,-6,1025,66,-692,-1233
3590,219,-36,1025,369,-793,-1346
3591,217,-44,1003,484,-942,-1430
3592,204,-58,1005,406,-1118,-1469
3593,178,-64,990,242,-1243,-1461
3594,174,-62,963,41,-1286,-1454
3595,187,-59,928,-182,-1284,-1422
3596,198,-41,894,-374,-1231,-1354
3597,198,-26,897,-479,-1155,-1293
3598,202,-11,899,-465,-1022,-1292
3599,216,21,946,-331,-877,-1290
3600,246,37,958,-32,-801,-1264
3601,262,56,981,308,-821,-1288
3602,255,62,962,519,-899,-1293
3603,272,71,936,617,-1043,-1223
3604,279,55,902,671,-1198,-1127
3605,298,53,872,757,-1327,-1098
3606,299,48,839,830,-1360,-1143
3607,290,56,833,847,-1340,-1190
3608,268,54,815,845,-1252,-1200
3609,293,67,818,796,-1090,-1178
3610,300,79,817,662,-893,-1108
3611,308,72,806,414,-686,-989
3612,305,85,807,93,-491,-868
3613,303,73,855,-225,-333,-754
3614,320,70,891,-485,-266,-698
3615,351,96,914,-637,-288,-717
3616,374,109,908,-702,-393,-778
3617,380,122,910,-711,-549,-786
3618,376,150,880,-682,-698,-745
3619,373,153,869,-524,-811,-674
3620,374,138,828,-313,-858,-625
3621,368,120,816,-116,-834,-639
3622,352,110,825,-34,-786,-676
3623,356,108,802,-90,-680,-645
3624,358,104,806,-206,-547,-518
3625,377,76,802,-321,-458,-397
3626,397,67,813,-377,-397,-391
3627,393,69,827,-463,-375,-463
3628,397,84,839,-596,-342,-491
3629,395,93,845,-704,-325,-432
3630,405,123,867,-721,-270,-360
3631,397,117,863,-690,-249,-297
3632,410,124,844,-600,-262,-241
3633,422,97,840,-434,-258,-219
3634,439,83,847,-241,-299,-250
3635,430,70,864,-131,-385,-282
3636,411,40,863,-114,-456,-282
3637,393,23,852,-133,-465,-280
3638,392,11,860,-168,-403,-288
3639,396,12,857,-264,-301,-303
3640,409,2,867,-432,-206,-268
3641,409,16,906,-563,-151,-180
3642,438,16,923,-584,-124,-131
3643,447,17,926,-549,-124,-149
3644,449,29,969,-489,-147,-165
3645,445,31,952,-387,-194,-129
3646,430,17,947,-266,-278,-96
3647,430,15,943,-120,-344,-88
3648,431,12,930,66,-358,-135
3649,433,11,941,216,-352,-176
3650,440,-4,921,255,-319,-155
3651,451,-27,898,220,-266,-120
3652,456,-35,921,162,-243,-110
3653,461,-33,932,119,-260,-135
3654,442,-16,971,105,-280,-178
3655,416,-14,986,175,-329,-200
3656,415,-24,1003,298,-348,-237
3657,438,-29,969,283,-389,-223
3658,474,-36,943,62,-479,-172
3659,460,-33,885,-252,-608,-106
3660,432,-27,859,-432,-667,-51
3661,442,-1,857,-391,-588,-47
3662,451,22,871,-174,-465,-118
3663,490,24,854,56,-358,-192
3664,500,20,876,216,-321,-202
3665,490,25,891,316,-299,-190
3666,492,18,912,316,-239,-165
3667,499,11,931,234,-159,-118
3668,484,13,981,130,-118,-83
3669,487,10,1011,62,-155,-75
3670,476,8,1035,-59,-284,-79
3671,477,-11,1021,-270,-471,-43
3672,492,-21,947,-518,-649,13
3673,485,-13,884,-709,-760,42
3674,464,-7,847,-739,-792,29
3675,465,6,819,-651,-717,-4
3676,489,-5,785,-499,-594,-47
3677,502,9,788,-319,-465,-108
3678,479,36,836,-163,-354,-159
3679,474,37,875,-69,-278,-155
3680,498,35,907,-47,-252,-83
3681,507,24,881,-129,-348,-10
3682,508,3,842,-329,-549,29
3683,504,-19,779,-569,-729,27
3684,485,-3,729,-731,-792,15
3685,482,15,709,-711,-735,29
3686,512,37,694,-555,-588,31
3687,533,39,701,-317,-389,1
3688,508,36,725,-45,-204,-45
3689,484,32,788,123,-77,-55
3690,489,18,810,113,-16,13
3691,485,-6,804,-49,-65,111
3692,510,-51,778,-356,-237,167
3693,529,-51,708,-760,-389,158
3694,525,-17,670,-1067,-407,128
3695,512,25,677,-1114,-346,125
3696,520,39,659,-893,-155,132
3697,527,41,668,-510,70,119
3698,533,30,703,-96,248,134
3699,546,37,754,232,365,134
3700,535,28,808,392,412,121
3701,553,18,858,382,404,132
3702,555,13,910,236,335,150
3703,545,11,910,1,222,189
3704,525,-2,903,-270,95,250
3705,521,-27,854,-528,11,314
3706,510,-46,793,-737,13,349
3707,517,-51,759,-844,91,343
3708,511,-31,768,-801,238,326
3709,514,-4,796,-542,416,322
3710,521,16,858,-145,570,339
3711,552,2,901,236,593,357
3712,559,-19,933,435,458,347
3713,546,-58,928,433,240,347
3714,516,-94,893,257,95,365
3715,494,-109,873,5,91,369
3716,485,-97,866,-202,187,369
3717,491,-118,883,-321,316,390
3718,501,-121,888,-333,406,392
3719,504,-126,905,-272,423,347
3720,497,-109,940,-165,388,267
3721,501,-95,969,11,343,236
3722,495,-106,969,207,322,199
3723,498,-124,991,271,283,162
3724,505,-136,1008,164,189,150
3725,516,-130,985,-77,87,185
3726,508,-119,956,-319,9,240
3727,493,-121,930,-442,-16,275
3728,487,-129,896,-440,3,271
3729,492,-133,908,-321,37,220
3730,490,-142,909,-129,85,150
3731,479,-135,940,42,113,76
3732,477,-148,946,140,107,46
3733,471,-133,953,185,56,25
3734,479,-144,952,148,-8,23
3735,499,-149,945,72,-69,13
3736,503,-155,915,-53,-135,-20
3737,484,-123,895,-209,-176,-38
3738,487,-118,882,-278,-172,-34
3739,482,-109,863,-254,-159,-14
3740,481,-109,864,-176,-112,-47
3741,484,-98,849,-65,-28,-84
3742,480,-98,878,25,64,-100
3743,493,-95,894,46,111,-104
3744,494,-102,900,0,78,-90
3745,490,-103,906,-69,5,-63
3746,494,-109,900,-131,-65,-61
3747,500,-107,873,-196,-131,-102
3748,487,-111,844,-270,-188,-145
3749,472,-98,822,-311,-206,-155
3750,472,-91,812,-299,-165,-157
3751,477,-82,810,-297,-98,-159
3752,472,-85,808,-282,-30,-186
3753,480,-74,799,-241,23,-209
3754,473,-67,799,-196,48,-229
3755,472,-71,784,-215,13,-243
3756,470,-64,745,-274,-36,-235
3757,472,-56,713,-319,-75,-229
3758,442,-43,691,-344,-106,-211
3759,404,-46,615,-397,-172,-192
3760,368,-55,530,-491,-280,-163
3761,327,-85,448,-627,-405,-172
3762,274,-101,346,-860,-567,-198
3763,240,-86,249,-1241,-702,-245
3764,206,-65,123,-1819,-899,-288
3765,185,-32,6,-2309,-1067,-209
3766,185,20,-75,-2682,-1405,-120
3767,166,108,-212,-2958,-1655,-125
3768,138,295,-377,-3202,-1836,-250
3769,147,536,-579,-3411,-1887,-221
3770,156,781,-970,-3536,-1981,-292
3771,-3,1029,-1340,-3565,-2418,-278
3772,-329,1166,-1790,-2661,-2045,425
3773,-731,1040,-2048,-342,-387,1300
3774,-1141,628,-2048,3109,2601,2011
3775,-1394,92,-1833,5748,6355,2658
3776,-1404,-346,-1153,6505,9753,2673
3777,-1267,-587,-421,5796,12232,1835
3778,-1052,-645,535,4312,13806,529
3779,-941,-361,1627,2789,14183,-881
3780,-873,-79,2048,1818,13273,-1579
3781,-712,102,2048,1892,11044,-961
3782,-421,73,2048,2291,8560,550
3783,-135,-170,2048,2082,5933,1673
3784,-62,-283,2048,1404,3908,1556
3785,-107,-308,2048,486,2666,957
3786,-85,-258,2048,-571,1968,648
3787,-68,-111,2048,-1448,1785,529
3788,-16,98,2048,-2186,1763,375
3789,68,350,2048,-2768,1666,240
3790,144,649,2048,-3040,1517,214
3791,235,962,2048,-2864,1433,371
3792,365,1267,2048,-2372,1582,615
3793,429,1551,2048,-1581,1791,816
3794,406,1759,2048,-739,1873,978
3795,306,1813,2048,-522,1177,1394
3796,146,1768,2048,-387,345,2427
3797,24,1663,2048,-112,-385,3625
3798,-119,1466,2048,-342,-1124,4580
3799,-289,1237,1849,-809,-1561,5560
3800,-400,1027,1586,-1407,-2104,6611
3801,-453,804,1436,-1504,-2594,7351
3802,-518,592,1342,-624,-2602,7541
3803,-573,417,1302,908,-2090,7164
3804,-683,283,1288,2494,-1321,6589
3805,-816,144,1290,3730,-618,6144
3806,-946,-137,1388,4191,-170,5832
3807,-1004,-525,1516,3921,56,5787
3808,-979,-790,1527,3105,173,5898
3809,-911,-964,1454,1785,52,6048
3810,-812,-1076,1371,591,-473,6226
3811,-714,-1111,1261,-14,-940,6082
3812,-632,-1106,1126,-104,-1088,5558
3813,-584,-1136,1017,152,-1120,4886
3814,-557,-1098,931,607,-1129,4171
3815,-523,-1019,882,1082,-1069,3412
3816,-495,-971,810,1503,-938,2798
3817,-423,-956,771,1863,-706,2357
3818,-357,-893,743,1939,-295,2056
3819,-278,-853,762,1619,107,1859
3820,-206,-826,847,1134,347,1712
3821,-165,-794,916,646,408,1648
3822,-118,-781,990,271,279,1646
3823,-85,-772,1029,107,97,1603
3824,-74,-777,1038,136,-149,1474
3825,-64,-826,1009,298,-440,1255
3826,-89,-813,993,582,-633,875
3827,-106,-786,934,841,-670,412
3828,-123,-746,896,996,-594,39
3829,-106,-675,884,951,-374,-247
3830,-89,-595,875,607,-79,-374
3831,-70,-518,897,136,167,-317
3832,-52,-434,947,-235,277,-245
3833,-28,-368,974,-459,355,-241
3834,-36,-307,993,-567,435,-262
3835,-7,-263,1029,-547,494,-272
3836,32,-214,1040,-473,480,-307
3837,26,-158,1054,-459,333,-405
3838,-10,-122,1092,-493,187,-516
3839,-26,-90,1097,-592,111,-579
3840,-15,-69,1083,-616,48,-499
3841,20,-61,1069,-516,-22,-415
3842,27,-32,1045,-340,-20,-489
3843,-4,-5,1044,-153,25,-678
3844,-27,6,1050,-8,33,-780
3845,-38,28,1038,64,50,-792
3846,-7,73,1017,68,125,-823
3847,25,126,1007,3,210,-817
3848,33,168,1019,-47,162,-762
3849,-8,207,1023,-83,93,-645
3850,-20,203,1047,-94,83,-465
3851,4,174,1050,-32,56,-299
3852,-15,149,1057,89,0,-245
3853,-5,113,1062,273,-24,-282
3854,-7,61,1080,486,11,-381
3855,11,64,1116,603,64,-532
3856,28,116,1105,496,93,-692
3857,11,136,1098,236,21,-713
3858,8,166,1072,-16,-124,-577
3859,-5,162,1049,-167,-252,-389
3860,-14,151,1002,-280,-305,-233
3861,-9,135,984,-333,-299,-135
