sequence,AccelerometerX,AccelerometerY,AccelerometerZ,GyroscopeX,GyroscopeY,GyroscopeZ
0,284,-9,977,153,-20,-81
1,277,-12,991,99,-3,-81
2,282,-2,984,28,9,-60
3,278,-5,986,-24,1,-31
4,277,4,976,-55,-15,-5
5,268,-4,978,-48,-26,10
6,272,-14,975,-13,-36,10
7,277,-8,980,21,-17,-13
8,283,-14,977,38,1,-38
9,275,-20,980,23,-9,-31
10,268,-16,964,-9,-19,-9
11,270,-5,957,-55,-7,1
12,266,-24,961,-75,32,10
13,264,-23,974,-52,62,3
14,269,-25,968,-30,65,-19
15,274,-31,961,19,52,-38
16,270,-29,977,48,40,-64
17,270,-27,980,32,21,-72
18,267,-27,965,-5,9,-66
19,272,-31,966,-26,15,-46
20,266,-33,956,-38,28,-62
21,251,-35,954,-36,52,-79
22,245,-32,951,1,77,-95
23,252,-32,960,13,95,-115
24,254,-37,966,-11,112,-117
25,255,-24,971,-50,128,-117
26,256,-29,976,-61,138,-117
27,246,-26,964,-61,132,-124
28,255,-36,988,-67,126,-140
29,264,-33,995,-93,118,-144
30,266,-31,987,-136,97,-148
31,263,-22,996,-179,101,-124
32,254,-27,1000,-206,118,-99
33,264,-41,974,-214,132,-85
34,263,-41,969,-218,116,-79
35,251,-46,941,-235,87,-74
36,254,-68,937,-268,108,-68
37,245,-67,920,-348,120,-64
38,244,-65,914,-423,134,-48
39,238,-68,896,-475,153,-48
40,238,-73,897,-458,226,-50
41,259,-83,887,-372,308,-52
42,265,-91,885,-255,362,-85
43,256,-111,877,-136,349,-146
44,251,-110,901,-40,323,-185
45,247,-115,894,-5,337,-234
46,248,-120,916,-7,382,-333
47,246,-114,928,-40,425,-419
48,249,-108,935,-95,435,-466
49,258,-85,961,-155,419,-464
50,262,-82,964,-196,417,-454
51,254,-83,981,-243,403,-443
52,256,-92,985,-237,415,-456
53,231,-77,993,-233,386,-480
54,254,-75,989,-268,335,-527
55,255,-75,979,-327,317,-576
56,227,-48,986,-382,306,-597
57,215,-31,1000,-425,337,-570
58,232,-17,1016,-440,403,-540
59,215,-9,1031,-432,448,-531
60,230,2,1056,-376,466,-519
61,249,8,1061,-315,468,-511
62,243,6,1065,-251,442,-511
63,231,3,1099,-198,399,-499
64,223,12,1100,-159,362,-468
65,225,4,1099,-184,335,-425
66,200,0,1102,-255,300,-380
67,204,3,1093,-311,274,-335
68,206,7,1101,-347,269,-302
69,205,15,1108,-356,228,-308
70,192,26,1094,-341,153,-316
71,193,21,1080,-263,120,-294
72,196,25,1062,-173,95,-265
73,194,14,1058,-116,89,-259
74,192,-2,1065,-91,99,-287
75,209,1,1087,-97,93,-288
76,195,-5,1069,-132,58,-277
77,194,-2,1056,-192,9,-255
78,202,-8,1042,-231,-17,-224
79,200,-10,1027,-237,-52,-197
80,207,-4,1011,-229,-83,-183
81,209,-3,1001,-233,-101,-173
82,214,-16,988,-229,-102,-163
83,220,3,973,-231,-95,-163
84,205,15,983,-259,-77,-169
85,197,11,972,-274,-48,-132
86,217,8,969,-255,-5,-74
87,221,8,964,-196,28,-42
88,224,4,975,-116,58,-54
89,227,-9,975,-32,85,-60
90,229,-17,1001,36,87,-60
91,225,-27,999,62,65,-48
92,239,-23,1008,44,54,-37
93,235,-25,995,36,56,-23
94,221,-28,996,27,60,-9
95,222,-22,1007,36,65,5
96,225,-32,985,56,89,8
97,227,-35,1002,62,112,14
98,210,-38,1014,48,124,28
99,215,-33,1007,28,149,53
100,225,-46,1016,15,183,71
101,220,-59,1014,28,169,65
102,212,-52,1028,32,151,47
103,199,-44,1039,30,130,30
104,180,-50,1036,48,134,14
105,193,-45,1038,62,149,32
106,200,-56,1030,56,151,53
107,203,-47,1043,15,114,46
108,204,-61,1029,3,65,38
109,194,-57,1042,15,58,30
110,183,-57,1028,25,48,36
111,174,-65,1042,64,40,47
112,181,-57,1044,107,81,57
113,189,-69,1051,83,103,26
114,197,-66,1044,54,95,-1
115,191,-61,1055,32,81,-13
116,187,-66,1067,5,64,-27
117,184,-59,1050,5,54,-17
118,174,-57,1058,-1,19,-17
119,161,-54,1050,-20,-15,-25
120,155,-53,1046,-91,-97,-17
121,174,-47,1039,-194,-163,30
122,192,-57,1002,-286,-185,57
123,186,-57,972,-350,-198,67
124,187,-54,958,-350,-208,65
125,178,-44,956,-274,-183,61
126,184,-52,949,-155,-87,59
127,198,-63,949,-44,-9,61
128,198,-60,951,52,48,47
129,202,-60,979,101,52,10
130,198,-56,992,105,-1,-29
131,205,-50,976,107,-46,-37
132,208,-49,968,124,-89,-27
133,195,-54,975,153,-112,6
134,188,-55,964,175,-101,34
135,181,-70,971,195,-36,38
136,175,-64,987,206,40,30
137,191,-74,994,179,67,14
138,206,-83,1002,126,73,8
139,208,-80,1008,66,7,14
140,206,-74,987,9,-52,20
141,188,-75,994,-32,-61,32
142,198,-77,984,-38,-38,28
143,199,-73,992,-13,-11,16
144,203,-71,1011,32,5,-13
145,201,-60,1008,85,-5,-29
146,219,-52,1004,118,-28,-35
147,212,-58,1004,122,-61,-38
148,197,-43,983,109,-71,-35
149,190,-30,1008,85,-61,-19
150,194,-36,999,71,-28,1
151,191,-34,1005,71,1,24
152,191,-49,985,68,21,40
153,186,-51,976,56,5,34
154,199,-58,985,28,-34,18
155,191,-53,972,-5,-42,10
156,197,-54,956,-26,-19,22
157,196,-46,957,-5,9,14
158,203,-48,970,30,30,16
159,202,-38,988,77,48,1
160,201,-34,989,105,52,-21
161,215,-28,1000,111,54,-13
162,197,-17,1003,111,52,12
163,203,-18,1023,109,50,51
164,192,-24,1001,99,50,88
165,195,-39,1006,60,44,108
166,195,-46,993,27,32,120
167,190,-50,995,3,5,130
168,193,-51,983,-13,-9,130
169,189,-60,983,-5,11,122
170,184,-56,992,25,50,108
171,200,-60,998,52,83,90
172,205,-63,984,64,87,65
173,208,-49,999,68,103,49
174,206,-47,1005,79,120,51
175,206,-41,1014,87,132,51
176,211,-42,1043,79,122,40
177,206,-26,1033,95,116,44
178,211,-21,1046,130,140,44
179,208,-47,1065,187,198,53
180,222,-40,1096,236,237,85
181,215,-48,1125,224,245,118
182,221,-66,1132,183,224,151
183,227,-69,1150,142,192,167
184,231,-66,1177,103,155,174
185,240,-60,1195,109,112,145
186,236,-53,1203,144,50,102
187,239,-50,1242,216,-24,87
188,229,-42,1261,302,-104,90
189,229,-43,1254,376,-159,106
190,237,-64,1268,411,-198,120
191,236,-55,1281,435,-251,116
192,221,-73,1311,445,-310,116
193,221,-70,1306,445,-366,92
194,229,-58,1335,439,-427,34
195,249,-66,1351,439,-491,-21
196,238,-60,1352,433,-585,-76
197,234,-48,1375,429,-679,-81
198,243,-35,1367,403,-763,-48
199,249,-41,1376,351,-860,3
200,244,-48,1380,257,-985,49
201,243,-40,1354,173,-1106,83
202,240,-35,1333,124,-1220,110
203,244,-46,1318,83,-1341,110
204,242,-33,1309,64,-1452,79
205,243,-23,1283,93,-1528,36
206,243,-7,1287,173,-1563,-50
207,260,8,1285,292,-1550,-117
208,264,39,1262,374,-1554,-199
209,272,58,1283,439,-1515,-290
210,286,83,1308,464,-1458,-304
211,298,116,1351,486,-1374,-308
212,307,139,1383,525,-1325,-324
213,299,154,1409,616,-1327,-296
214,300,172,1457,755,-1370,-232
215,305,171,1472,837,-1476,-117
216,281,150,1484,837,-1620,87
217,271,116,1485,796,-1856,368
218,280,90,1469,710,-2161,661
219,250,34,1441,622,-2538,889
220,234,-13,1389,525,-2913,1014
221,193,-58,1331,409,-3208,1028
222,192,-80,1270,265,-3380,1008
223,204,-109,1228,95,-3442,975
224,209,-123,1188,-42,-3481,878
225,227,-119,1154,-147,-3487,706
226,238,-114,1145,-220,-3489,526
227,259,-94,1112,-218,-3476,338
228,291,-73,1077,-182,-3532,212
229,303,-58,1037,-167,-3644,149
230,306,-57,1000,-130,-3804,161
231,304,-55,969,-112,-3995,210
232,311,-53,908,-130,-4145,249
233,324,-46,863,-108,-4196,210
234,329,-49,831,-77,-4188,141
235,341,-40,791,-91,-4106,59
236,359,-38,758,-139,-4009,5
237,382,-28,743,-192,-3995,-27
238,386,-23,734,-231,-3997,-60
239,410,-32,710,-315,-4050,-42
240,440,-28,666,-446,-4149,-3
241,448,-11,593,-663,-4304,36
242,451,-15,567,-882,-4450,71
243,448,6,514,-1024,-4542,71
244,459,14,447,-1063,-4577,42
245,470,25,391,-907,-4624,-31
246,477,27,285,-700,-4704,-85
247,459,21,188,-544,-4733,-128
248,467,30,84,-493,-4702,-163
249,462,48,-43,-587,-4669,-183
250,458,88,-209,-825,-4608,-103
251,434,120,-378,-1179,-4462,38
252,397,165,-585,-1532,-4153,190
253,393,203,-745,-1706,-3534,276
254,429,229,-930,-1554,-2739,227
255,505,287,-1035,-1147,-1852,5
256,604,380,-1090,-522,-944,-312
257,601,408,-1007,269,-81,-410
258,589,396,-856,1085,472,-421
259,604,354,-712,1802,927,-287
260,623,259,-546,2267,1296,-46
261,673,145,-384,2513,1485,178
262,691,41,-246,2505,1552,299
263,685,-33,-142,2236,1523,352
264,677,-91,-44,1864,1458,354
265,704,-133,2,1421,1382,317
266,733,-122,45,1023,1333,161
267,771,-48,64,614,1312,-165
268,762,23,123,286,1362,-468
269,758,100,186,150,1413,-570
270,802,150,235,97,1376,-531
271,820,177,236,73,1251,-417
272,828,186,271,97,1114,-216
273,813,176,262,208,1044,67
274,813,146,250,433,1071,327
275,804,89,253,667,1216,473
276,773,60,266,880,1399,508
277,740,30,305,1109,1651,463
278,689,15,337,1294,1929,323
279,670,31,397,1290,2153,184
280,724,53,423,1071,2351,75
281,756,75,439,685,2497,26
282,735,111,440,204,2470,85
283,671,178,399,-302,2323,237
284,593,197,319,-825,2155,477
285,490,208,208,-1227,1966,809
286,393,218,79,-1526,1692,1167
287,362,295,-83,-1704,1483,1338
288,269,329,-215,-1350,1724,1282
289,175,330,-278,-229,2292,1155
290,161,345,-287,1183,3054,993
291,196,352,-262,2230,3898,829
292,173,338,-218,2585,4554,710
293,65,316,-206,2484,4882,735
294,-70,244,-187,2101,4890,1096
295,-181,136,-213,1458,4681,1700
296,-223,65,-281,698,4556,2178
297,-224,33,-283,79,4702,2227
298,-316,46,-258,58,5409,1905
299,-477,21,-97,702,6495,1544
300,-576,-22,191,1853,7681,1180
301,-577,-129,631,3253,8726,725
302,-513,-148,1173,4597,9612,-122
303,-405,-90,1805,5720,10288,-1224
304,-204,2,2048,5991,10274,-2068
305,11,84,2048,4890,9483,-2156
306,170,110,2048,2601,7899,-1138
307,200,53,2048,-436,5874,633
308,131,-64,2048,-3403,4095,2221
309,31,-193,2048,-5425,3187,3163
310,30,-316,2048,-6632,2657,3713
311,93,-414,2048,-6639,2474,3741
312,125,-484,2048,-5319,2423,3139
313,126,-510,2027,-3151,2349,2100
314,119,-506,2007,-860,2308,950
315,112,-462,2042,726,2255,112
316,139,-417,2048,1456,2296,-388
317,170,-339,2048,1646,2239,-818
318,200,-201,2048,1284,1948,-1093
319,220,-93,2048,618,1425,-1105
320,232,-18,2048,62,882,-851
321,210,34,2026,-235,464,-486
322,185,54,1905,-403,155,-175
323,218,36,1752,-544,-112,53
324,189,11,1617,-663,-370,219
325,163,-13,1494,-735,-534,360
326,124,-44,1394,-770,-599,471
327,111,-83,1313,-669,-571,520
328,106,-93,1220,-475,-483,454
329,82,-94,1141,-257,-347,323
330,67,-103,1093,-13,-237,178
331,56,-110,1096,196,-130,32
332,78,-99,1059,265,-102,-144
333,95,-77,1037,163,-128,-283
334,101,-37,1019,7,-190,-335
335,98,-13,999,-208,-267,-298
336,100,11,960,-432,-278,-210
337,101,36,940,-522,-210,-105
338,109,39,915,-473,-132,36
339,96,32,903,-345,-60,213
340,81,-9,927,-165,-24,352
341,86,-64,925,44,7,401
342,75,-108,948,214,19,383
343,60,-146,1004,362,-9,303
344,60,-149,996,458,-44,155
345,74,-133,986,376,-65,-44
346,81,-114,998,150,-93,-138
347,73,-73,978,-100,-95,-97
348,70,-68,972,-276,-83,30
349,81,-79,979,-341,-85,120
350,79,-75,977,-315,-114,104
351,62,-69,980,-243,-130,53
352,62,-61,989,-161,-85,10
353,76,-86,1014,-46,-34,-27
354,95,-92,1023,73,-7,-70
355,95,-86,1024,126,-24,-107
356,84,-82,1035,101,-22,-117
357,87,-83,1038,68,3,-111
358,96,-81,1040,56,-1,-105
359,112,-74,1035,1,-38,-78
360,101,-65,1032,-110,-83,-37
361,106,-67,1035,-245,-101,12
362,111,-53,1054,-360,-60,55
363,113,-47,1062,-460,-1,87
364,115,-54,1042,-501,1,130
365,105,-64,1022,-503,-38,194
366,113,-83,1005,-470,-101,245
367,108,-109,988,-393,-144,233
368,104,-106,967,-192,-130,161
369,112,-114,991,71,-79,46
370,99,-137,1039,314,-42,-91
371,92,-150,1048,493,-3,-177
372,112,-138,1051,544,19,-224
373,117,-123,1071,409,7,-263
374,116,-123,1051,132,-52,-242
375,120,-106,1031,-227,-159,-126
376,124,-118,983,-544,-274,8
377,112,-108,930,-745,-327,55
378,109,-96,918,-819,-272,46
379,108,-92,912,-800,-136,42
380,106,-79,930,-753,28,77
381,122,-101,936,-530,161,79
382,116,-116,952,-167,206,30
383,119,-164,978,239,173,-40
384,113,-187,987,548,87,-128
385,120,-207,1006,650,-1,-208
386,113,-216,991,564,-58,-240
387,93,-229,999,396,-73,-244
388,93,-241,1006,183,-32,-222
389,102,-236,1019,-30,28,-218
390,106,-240,1005,-223,58,-230
391,113,-235,997,-323,50,-255
392,113,-228,997,-345,36,-310
393,109,-230,989,-319,30,-380
394,105,-225,985,-268,26,-445
395,107,-219,1000,-188,32,-540
396,102,-214,986,-124,36,-634
397,103,-202,999,-124,24,-687
398,120,-188,1002,-179,11,-710
399,106,-182,995,-272,17,-714
400,104,-181,987,-321,23,-730
401,97,-149,1001,-329,54,-769
402,111,-129,1010,-290,77,-818
403,104,-108,1003,-200,67,-869
404,109,-107,983,-95,46,-880
405,123,-98,985,-16,40,-876
406,115,-98,1000,25,62,-874
407,106,-87,1013,28,87,-855
408,111,-75,996,5,112,-843
409,95,-70,1007,-9,114,-831
410,106,-80,1005,-32,95,-788
411,97,-83,988,-79,69,-724
412,90,-92,993,-112,105,-687
413,108,-81,968,-138,177,-703
414,102,-82,991,-132,241,-704
415,100,-82,1018,-75,294,-693
416,100,-87,1020,25,317,-685
417,87,-99,1042,105,286,-669
418,94,-124,1050,155,226,-671
419,91,-133,1054,132,149,-685
420,82,-137,1052,48,103,-699
421,83,-122,1043,-59,97,-704
422,76,-123,1031,-143,124,-695
423,89,-121,1044,-194,142,-673
424,91,-130,1017,-196,136,-675
425,79,-127,1007,-188,128,-722
426,82,-101,1035,-163,144,-792
427,82,-94,1019,-108,167,-837
428,84,-85,1032,-36,187,-869
429,83,-87,1038,40,179,-857
430,85,-94,1058,105,151,-874
431,84,-75,1054,142,132,-923
432,83,-70,1066,169,87,-951
433,84,-55,1069,183,38,-933
434,68,-59,1055,183,-5,-872
435,64,-77,1023,153,-38,-814
436,74,-70,992,79,-60,-781
437,73,-75,977,-9,-54,-765
438,58,-73,957,-67,-7,-751
439,72,-72,942,-97,79,-763
440,73,-67,958,-71,149,-787
441,79,-56,982,-7,173,-833
442,88,-46,991,83,179,-869
443,94,-35,1008,167,149,-888
444,93,-57,1023,196,120,-876
445,92,-48,1012,167,87,-843
446,93,-41,1011,83,52,-788
447,86,-43,995,9,32,-736
448,93,-46,980,5,64,-714
449,92,-36,982,25,128,-738
450,100,-42,1009,42,173,-749
451,89,-50,984,87,173,-718
452,91,-43,990,122,155,-693
453,92,-64,986,116,148,-663
454,86,-69,987,91,161,-644
455,80,-71,989,85,187,-665
456,89,-61,1004,87,190,-704
457,89,-71,988,91,196,-712
458,92,-73,1004,87,185,-695
459,79,-56,1004,42,181,-695
460,97,-55,1001,-48,189,-689
461,93,-40,998,-100,210,-697
462,93,-9,997,-89,218,-703
463,89,-4,1003,21,216,-675
464,85,-15,997,177,190,-634
465,77,-25,996,296,157,-607
466,68,-40,969,403,144,-597
467,69,-29,966,525,194,-636
468,66,-45,988,640,284,-697
469,66,-26,1020,747,339,-777
470,73,-25,1025,814,374,-851
471,81,-11,1056,792,378,-859
472,89,-9,1063,722,331,-816
473,81,13,1070,614,261,-742
474,84,18,1052,497,210,-656
475,77,5,1046,396,194,-591
476,74,-6,1037,308,185,-564
477,57,0,1059,193,202,-535
478,66,-9,1064,114,216,-509
479,77,-8,1080,27,198,-476
480,78,3,1068,-69,130,-462
481,76,-12,1059,-182,77,-417
482,72,-6,1042,-243,77,-392
483,67,-7,1055,-286,91,-370
484,66,-11,1041,-315,89,-341
485,72,-8,1035,-315,83,-300
486,72,-18,1045,-296,60,-230
487,71,-35,1037,-247,52,-197
488,61,-48,1033,-222,54,-244
489,50,-38,1041,-167,48,-333
490,50,-22,1040,-54,60,-441
491,51,-23,1045,87,60,-531
492,68,-22,1042,177,-1,-564
493,73,-15,1040,126,-69,-550
494,70,-7,1054,-44,-120,-513
495,66,25,1023,-157,-81,-482
496,61,34,1011,-241,-73,-470
497,50,22,1045,-177,-22,-412
498,53,41,1037,1,48,-382
499,65,27,1036,171,67,-415
500,71,27,1040,261,28,-447
501,64,15,1061,216,-46,-447
502,62,25,1058,79,-50,-404
503,72,24,1038,-91,-1,-300
504,71,25,1041,-237,17,-185
505,73,20,1045,-278,-30,-126
506,59,8,1034,-188,-54,-111
507,52,2,1041,-73,-83,-122
508,65,-3,1041,38,-95,-169
509,48,-14,1029,81,-126,-230
510,48,-21,1030,32,-128,-247
511,52,-15,1010,-77,-104,-249
512,52,-5,1008,-190,-73,-245
513,49,7,1003,-266,-61,-247
514,51,17,1002,-276,-58,-247
515,57,30,1001,-196,-46,-240
516,58,40,986,-59,-48,-212
517,58,29,984,85,-65,-220
518,62,32,983,216,-79,-245
519,61,26,961,302,-77,-253
520,68,33,981,320,-69,-228
521,67,31,977,251,-48,-193
522,68,23,977,155,-17,-150
523,73,21,981,54,38,-107
524,74,22,988,-11,77,-81
525,59,22,1004,-18,93,-56
526,78,25,1020,7,97,-52
527,77,31,1015,64,75,-40
528,85,33,1032,128,40,1
529,81,24,1022,167,17,65
530,61,3,1039,175,15,116
531,64,-23,1028,171,34,130
532,69,-34,1040,130,48,110
533,77,-35,1044,32,15,102
534,74,-41,1051,-89,-40,104
535,69,-39,1040,-173,-77,128
536,72,-49,1025,-245,-108,153
537,64,-35,1016,-280,-112,145
538,59,-44,998,-237,-81,108
539,52,-32,987,-138,-36,51
540,53,-15,1003,-11,-1,8
541,73,-7,1009,126,30,-29
542,77,-2,1024,222,48,-42
543,95,-8,1049,259,38,-37
544,93,-4,1051,220,19,-13
545,99,-6,1057,112,-1,34
546,91,-3,1075,21,-20,104
547,85,-17,1059,-50,-34,159
548,89,-22,1060,-77,-38,184
549,86,-25,1071,-65,-46,165
550,87,-35,1053,-40,-69,145
551,77,-39,1074,-13,-83,118
552,72,-40,1070,1,-60,98
553,79,-44,1062,-1,-38,85
554,69,-37,1058,-14,-60,96
555,83,-44,1047,-18,-95,106
556,82,-42,1034,-1,-140,110
557,69,-52,1041,38,-149,100
558,75,-47,1031,118,-128,61
559,73,-42,1038,202,-114,-11
560,71,-40,1046,280,-89,-72
561,83,-28,1045,376,-73,-91
562,79,-34,1058,452,-65,-95
563,83,-22,1112,476,-63,-115
564,89,-14,1130,484,-24,-152
565,115,4,1173,476,40,-171
566,106,27,1227,390,64,-167
567,112,34,1310,345,103,-154
568,138,46,1448,384,257,-214
569,126,64,1603,378,509,-290
570,112,77,1795,195,774,-267
571,124,41,2048,-36,968,-183
572,209,-3,2048,-179,981,-195
573,321,16,2048,-157,751,-306
574,323,50,2048,-16,290,-328
575,279,46,2048,189,-653,-136
576,225,42,2048,696,-1700,182
577,166,-4,2048,1267,-2782,446
578,85,-51,2048,1638,-3720,528
579,17,-84,2048,1853,-4421,448
580,-41,-111,2048,1898,-4958,385
581,-68,-133,2048,1671,-5433,401
582,-139,-134,2048,1288,-5829,389
583,-214,-112,2048,864,-6198,383
584,-250,-128,2048,484,-6534,422
585,-314,-117,2048,153,-6958,436
586,-360,-109,2019,-180,-7509,419
587,-417,-73,1832,-583,-8181,411
588,-497,-33,1602,-991,-8903,462
589,-556,12,1354,-1327,-9620,471
590,-634,68,1058,-1608,-10323,338
591,-659,147,741,-1893,-10911,57
592,-635,214,403,-2067,-11245,-203
593,-610,285,114,-2114,-11134,-316
594,-528,314,-145,-2048,-10667,-247
595,-500,330,-368,-1811,-9870,-40
596,-460,315,-491,-1430,-8751,229
597,-411,252,-549,-1009,-7493,460
598,-353,185,-549,-514,-6202,620
599,-280,101,-552,155,-5179,706
600,-196,34,-568,800,-4560,659
601,-50,8,-582,1085,-4290,419
602,89,40,-654,948,-4257,-46
603,181,128,-763,484,-4308,-537
604,232,224,-831,-114,-4429,-761
605,245,281,-888,-448,-4286,-765
606,226,360,-961,-536,-3759,-560
607,257,397,-982,-460,-2847,-193
608,291,376,-944,-239,-1737,319
609,353,310,-897,195,-630,887
610,385,206,-823,661,192,1335
611,392,50,-678,1093,651,1657
612,492,-86,-559,1489,720,1704
613,579,-137,-556,1640,575,1319
614,588,-130,-555,1474,271,598
615,600,-91,-568,1169,101,-33
616,559,-22,-546,837,202,-398
617,556,58,-519,546,560,-458
618,574,156,-499,292,1017,-402
619,597,237,-480,120,1407,-322
620,587,286,-426,89,1726,-124
621,567,305,-379,216,1952,196
622,554,298,-347,396,2134,530
623,531,265,-314,640,2261,790
624,504,226,-282,964,2396,944
625,536,173,-302,1300,2528,1001
626,524,124,-304,1521,2661,1001
627,427,93,-282,1620,2806,1032
628,301,61,-223,1728,2976,1055
629,222,36,-123,1763,3228,921
630,179,73,-50,1583,3591,637
631,192,124,9,1107,3987,405
632,231,178,25,454,4360,364
633,217,237,46,-206,4663,505
634,123,293,93,-811,4757,864
635,34,297,114,-1241,4714,1467
636,-40,261,68,-1395,4622,2260
637,-165,193,-18,-1391,4515,3081
638,-139,144,-114,-1454,4419,3651
639,-158,84,-237,-1393,4694,3803
640,-283,10,-254,-679,5454,3512
641,-484,-2,-115,704,6577,2924
642,-582,-45,101,2064,7829,2297
643,-588,-104,397,2950,8896,1678
644,-618,-69,654,3327,9755,1184
645,-665,23,951,3087,10304,821
646,-627,11,1196,2284,10355,772
647,-622,8,1493,1552,10372,1151
648,-671,7,1834,1595,10388,1526
649,-627,-62,2048,2232,10536,1788
650,-509,-159,2048,2970,10573,1973
651,-417,-255,2048,3339,10054,1991
652,-336,-390,2048,2903,8954,1962
653,-225,-510,2048,1663,7665,2143
654,-186,-586,2048,42,6376,2395
655,-167,-641,2048,-1126,5224,2463
656,-132,-641,2048,-1434,4302,2297
657,-89,-642,2048,-1061,3403,1995
658,-2,-649,2048,-436,2476,1581
659,10,-569,2048,111,1710,981
660,8,-470,2048,271,1091,436
661,-3,-406,2048,204,618,157
662,18,-337,2048,36,265,38
663,21,-268,2048,-161,-24,-85
664,41,-219,2048,-376,-128,-318
665,69,-229,2048,-427,-206,-537
666,59,-228,2005,-458,-542,-494
667,34,-221,1839,-612,-1022,-306
668,9,-246,1641,-874,-1485,-128
669,11,-267,1445,-1110,-1835,18
670,24,-269,1266,-1216,-2061,126
671,16,-229,1134,-1126,-1995,57
672,4,-185,1052,-882,-1634,-171
673,-25,-135,1064,-524,-1177,-404
674,2,-83,1089,-118,-796,-540
675,44,-48,1125,198,-560,-630
676,79,-11,1164,433,-442,-607
677,96,10,1190,597,-534,-554
678,98,3,1179,677,-749,-443
679,61,-27,1161,708,-913,-263
680,51,-64,1140,589,-954,-40
681,37,-110,1100,296,-954,133
682,24,-128,1050,-83,-999,256
683,17,-155,980,-415,-1038,374
684,30,-168,911,-716,-1060,438
685,14,-159,846,-930,-1026,465
686,17,-149,811,-927,-911,391
687,1,-137,778,-684,-745,256
688,-24,-127,795,-251,-530,65
689,-24,-129,843,206,-388,-148
690,30,-92,835,570,-331,-370
691,42,-60,846,704,-341,-505
692,46,-48,847,685,-376,-486
693,51,-45,873,650,-306,-345
694,38,-52,888,612,-181,-199
695,64,-67,937,577,-93,-91
696,56,-87,970,556,-48,-11
697,86,-99,975,507,-28,63
698,67,-99,992,372,-48,49
699,52,-116,1011,224,-58,10
700,66,-72,1033,-3,-48,-191
701,55,-109,1046,85,-65,-89
702,74,-51,1033,-89,-106,-206
703,83,-27,1021,-114,-200,-132
704,67,-31,1002,-102,-298,-38
705,61,-30,942,-54,-321,14
706,57,-36,932,30,-249,53
707,56,-60,915,163,-114,61
708,65,-72,941,308,42,38
709,70,-80,992,349,140,-11
710,86,-83,1021,275,120,-44
711,93,-76,1043,122,62,-62
712,90,-72,1057,-32,-17,-58
713,89,-64,1041,-134,-93,-13
714,91,-87,1028,-128,-169,36
715,76,-88,996,-57,-185,53
716,95,-99,992,19,-145,16
717,75,-104,990,66,-81,-72
718,73,-124,1000,91,-22,-111
719,77,-131,995,64,28,-107
720,82,-148,1009,-16,73,-111
721,94,-155,1032,-126,93,-126
722,99,-148,1050,-198,99,-152
723,100,-148,1087,-192,62,-195
724,118,-154,1083,-153,-61,-247
725,95,-155,1069,-139,-196,-283
726,104,-156,1053,-145,-241,-279
727,92,-158,1005,-177,-239,-228
728,87,-162,988,-210,-229,-163
729,83,-181,966,-198,-214,-83
730,86,-195,974,-147,-188,-101
731,76,-220,985,-93,-147,-244
732,72,-222,983,-91,-75,-417
733,64,-223,991,-120,17,-562
734,81,-220,1002,-143,85,-648
735,90,-193,1021,-180,132,-683
736,101,-179,1028,-175,126,-736
737,97,-165,1055,-139,46,-783
738,104,-151,1068,-89,-30,-794
739,107,-150,1061,-55,-95,-785
740,98,-152,1041,-91,-181,-747
741,96,-148,1014,-210,-224,-681
742,98,-151,984,-341,-220,-609
743,96,-147,979,-409,-171,-566
744,82,-151,992,-399,-85,-560
745,91,-164,1005,-323,-17,-611
746,104,-159,1020,-278,9,-736
747,103,-146,1030,-298,-44,-869
748,112,-132,1019,-280,-112,-953
749,120,-105,1003,-220,-175,-982
750,107,-87,993,-153,-192,-982
751,107,-73,970,-97,-161,-968
752,107,-75,986,-16,-101,-951
753,100,-72,996,62,-65,-937
754,93,-81,975,132,-56,-919
755,90,-98,966,155,-67,-869
756,98,-118,943,112,-65,-824
757,93,-121,952,-16,-28,-804
758,88,-112,956,-165,19,-781
759,86,-95,952,-241,65,-802
760,85,-98,984,-206,122,-837
761,98,-92,986,-122,149,-888
762,91,-94,1007,-38,151,-904
763,89,-101,1008,7,130,-904
764,91,-95,1020,-50,118,-890
765,84,-110,1009,-204,116,-839
766,93,-103,1007,-343,108,-765
767,92,-103,1007,-384,79,-736
768,86,-105,1009,-290,56,-779
769,85,-115,1007,-106,54,-857
770,68,-114,1012,60,77,-943
771,76,-123,1020,173,87,-1013
772,82,-104,1016,183,108,-1076
773,94,-95,1001,130,120,-1107
774,84,-73,1039,75,146,-1122
775,93,-63,1041,28,159,-1113
776,93,-46,1045,-18,155,-1087
777,101,-49,1052,-61,105,-1052
778,106,-31,1038,-102,42,-1009
779,94,-41,1025,-149,-5,-962
780,96,-34,1011,-212,-26,-912
781,79,-35,1002,-184,-17,-904
782,77,-42,1003,-67,7,-951
783,80,-43,1004,68,30,-999
784,82,-44,1014,210,36,-1037
785,81,-43,995,277,46,-1060
786,86,-45,1004,220,38,-1060
787,99,-45,1017,87,32,-1025
788,102,-16,1001,-67,34,-974
789,88,-14,1008,-143,36,-919
790,101,-9,1039,-104,54,-876
791,107,-22,1017,-24,56,-874
792,95,-6,1011,23,40,-878
793,92,-2,1020,81,24,-872
794,99,6,1006,159,1,-847
795,90,-15,991,230,-22,-814
796,81,-13,970,296,-24,-794
797,88,-23,984,339,32,-802
798,93,-27,972,329,105,-816
799,91,-24,977,245,163,-814
800,101,-18,1005,87,185,-781
801,101,-11,1006,-100,148,-718
802,101,-3,1027,-241,101,-656
803,92,4,1015,-286,65,-587
804,102,1,1018,-216,44,-579
805,87,1,1032,-126,50,-624
806,101,11,1038,-9,28,-663
807,102,4,1024,140,-11,-691
808,101,6,1001,263,-67,-675
809,92,-17,983,333,-79,-644
810,93,-27,980,357,-28,-626
811,81,-21,983,335,75,-640
812,92,-12,994,280,163,-665
813,104,-2,1018,202,233,-677
814,112,17,1029,112,261,-652
815,115,24,1042,21,222,-570
816,126,18,1022,-59,153,-480
817,126,29,1032,-143,85,-417
818,112,33,1019,-167,54,-406
819,85,49,1008,-71,56,-415
820,100,52,1017,179,83,-449
821,115,58,1018,421,116,-494
822,106,69,1029,525,130,-505
823,108,62,1032,538,163,-456
824,109,56,1039,515,230,-384
825,99,59,1059,458,292,-329
826,111,53,1094,362,331,-292
827,134,70,1131,267,319,-300
828,124,87,1143,120,255,-273
829,125,79,1152,-54,155,-134
830,121,84,1131,-266,69,88
831,115,59,1126,-497,30,346
832,101,35,1121,-677,62,534
833,111,17,1135,-745,97,624
834,106,-4,1151,-616,118,596
835,85,-9,1162,-366,73,534
836,98,-40,1172,-1,-11,438
837,95,-59,1190,310,-99,294
838,92,-57,1198,468,-190,159
839,93,-60,1207,478,-222,42
840,75,-54,1264,372,-226,-19
841,76,-5,1318,292,-257,-48
842,106,66,1391,277,-233,-52
843,176,122,1487,337,-52,-144
844,261,155,1628,548,327,-324
845,325,188,1817,847,692,-499
846,327,231,2048,1097,849,-599
847,300,249,2048,1144,642,-535
848,354,248,2048,1159,819,-591
849,302,264,2048,765,1,-365
850,315,222,2048,245,-1089,-31
851,302,146,2048,-216,-2331,588
852,236,7,2048,-733,-3517,1342
853,119,-102,2048,-973,-4216,1747
854,57,-182,2048,-1042,-4528,1872
855,70,-237,2048,-727,-4634,1626
856,86,-253,2048,-9,-4815,1094
857,68,-255,2048,1153,-5173,358
858,14,-190,2048,2351,-5608,-343
859,-38,-199,2048,3245,-6188,-624
860,-80,-217,2048,3487,-7177,-529
861,-176,-246,2048,3163,-8370,-271
862,-338,-270,2048,2470,-9460,151
863,-510,-324,2048,1573,-10310,674
864,-620,-385,2048,652,-10917,1149
865,-764,-422,1827,-263,-11401,1444
866,-886,-430,1573,-1220,-11929,1557
867,-1016,-422,1285,-2085,-12532,1393
868,-1160,-369,1011,-2823,-13177,1143
869,-1241,-247,637,-3516,-13874,915
870,-1244,-97,232,-4208,-14409,626
871,-1182,23,-180,-4651,-14630,249
872,-1089,161,-538,-4624,-14358,-140
873,-977,275,-937,-4323,-13757,-408
874,-907,377,-1333,-3891,-12602,-517
875,-831,509,-1543,-3286,-10878,-427
876,-744,524,-1651,-2372,-8817,-347
877,-614,529,-1614,-1026,-6698,-429
878,-448,430,-1501,605,-4786,-693
879,-284,339,-1369,1929,-3276,-964
880,-122,285,-1231,2657,-2241,-1146
881,8,229,-1105,2886,-1722,-1203
882,75,208,-1013,2653,-1671,-1163
883,123,256,-995,2044,-1780,-1122
884,133,283,-993,1357,-1776,-1042
885,159,316,-983,827,-1597,-919
886,200,370,-995,499,-1151,-724
887,243,399,-961,386,-645,-494
888,293,397,-917,493,-218,-261
889,332,380,-866,667,120,-103
890,368,357,-838,763,421,34
891,382,322,-825,790,661,167
892,376,293,-799,743,825,282
893,382,314,-774,612,960,370
894,356,307,-768,517,1140,446
895,376,293,-730,577,1356,463
896,381,305,-722,650,1599,434
897,396,314,-697,724,1933,387
898,389,361,-658,751,2263,348
899,371,405,-629,726,2575,366
900,362,432,-582,732,2939,465
901,345,427,-531,878,3315,717
902,317,413,-471,1054,3675,1131
903,318,359,-441,1193,3999,1583
904,305,328,-390,1491,4353,1829
905,269,281,-340,1982,4710,1823
906,180,217,-249,2530,5050,1772
907,61,145,-147,2923,5403,1891
908,31,84,-84,2982,5804,2235
909,32,43,-50,2679,6306,2579
910,98,22,2,2159,6692,2731
911,123,34,27,1642,6874,2710
912,59,36,90,1491,6917,2547
913,-49,79,197,1816,6776,2210
914,-205,125,278,2306,6728,1821
915,-358,69,349,2669,6825,1688
916,-383,7,386,2737,7042,1858
917,-306,-29,372,2259,7349,2135
918,-239,-48,285,1364,7831,2583
919,-363,-6,253,650,8435,2837
920,-599,46,364,628,9101,2876
921,-815,111,499,1132,9921,2876
922,-1041,66,656,2048,11054,2870
923,-1016,-102,895,3302,12579,2686
924,-963,-256,1261,4626,14190,2104
925,-771,-370,1812,5765,15247,1102
926,-694,-336,2048,6804,15579,-456
927,-620,-263,2048,7111,14905,-1753
928,-408,-209,2048,6517,13657,-2175
929,-147,-148,2048,5323,12028,-1812
930,72,-193,2048,3425,9710,-900
931,153,-151,2048,878,6933,153
932,77,-157,2048,-1503,4564,1071
933,-19,-121,2048,-2938,3288,1729
934,-25,-189,2048,-3448,2583,1926
935,-40,-199,2048,-3347,2331,1667
936,-10,-207,2048,-2776,2112,1204
937,-2,-178,2048,-1823,1683,557
938,-17,-140,2048,-751,991,-70
939,-20,-129,2048,28,247,-515
940,-37,-127,1991,491,-394,-869
941,-42,-122,1850,585,-864,-1167
942,-57,-92,1746,290,-1214,-1351
943,-26,-49,1653,-231,-1419,-1478
944,-3,13,1578,-651,-1405,-1546
945,18,74,1487,-848,-1335,-1525
946,-2,86,1420,-774,-1292,-1257
947,-4,76,1357,-483,-1329,-779
948,16,37,1276,-126,-1345,-445
949,38,7,1209,81,-1311,-361
950,64,-8,1153,120,-1294,-376
951,59,-27,1105,167,-1386,-404
952,32,-11,1085,255,-1546,-427
953,13,-16,1058,318,-1608,-466
954,12,-24,1038,345,-1569,-505
955,8,-30,1025,314,-1470,-523
956,-16,-31,1019,249,-1388,-537
957,-27,-16,1024,142,-1323,-568
958,-14,1,1007,73,-1183,-578
959,10,1,965,-5,-1102,-478
960,18,-3,917,-120,-1120,-204
961,11,-13,880,-184,-1083,104
962,7,-15,836,-272,-950,327
963,9,-51,806,-354,-724,430
964,9,-50,798,-380,-413,430
965,2,-63,847,-345,-101,315
966,31,-82,907,-206,120,88
967,47,-80,948,30,200,-160
968,61,-73,992,239,155,-339
969,80,-36,1052,378,52,-458
970,89,-6,1114,460,-114,-537
971,99,29,1100,403,-366,-495
972,96,24,1071,263,-575,-339
973,60,14,1041,42,-700,-132
974,59,-2,1000,-235,-741,88
975,68,-33,969,-477,-686,266
976,52,-59,958,-667,-628,313
977,76,-56,917,-778,-534,286
978,58,-64,886,-823,-345,245
979,65,-70,894,-774,-140,178
980,90,-31,947,-608,-5,79
981,105,-11,1001,-311,-40,-109
982,124,5,998,21,-204,-302
983,121,22,1006,331,-345,-363
984,94,13,1007,540,-456,-337
985,73,-29,984,528,-476,-271
986,75,-55,975,320,-372,-171
987,78,-85,962,34,-200,-52
988,93,-99,977,-220,-67,20
989,123,-90,982,-409,-32,-5
990,113,-64,983,-493,-32,-109
991,113,-38,1004,-464,-17,-167
992,111,-44,1015,-319,11,-173
993,133,-53,1033,-161,26,-177
994,151,-36,1054,-18,46,-232
995,153,-33,1063,79,60,-261
996,160,-39,1060,128,36,-222
997,125,-45,1094,81,-67,-140
998,119,-57,1077,-65,-175,-54
999,110,-81,1036,-229,-204,-3
1000,124,-87,1006,-372,-188,30
1001,113,-76,997,-481,-142,8
1002,105,-65,978,-511,-93,-33
1003,129,-62,960,-397,-85,-87
1004,110,-55,950,-220,-134,-140
1005,102,-56,946,-34,-171,-177
1006,89,-66,953,83,-147,-208
1007,87,-76,955,93,-71,-226
1008,106,-60,951,34,23,-238
1009,130,-67,971,-34,116,-263
1010,146,-47,1007,-69,146,-304
1011,139,-25,1030,-57,142,-353
1012,139,16,1023,-91,106,-341
1013,138,13,985,-124,64,-253
1014,120,14,956,-112,21,-109
1015,118,-15,973,9,9,18
1016,102,-48,965,212,71,36
1017,104,-78,985,394,196,-56
1018,106,-75,1015,478,325,-175
1019,95,-73,1053,497,433,-245
1020,132,-67,1080,425,503,-314
1021,136,-40,1095,245,497,-365
1022,127,-33,1130,7,362,-335
1023,141,-22,1136,-182,149,-253
1024,136,-21,1116,-233,-93,-154
1025,122,-10,1066,-251,-276,-79
1026,106,-35,1014,-264,-368,-19
1027,92,-48,995,-251,-368,16
1028,94,-57,971,-173,-304,1
1029,97,-70,957,-40,-208,-85
1030,103,-66,945,75,-110,-204
1031,93,-62,964,155,-42,-287
1032,99,-61,954,220,-13,-312
1033,111,-75,951,275,13,-306
1034,109,-94,978,247,19,-288
1035,111,-120,1006,152,-15,-279
1036,108,-104,1024,30,-81,-247
1037,116,-104,1004,-85,-126,-197
1038,108,-115,1019,-188,-147,-144
1039,121,-125,1002,-255,-147,-99
1040,112,-143,999,-270,-142,-81
1041,107,-154,987,-259,-130,-103
1042,100,-168,994,-231,-118,-132
1043,118,-179,1002,-210,-120,-208
1044,119,-176,995,-198,-102,-326
1045,123,-158,1000,-210,-65,-435
1046,121,-152,1028,-223,7,-482
1047,134,-123,1032,-247,64,-503
1048,141,-114,1046,-257,64,-499
1049,136,-112,1040,-251,-5,-517
1050,136,-109,1049,-218,-99,-560
1051,117,-111,1025,-179,-147,-603
1052,119,-104,1030,-147,-118,-640
1053,128,-105,1039,-97,-60,-693
1054,133,-87,1039,-65,-24,-761
1055,135,-77,1048,-104,-20,-794
1056,134,-54,1023,-182,-44,-753
1057,134,-53,1016,-233,-85,-663
1058,135,-54,1029,-255,-124,-620
1059,138,-66,1007,-268,-118,-642
1060,122,-55,990,-237,-87,-671
1061,129,-33,1029,-122,-50,-697
1062,144,-32,1022,66,-42,-747
1063,150,-25,1024,232,-114,-779
1064,132,-48,1018,284,-188,-759
1065,114,-62,1022,210,-177,-716
1066,117,-71,1014,9,-83,-697
1067,121,-68,1017,-253,15,-640
1068,132,-56,1023,-442,42,-556
1069,127,-46,1024,-491,13,-480
1070,144,-44,1001,-423,-48,-466
1071,153,-50,994,-251,-101,-519
1072,137,-40,1006,-52,-145,-605
1073,135,-35,1007,107,-153,-663
1074,134,-35,1017,210,-118,-695
1075,142,-19,1015,204,-69,-689
1076,137,-21,1023,120,-60,-638
1077,140,-23,1034,-13,-85,-566
1078,135,-32,1003,-132,-87,-507
1079,132,-34,997,-247,-58,-472
1080,133,-36,995,-284,-28,-458
1081,130,-32,1004,-210,-28,-486
1082,124,-33,1013,-91,-36,-546
1083,130,-27,1017,21,-40,-605
1084,134,-33,1022,120,-48,-640
1085,135,-18,1017,177,-93,-624
1086,132,-18,995,177,-108,-576
1087,137,-18,999,148,-91,-531
1088,134,-20,992,114,-34,-515
1089,137,-27,991,66,3,-490
1090,136,-26,1004,42,15,-464
1091,141,-27,1001,52,24,-441
1092,143,-32,992,85,34,-451
1093,132,-22,1018,95,56,-451
1094,139,-34,1007,83,64,-413
1095,142,-40,1003,101,60,-363
1096,150,-37,1009,196,32,-398
1097,146,-36,993,288,-9,-476
1098,133,-37,988,380,-50,-546
1099,121,-30,994,472,-50,-599
1100,125,-20,997,499,3,-638
1101,135,-14,999,466,85,-648
1102,141,-14,1007,421,144,-609
1103,146,-14,1025,368,148,-570
1104,154,-12,1039,269,118,-544
1105,157,-18,1034,136,81,-507
1106,161,-16,1029,23,40,-460
1107,135,-5,1024,-79,-15,-413
1108,126,-15,1040,-134,-40,-349
1109,138,-18,1028,-145,-30,-328
1110,135,-16,1017,-186,-46,-329
1111,147,-28,1001,-177,-87,-341
1112,143,-13,995,-42,-110,-406
1113,136,-20,978,103,-102,-464
1114,142,-19,980,191,-63,-490
1115,123,-26,991,198,-11,-499
1116,131,-8,1006,144,32,-515
1117,142,-5,1017,91,30,-503
1118,141,6,1016,79,1,-478
1119,155,-3,1016,71,-36,-439
1120,144,-9,998,42,-52,-417
1121,147,-8,983,-9,-42,-419
1122,137,-5,1001,-48,-20,-431
1123,140,5,998,-30,-17,-453
1124,136,11,994,25,5,-466
1125,133,0,1004,105,30,-478
1126,147,7,1018,175,23,-488
1127,134,-11,1003,179,-11,-478
1128,135,-10,998,124,-56,-445
1129,142,-6,984,44,-58,-425
1130,138,-5,977,-24,-5,-433
1131,141,11,1004,-65,54,-445
1132,137,9,1027,-73,64,-425
1133,138,12,1011,-46,23,-374
1134,150,2,992,-28,-20,-367
1135,136,-13,1015,-77,-42,-372
1136,128,-5,992,-126,-17,-365
1137,135,6,995,-93,32,-384
1138,138,16,988,-65,54,-439
1139,147,24,999,-59,21,-453
1140,136,28,986,-42,-7,-412
1141,138,15,984,-32,-15,-369
1142,135,7,978,-42,-19,-335
1143,133,1,961,-77,-7,-314
1144,134,-14,977,-141,32,-318
1145,133,1,992,-220,101,-363
1146,141,6,992,-309,146,-376
1147,151,5,1000,-321,142,-333
1148,133,16,1001,-259,110,-314
1149,143,20,1001,-175,85,-339
1150,153,26,1013,-38,62,-380
1151,144,34,1005,89,62,-382
1152,130,23,999,152,26,-326
1153,132,6,1005,130,23,-267
1154,132,-9,999,44,34,-236
1155,140,-27,992,-61,56,-206
1156,128,-13,970,-138,62,-206
1157,122,-27,956,-159,95,-234
1158,124,-18,980,-161,177,-269
1159,123,-17,986,-130,267,-318
1160,135,10,1027,-104,319,-347
1161,135,19,1042,-73,278,-328
1162,155,21,1047,1,200,-308
1163,157,14,1056,46,87,-312
1164,141,17,1035,44,-15,-320
1165,126,23,1036,64,-46,-298
1166,120,17,1033,107,-11,-277
1167,133,1,1020,142,34,-285
1168,133,12,1029,152,62,-306
1169,120,37,1045,150,77,-324
1170,120,34,1051,142,71,-318
1171,130,55,1049,157,13,-314
1172,125,59,1040,175,-61,-328
1173,120,76,1035,253,-142,-372
1174,130,80,1019,341,-179,-400
1175,122,86,1016,386,-167,-388
1176,126,80,1006,384,-112,-359
1177,123,83,1003,318,-50,-328
1178,124,86,1025,187,9,-275
1179,127,83,1016,60,64,-208
1180,127,99,1025,-3,122,-160
1181,135,117,1051,-13,175,-142
1182,157,117,1066,25,181,-132
1183,162,135,1105,73,122,-111
1184,162,139,1093,107,54,-74
1185,149,122,1130,122,50,-29
1186,168,114,1154,150,118,26
1187,178,113,1189,196,249,26
1188,171,119,1280,298,368,-56
1189,212,165,1392,486,481,-242
1190,259,204,1550,767,612,-468
1191,308,252,1750,1157,792,-671
1192,340,341,1962,1599,860,-777
1193,366,390,2048,1907,759,-691
1194,373,401,2048,2038,546,-244
1195,380,348,2048,1847,-1,381
1196,414,323,2048,1487,-401,846
1197,414,292,2048,984,-854,979
1198,417,293,2048,571,-1270,962
1199,418,339,2048,411,-1749,852
1200,365,392,2048,568,-2288,653
1201,266,418,2048,960,-2946,499
1202,212,404,2048,1351,-3767,547
1203,127,346,2048,1445,-4854,856
1204,-4,260,2048,1099,-6276,1391
1205,-178,149,2048,491,-7575,1946
1206,-314,17,2048,-245,-8413,2282
1207,-434,-28,2048,-1120,-8938,2424
1208,-558,-90,2048,-1950,-9251,2325
1209,-646,-174,2032,-2452,-9679,2184
1210,-729,-205,1814,-2534,-10216,2044
1211,-799,-199,1579,-2294,-10860,1811
1212,-892,-208,1312,-1850,-11567,1553
1213,-985,-225,1028,-1464,-12265,1426
1214,-1061,-245,756,-1313,-12925,1469
1215,-1132,-222,502,-1427,-13440,1590
1216,-1142,-195,201,-1835,-13733,1641
1217,-1133,-153,-137,-2487,-13765,1536
1218,-1079,-97,-475,-3184,-13313,1217
1219,-975,8,-767,-3903,-12413,796
1220,-869,161,-1081,-4649,-11192,335
1221,-759,361,-1315,-5284,-9727,-134
1222,-679,543,-1468,-5440,-8173,-464
1223,-571,670,-1503,-4815,-6798,-550
1224,-479,756,-1518,-3473,-5774,-439
1225,-383,790,-1536,-1751,-4962,-372
1226,-309,763,-1497,-40,-4267,-421
1227,-300,652,-1577,1304,-3645,-525
1228,-255,602,-1537,2441,-2774,-761
1229,-251,528,-1533,2816,-2116,-726
1230,-302,478,-1566,2532,-1487,-470
1231,-385,430,-1522,2007,-882,-91
1232,-453,380,-1506,1546,-198,391
1233,-480,368,-1485,1277,671,735
1234,-454,377,-1448,1261,1622,817
1235,-435,395,-1430,1487,2532,717
1236,-361,435,-1381,1798,3259,551
1237,-300,473,-1322,2130,3870,338
1238,-240,536,-1253,2556,4362,118
1239,-276,555,-1126,3144,4794,-5
1240,-368,540,-982,3777,5310,-3
1241,-443,486,-835,4193,5939,110
1242,-486,447,-700,4435,6704,245
1243,-521,368,-536,4650,7577,387
1244,-527,267,-392,4798,8446,501
1245,-561,181,-206,4843,9190,581
1246,-639,139,42,4802,9839,600
1247,-719,164,261,4681,10394,481
1248,-717,103,554,4501,10911,249
1249,-634,90,788,4599,11640,126
1250,-517,118,985,4603,12192,79
1251,-409,130,1276,4353,12388,57
1252,-350,118,1659,4017,12380,14
1253,-298,145,2048,3853,12442,36
1254,-223,180,2048,3757,12837,-21
1255,-74,189,2048,3493,12999,-19
1256,50,119,2048,2784,12601,325
1257,191,6,2048,1482,11485,1096
1258,275,-54,2048,-227,9577,1878
1259,290,-109,2048,-1850,7190,2372
1260,219,-193,2048,-2614,5294,2540
1261,161,-302,2048,-2477,4093,2514
1262,150,-442,2048,-1680,3528,2247
1263,209,-481,2048,-554,3499,1397
1264,277,-423,2048,540,3517,20
1265,328,-321,2048,1277,3136,-1253
1266,368,-192,2048,1663,2554,-2078
1267,411,-57,2048,1632,1839,-2441
1268,460,21,2048,1046,940,-2443
1269,457,149,2048,185,95,-2101
1270,378,247,1985,-466,-554,-1587
1271,245,296,1803,-847,-852,-984
1272,189,263,1595,-1018,-741,-343
1273,242,202,1409,-1198,-528,206
1274,256,166,1329,-1292,-198,495
1275,260,148,1264,-1202,120,538
1276,263,114,1256,-831,386,514
1277,244,53,1238,-345,536,530
1278,227,-8,1212,5,558,565
1279,202,-68,1239,200,491,471
1280,168,-67,1252,282,423,210
1281,169,-75,1267,333,380,-78
1282,174,-63,1270,349,358,-288
1283,178,-9,1260,222,339,-390
1284,200,1,1262,17,253,-427
1285,194,14,1236,-214,38,-374
1286,176,45,1194,-452,-200,-259
1287,150,44,1129,-608,-351,-107
1288,135,43,1056,-673,-358,65
1289,133,-6,987,-641,-323,184
1290,117,-34,961,-626,-259,212
1291,111,-37,947,-643,-173,176
1292,113,-32,941,-536,-48,96
1293,123,-50,950,-345,58,10
1294,127,-46,984,-169,112,-81
1295,110,-43,1024,1,71,-195
1296,143,-26,1034,122,-30,-312
1297,157,6,1021,73,-188,-355
1298,140,35,1013,-134,-339,-275
1299,140,66,988,-350,-397,-95
1300,131,65,973,-493,-292,57
1301,118,82,971,-587,-145,135
1302,103,79,973,-598,-30,141
1303,116,58,980,-485,83,151
1304,116,37,966,-276,116,120
1305,128,-3,984,-83,110,59
1306,125,-20,1004,-16,108,-5
1307,136,-41,1041,-54,122,-74
1308,136,-34,1048,-134,108,-181
1309,133,-9,1076,-229,54,-234
1310,140,5,1051,-329,-22,-171
1311,130,8,1040,-393,-61,-58
1312,150,18,1039,-397,-108,22
1313,152,13,1033,-327,-171,77
1314,130,5,1015,-247,-261,92
1315,127,-14,971,-161,-294,65
1316,100,-12,962,-93,-235,8
1317,120,-13,944,-40,-102,-23
1318,128,-10,957,-1,52,-54
1319,140,6,980,-14,167,-70
1320,137,10,989,-22,208,-70
1321,155,1,1034,-24,155,-79
1322,144,28,1033,-5,17,-109
1323,132,23,1031,36,-122,-103
1324,136,36,1002,130,-181,-72
1325,128,31,994,202,-173,-17
1326,131,17,992,198,-128,46
1327,116,-7,983,114,-71,94
1328,123,-20,988,15,19,92
1329,127,-14,991,-89,87,46
1330,134,-4,1017,-194,140,8
1331,145,13,1011,-296,142,10
1332,155,14,1014,-343,69,34
1333,147,34,1019,-302,-7,28
1334,132,31,1031,-227,-63,32
1335,134,26,1019,-124,-75,65
1336,150,12,1013,44,-71,57
1337,140,0,1004,181,-101,44
1338,133,-27,1000,237,-134,49
1339,126,-37,1001,228,-120,51
1340,125,-49,984,144,-63,32
1341,130,-42,1027,-3,13,3
1342,141,-30,1021,-149,89,1
1343,153,-2,1019,-227,114,38
1344,150,16,1020,-227,67,75
1345,129,14,1033,-186,-15,122
1346,130,-5,1004,-102,-85,147
1347,128,-9,982,-18,-144,176
1348,114,-29,951,89,-181,180
1349,126,-55,933,210,-167,159
1350,118,-71,984,267,-77,120
1351,121,-79,995,198,46,20
1352,135,-66,1015,9,165,-64
1353,141,-47,1032,-235,222,-85
1354,160,-25,1043,-425,237,-54
1355,161,-11,1048,-470,171,-19
1356,165,-2,1039,-417,44,53
1357,166,-26,1021,-290,-71,108
1358,142,-43,1025,-116,-122,100
1359,125,-70,1000,1,-120,57
1360,128,-75,1007,28,-73,6
1361,127,-69,988,1,-22,-33
1362,136,-70,991,-16,9,-37
1363,141,-85,1011,-18,26,-44
1364,133,-84,1023,-14,38,-56
1365,143,-101,1030,-36,42,-76
1366,150,-86,1036,-79,26,-120
1367,162,-85,1042,-83,-15,-152
1368,166,-79,1052,-40,-60,-179
1369,154,-75,1019,-22,-108,-185
1370,157,-94,1023,-55,-159,-167
1371,143,-95,988,-134,-190,-107
1372,133,-111,987,-179,-165,-68
1373,128,-114,973,-147,-106,-87
1374,131,-120,986,-93,-28,-124
1375,138,-137,981,-40,13,-158
1376,134,-133,994,-28,21,-175
1377,131,-151,1007,-81,-9,-197
1378,135,-146,1005,-179,-40,-222
1379,132,-162,999,-239,-60,-247
1380,145,-148,1006,-259,-83,-279
1381,137,-140,1014,-233,-126,-324
1382,133,-127,1003,-175,-159,-326
1383,137,-108,1014,-54,-116,-285
1384,146,-118,976,62,-44,-302
1385,147,-111,958,30,-34,-376
1386,143,-112,965,-55,-20,-480
1387,128,-101,938,-128,40,-568
1388,132,-99,953,-206,97,-632
1389,134,-96,972,-243,124,-681
1390,145,-86,1013,-286,99,-722
1391,153,-74,1029,-329,40,-785
1392,157,-53,1017,-331,-24,-826
1393,159,-37,1022,-259,-81,-824
1394,151,-29,1032,-141,-140,-792
1395,145,-48,1012,-38,-169,-775
1396,135,-53,994,3,-134,-773
1397,143,-62,1001,-9,-75,-773
1398,133,-57,1020,-48,-28,-775
1399,139,-53,1026,-102,-1,-775
1400,150,-42,1021,-163,21,-767
1401,148,-42,992,-225,21,-732
1402,136,-35,1008,-257,3,-693
1403,145,-46,1004,-249,7,-693
1404,141,-40,1011,-243,28,-736
1405,145,-22,1029,-243,34,-765
1406,149,-8,1025,-225,50,-749
1407,139,-7,1029,-143,52,-706
1408,147,-14,1021,-32,21,-683
1409,144,-27,1005,56,-15,-681
1410,137,-20,1019,99,-5,-691
1411,134,-15,1017,118,65,-697
1412,149,-18,1027,101,128,-693
1413,150,-18,1030,54,128,-701
1414,147,-14,1047,23,89,-708
1415,147,-3,1032,11,60,-704
1416,136,-6,1044,17,40,-687
1417,148,-8,1015,30,7,-667
1418,144,-18,1012,48,-19,-667
1419,146,-16,1006,79,3,-660
1420,136,0,1014,89,44,-667
1421,140,-13,1024,101,67,-673
1422,127,2,1021,81,62,-675
1423,128,-1,1022,38,50,-652
1424,133,0,1015,-40,44,-615
1425,132,-11,999,-163,40,-564
1426,129,6,988,-300,-1,-494
1427,135,5,963,-331,-36,-476
1428,116,7,953,-223,-79,-525
1429,103,14,965,-32,-91,-593
1430,119,9,946,163,-30,-640
1431,107,-8,965,267,32,-650
1432,111,-8,959,230,50,-632
1433,116,-28,939,111,69,-583
1434,119,-15,959,-40,108,-560
1435,122,-9,974,-141,155,-544
1436,118,-7,974,-149,175,-523
1437,127,-13,1004,-126,187,-476
1438,127,-8,998,-126,204,-413
1439,143,-22,1017,-126,228,-400
1440,135,-10,1005,-108,224,-445
1441,121,-6,1012,-34,206,-458
1442,130,-28,1016,142,200,-488
1443,127,-36,1030,277,208,-542
1444,126,-41,1041,304,194,-607
1445,124,-45,1033,255,161,-638
1446,121,-28,1031,138,116,-642
1447,127,-23,1040,-3,73,-607
1448,127,-3,1022,-149,69,-535
1449,135,-13,990,-253,77,-449
1450,124,-11,971,-274,75,-456
1451,117,-19,987,-202,85,-505
1452,117,-13,999,-136,132,-537
1453,113,-6,1024,-116,187,-544
1454,130,-3,1027,-36,194,-609
1455,132,12,1038,11,163,-648
1456,126,12,1035,30,93,-642
1457,138,25,1024,-24,32,-628
1458,138,44,1029,-116,-13,-628
1459,138,71,1012,-167,-34,-634
1460,133,81,1019,-110,-20,-636
1461,139,93,1018,-5,7,-603
1462,126,85,1012,62,26,-544
1463,134,89,1009,60,28,-486
1464,130,82,995,11,30,-431
1465,131,84,988,-22,65,-408
1466,130,90,1028,-24,140,-423
1467,142,108,1042,60,194,-464
1468,157,112,1068,196,177,-517
1469,158,118,1076,318,126,-511
1470,145,119,1091,361,60,-456
1471,148,126,1074,316,17,-347
1472,151,98,1047,181,-5,-203
1473,138,85,1040,30,9,-85
1474,128,90,1047,-67,60,-27
1475,121,82,1058,-48,112,5
1476,127,67,1068,28,138,16
1477,137,59,1062,79,128,28
1478,123,46,1081,85,105,42
1479,127,45,1090,89,116,10
1480,138,49,1116,109,122,-50
1481,154,46,1134,91,83,-91
1482,157,77,1182,79,-11,-113
1483,163,99,1158,103,-110,-70
1484,168,106,1151,165,-173,3
1485,162,107,1169,224,-198,67
1486,153,119,1183,275,-130,81
1487,168,135,1234,339,13,36
1488,183,128,1318,441,192,-35
1489,192,97,1450,560,380,-128
1490,202,80,1645,653,548,-285
1491,252,62,1860,663,677,-433
1492,264,62,2048,626,782,-552
1493,288,122,2048,419,495,-523
1494,382,174,2048,189,30,-359
1495,380,194,2048,228,-657,-367
1496,373,226,2048,546,-1433,-347
1497,373,252,2048,726,-2159,-140
1498,352,203,2048,777,-2626,153
1499,336,172,2048,833,-2948,354
1500,301,176,2048,769,-3265,374
1501,229,181,2048,566,-3612,337
1502,186,166,2048,503,-4077,385
1503,103,165,2048,556,-4669,524
1504,14,92,2048,542,-5731,770
1505,-98,8,2048,517,-7071,944
1506,-239,-60,2048,534,-8409,1003
1507,-388,-126,2048,618,-9446,1061
1508,-514,-218,2048,597,-10165,1165
1509,-613,-309,2048,390,-10667,1274
1510,-694,-381,1927,30,-11022,1278
1511,-774,-433,1701,-501,-11352,1172
1512,-894,-461,1467,-1167,-11741,1085
1513,-978,-486,1250,-1770,-12161,1010
1514,-1078,-465,1048,-2180,-12454,796
1515,-1135,-380,790,-2555,-12702,467
1516,-1122,-249,489,-3116,-13046,96
1517,-1095,-72,150,-3807,-13341,-187
1518,-1071,88,-208,-4450,-13245,-503
1519,-1038,237,-611,-4923,-12829,-611
1520,-959,389,-944,-5116,-11905,-468
1521,-880,503,-1196,-4925,-10382,-222
1522,-776,571,-1361,-4173,-8413,-101
1523,-671,607,-1422,-3048,-6440,-115
1524,-514,620,-1428,-1823,-4810,-308
1525,-374,604,-1395,-591,-3733,-617
1526,-229,595,-1338,443,-3257,-933
1527,-120,565,-1313,1138,-3046,-1132
1528,-86,533,-1313,1538,-2911,-1230
1529,-68,498,-1298,1681,-2759,-1144
1530,-54,465,-1336,1704,-2470,-962
1531,-59,466,-1332,1737,-2042,-888
1532,-40,464,-1341,1665,-1401,-822
1533,-16,469,-1330,1523,-626,-677
1534,37,513,-1314,1325,81,-513
1535,103,593,-1330,954,667,-353
1536,145,638,-1329,646,1159,-89
1537,155,658,-1320,511,1562,381
1538,146,640,-1278,505,1976,967
1539,116,586,-1206,591,2415,1467
1540,77,527,-1165,761,2847,1866
1541,50,472,-1094,964,3231,2206
1542,-13,386,-1026,1177,3616,2380
1543,-76,308,-956,1425,3976,2421
1544,-118,270,-907,1605,4339,2344
1545,-123,245,-851,1653,4706,2120
1546,-155,211,-801,1683,5046,1881
1547,-198,197,-756,1814,5370,1708
1548,-273,186,-660,2038,5689,1553
1549,-344,182,-556,2226,5985,1456
1550,-392,152,-503,2327,6280,1440
1551,-433,158,-451,2376,6571,1526
1552,-488,157,-416,2402,6858,1768
1553,-554,164,-378,2357,7233,2106
1554,-663,176,-331,2253,7753,2426
1555,-835,145,-289,2198,8364,2657
1556,-1015,167,-165,2120,9114,2862
1557,-1201,258,-27,1941,10265,3020
1558,-1382,261,91,1995,11755,3073
1559,-1469,162,335,2552,13124,3137
1560,-1365,51,660,3581,14140,3342
1561,-1344,-101,1207,4929,14876,3329
1562,-1250,-83,2010,6403,15392,2380
1563,-1116,-102,2048,7706,15366,936
1564,-811,-155,2048,8780,15450,-203
1565,-457,-43,2048,8995,15771,-890
1566,27,-109,2048,7099,14228,-472
1567,308,-352,2048,2841,10581,758
1568,254,-568,2048,-2485,5958,2151
1569,10,-623,2048,-6597,2636,2903
1570,-133,-683,2048,-8608,981,2848
1571,-68,-690,2048,-8579,358,2397
1572,78,-588,2048,-6606,405,1602
1573,235,-496,2048,-3485,489,415
1574,299,-400,2048,-491,308,-898
1575,302,-303,2048,1439,-142,-1904
1576,328,-175,2048,2003,-567,-2351
1577,355,-28,2048,1685,-901,-2341
1578,354,88,1951,987,-1284,-1896
1579,341,147,1784,275,-1698,-1275
1580,282,148,1600,-259,-1979,-749
1581,225,77,1427,-643,-2102,-365
1582,177,-13,1287,-821,-2048,-107
1583,143,-102,1147,-682,-1821,102
1584,105,-184,1038,-286,-1499,256
1585,65,-229,942,214,-1159,280
1586,17,-283,908,777,-786,147
1587,-15,-279,913,1251,-397,-218
1588,16,-257,917,1462,-56,-683
1589,76,-220,929,1355,161,-982
1590,149,-150,914,1095,220,-1113
1591,162,-43,934,890,181,-1068
1592,171,1,975,874,-9,-822
1593,170,-13,972,993,-263,-497
1594,172,-21,963,1030,-397,-183
1595,157,-43,949,882,-433,51
1596,146,-71,945,546,-435,215
1597,136,-90,874,73,-384,321
1598,124,-90,836,-380,-224,344
1599,128,-78,831,-589,17,331
1600,124,-78,843,-542,241,245
1601,125,-80,868,-266,351,128
1602,123,-82,911,187,386,20
1603,143,-94,933,646,411,-60
1604,167,-84,955,980,460,-120
1605,168,-55,995,1210,452,-134
1606,182,-27,1007,1333,407,-62
1607,187,-20,1003,1318,329,38
1608,147,-31,1005,1167,228,135
1609,147,-44,998,915,192,184
1610,141,-47,982,614,286,169
1611,142,-47,971,343,460,202
1612,141,-67,983,144,638,258
1613,141,-88,1005,1,796,272
1614,141,-101,1066,-67,917,184
1615,120,-118,1143,-46,950,49
1616,141,-120,1187,83,884,-85
1617,156,-134,1256,234,634,-222
1618,168,-119,1280,386,169,-331
1619,183,-112,1224,509,-292,-363
1620,176,-105,1194,542,-558,-363
1621,152,-118,1146,425,-630,-304
1622,129,-124,1085,150,-591,-199
1623,127,-149,1025,-253,-493,-113
1624,115,-147,988,-692,-374,-44
1625,116,-139,976,-1024,-231,-15
1626,113,-132,955,-1122,-69,-60
1627,118,-120,949,-1024,69,-179
1628,108,-87,950,-802,157,-310
1629,150,-65,1011,-354,148,-456
1630,193,-27,1012,191,36,-634
1631,189,-9,1014,611,-124,-730
1632,174,6,1006,818,-317,-650
1633,152,-5,987,812,-397,-460
1634,162,-22,988,616,-390,-314
1635,152,-32,979,282,-321,-259
1636,122,-51,947,-59,-185,-267
1637,110,-63,935,-317,26,-308
1638,125,-86,954,-432,239,-331
1639,130,-72,986,-440,366,-359
1640,131,-55,1001,-354,374,-423
1641,140,-52,1049,-139,315,-501
1642,153,-54,1063,112,206,-548
1643,145,-65,1080,282,60,-552
1644,127,-83,1059,345,-108,-511
1645,121,-100,1044,294,-235,-470
1646,93,-118,1001,122,-290,-429
1647,92,-128,965,-124,-245,-394
1648,90,-116,948,-366,-126,-351
1649,85,-132,960,-468,50,-326
1650,95,-137,989,-425,190,-347
1651,123,-146,1002,-333,237,-388
1652,126,-168,1010,-206,165,-535
1653,98,-159,1036,-143,69,-718
1654,96,-146,1070,-102,-9,-816
1655,119,-131,1052,-36,-75,-833
1656,128,-137,1035,-26,-169,-802
1657,117,-145,1017,-83,-247,-767
1658,93,-146,1027,-200,-245,-749
1659,101,-152,990,-366,-171,-783
1660,95,-155,974,-534,-108,-818
1661,98,-148,969,-663,-54,-872
1662,102,-126,978,-761,17,-984
1663,124,-103,956,-815,89,-1117
1664,135,-45,1000,-774,118,-1193
1665,130,-2,1020,-571,103,-1208
1666,145,21,1009,-278,40,-1203
1667,142,14,1030,-16,-38,-1247
1668,135,30,1016,116,-142,-1279
1669,123,22,989,206,-247,-1236
1670,120,13,967,273,-259,-1183
1671,109,9,962,278,-173,-1144
1672,114,-17,943,214,-20,-1146
1673,113,7,963,103,130,-1163
1674,125,22,995,-9,243,-1179
1675,119,29,1026,-108,292,-1154
1676,140,43,1048,-151,298,-1120
1677,138,50,1047,-139,208,-1078
1678,135,39,1038,-97,65,-1009
1679,119,21,1039,19,1,-980
1680,117,12,1060,165,32,-999
1681,107,10,1087,230,77,-1031
1682,119,0,1094,159,64,-992
1683,114,3,1089,-26,-9,-927
1684,110,2,1050,-268,-77,-839
1685,90,-7,1023,-483,-101,-761
1686,116,6,994,-598,-75,-738
1687,99,6,974,-616,1,-788
1688,95,9,958,-536,106,-892
1689,84,40,1003,-485,185,-929
1690,100,60,1025,-389,231,-908
1691,105,79,1044,-245,224,-910
1692,120,67,1032,13,138,-990
1693,133,85,1043,273,24,-1042
1694,130,85,1045,458,-67,-1046
1695,126,86,1032,558,-145,-1042
1696,104,69,1021,454,-200,-982
1697,128,80,1027,556,-198,-1017
1698,104,73,1023,236,-161,-945
1699,110,74,991,-52,-104,-861
1700,123,95,975,-307,-63,-745
1701,120,94,959,-456,-71,-620
1702,121,91,933,-499,-65,-556
1703,111,94,909,-473,3,-533
1704,117,82,931,-368,114,-527
1705,117,75,959,-243,183,-499
1706,130,68,1000,-165,202,-462
1707,141,83,997,-122,159,-456
1708,147,83,1020,54,62,-486
1709,162,81,1006,261,-67,-537
1710,144,64,978,374,-140,-527
1711,135,77,979,353,-99,-474
1712,130,79,970,261,3,-417
1713,133,74,995,140,83,-367
1714,134,79,996,30,132,-328
1715,140,65,981,-52,165,-265
1716,134,63,997,-112,194,-204
1717,131,50,1006,-132,206,-179
1718,129,58,1018,-112,210,-191
1719,138,63,1028,23,179,-230
1720,146,71,1047,171,91,-306
1721,162,87,1037,263,15,-331
1722,162,99,1049,267,-58,-259
1723,147,105,1032,230,-122,-122
1724,136,85,1030,169,-132,-9
1725,117,62,1009,107,-75,42
1726,131,46,1001,25,-1,63
1727,118,37,1015,-65,50,67
1728,113,40,990,-130,83,57
1729,138,33,982,-153,120,61
1730,129,33,1012,-163,146,59
1731,135,31,1032,-112,116,36
1732,141,36,1038,-22,79,-1
1733,140,41,1044,83,36,8
1734,140,35,1047,218,-11,47
1735,141,20,1031,251,-77,88
1736,124,-8,1030,183,-114,133
1737,133,-11,996,44,-91,153
1738,115,-13,978,-136,-26,182
1739,123,-29,995,-233,60,196
1740,116,-9,1002,-222,132,182
1741,117,-16,1019,-134,165,128
1742,136,-23,1048,-30,120,51
1743,145,0,1049,64,15,-5
1744,125,-19,1037,116,-102,1
1745,118,-26,1012,126,-151,49
1746,125,-24,1003,83,-128,102
1747,128,-35,996,34,-81,108
1748,134,-18,991,25,-24,100
1749,126,-35,1004,58,32,71
1750,117,-31,1028,79,58,49
1751,125,-37,1019,66,65,20
1752,123,-32,1016,-13,67,10
1753,144,-32,1033,-63,75,-21
1754,128,-29,1042,-97,73,-37
1755,132,-21,1064,-136,87,-13
1756,143,-3,1074,-138,79,3
1757,140,-11,1060,-104,26,-1
1758,135,-28,1066,-98,-50,-5
1759,127,-25,1039,-128,-75,18
1760,128,-28,1048,-112,-30,5
1761,136,-23,1072,-24,34,-62
1762,147,1,1114,66,73,-140
1763,156,11,1146,202,48,-197
1764,170,23,1159,337,-20,-232
1765,180,33,1198,382,-120,-218
1766,166,27,1204,335,-190,-175
1767,175,31,1204,214,-245,-117
1768,172,33,1233,79,-270,-91
1769,175,49,1265,32,-263,-105
1770,192,55,1345,44,-167,-150
1771,236,82,1446,75,34,-214
1772,278,110,1592,142,314,-294
1773,312,147,1774,171,505,-302
1774,305,149,1975,144,489,-120
1775,329,104,2048,150,341,139
1776,373,100,2048,253,65,329
1777,368,76,2048,501,-431,301
1778,393,61,2048,1009,-1009,108
1779,412,51,2048,1786,-1399,-435
1780,356,55,2048,2431,-1696,-1111
1781,261,43,2048,2548,-2099,-1497
1782,195,83,2048,2136,-2724,-1513
1783,118,153,2048,1294,-3579,-1203
1784,62,197,2048,400,-4601,-581
1785,-6,188,2048,-153,-5593,255
1786,-78,159,2048,-298,-6311,919
1787,-181,127,2048,-118,-6798,1126
1788,-236,83,1968,200,-7145,1038
1789,-247,64,1792,560,-7368,862
1790,-266,58,1639,905,-7470,698
1791,-268,45,1521,1155,-7489,534
1792,-315,34,1502,1347,-7472,389
1793,-327,18,1546,1384,-7647,296
1794,-347,-4,1540,1114,-7866,186
1795,-370,4,1443,642,-8296,88
1796,-404,-9,1268,71,-8866,112
1797,-477,11,1056,-632,-9479,276
1798,-546,30,878,-1401,-9944,538
1799,-572,35,657,-2198,-10347,745
1800,-570,63,435,-2950,-10718,817
1801,-560,100,198,-3557,-11106,811
1802,-558,126,-30,-3911,-11382,719
1803,-504,195,-211,-3962,-11440,581
1804,-461,237,-419,-3835,-11337,421
1805,-397,297,-545,-3589,-11110,174
1806,-355,358,-730,-3311,-10718,-238
1807,-309,393,-942,-2722,-10130,-687
1808,-221,378,-1097,-1628,-9370,-1058
1809,-180,403,-1189,-311,-8423,-1408
1810,-159,391,-1226,903,-7364,-1693
1811,-136,393,-1250,1839,-6321,-1722
1812,-84,398,-1318,2273,-5241,-1599
1813,-34,401,-1371,2107,-4237,-1369
1814,-7,410,-1398,1601,-3306,-970
1815,-12,430,-1407,1009,-2352,-449
1816,-27,430,-1379,593,-1323,124
1817,-35,419,-1309,446,-233,659
1818,5,419,-1257,450,755,1079
1819,64,408,-1191,489,1468,1303
1820,123,399,-1157,612,1939,1333
1821,159,405,-1114,808,2214,1297
1822,167,439,-1089,989,2300,1251
1823,140,437,-1073,1208,2331,1262
1824,80,432,-1063,1495,2415,1376
1825,7,418,-1026,1818,2603,1538
1826,-44,396,-1016,2103,2909,1688
1827,-132,359,-989,2294,3319,1721
1828,-178,324,-957,2486,3788,1631
1829,-222,335,-933,2681,4372,1522
1830,-292,327,-867,2911,5036,1413
1831,-340,324,-787,3196,5714,1403
1832,-357,287,-717,3527,6349,1428
1833,-395,257,-622,3798,6915,1479
1834,-452,213,-518,3939,7407,1534
1835,-549,177,-397,3886,7870,1542
1836,-601,145,-281,3657,8263,1546
1837,-650,124,-194,3380,8667,1579
1838,-737,94,-67,3140,9079,1598
1839,-830,74,45,2880,9442,1631
1840,-922,54,231,2640,9847,1721
1841,-1013,17,434,2462,10333,1838
1842,-1064,-65,690,2644,10831,1954
1843,-1096,-132,977,3474,11483,1930
1844,-1108,-228,1404,4675,12284,1487
1845,-918,-417,2015,5950,13136,702
1846,-646,-425,2048,6421,13569,-470
1847,-359,-343,2048,5902,13562,-1732
1848,-103,-180,2048,4472,12765,-2527
1849,103,-26,2048,2595,11171,-2267
1850,261,65,2048,532,9124,-974
1851,381,58,2048,-1485,7204,778
1852,345,-46,2048,-2727,5694,2258
1853,249,-164,2048,-3184,4538,3024
1854,197,-316,2048,-3350,3784,3114
1855,235,-441,2048,-3077,3562,2784
1856,304,-496,2048,-2448,3523,2104
1857,321,-492,2048,-1761,3472,1262
1858,327,-463,2048,-1333,3132,633
1859,341,-422,2048,-1212,2587,327
1860,364,-353,2048,-1192,1983,118
1861,345,-262,2048,-1138,1585,-210
1862,325,-182,2048,-872,1372,-634
1863,322,-117,2048,-413,1157,-900
1864,328,-77,2048,-30,784,-943
1865,308,-88,1905,179,261,-792
1866,289,-103,1673,153,-227,-470
1867,294,-134,1499,-50,-548,-195
1868,247,-118,1372,-251,-591,-128
1869,205,-113,1323,-255,-433,-208
1870,147,-72,1315,-46,-63,-347
1871,149,-47,1318,191,323,-470
1872,168,-67,1324,347,505,-546
1873,179,-73,1327,433,458,-624
1874,185,-70,1306,403,228,-687
1875,193,-61,1261,337,-61,-724
1876,190,-47,1188,273,-335,-689
1877,141,-29,1139,247,-542,-599
1878,128,-21,1100,224,-636,-443
1879,122,-31,1078,173,-614,-326
1880,104,-30,1050,109,-581,-279
1881,88,-34,1027,52,-558,-267
1882,93,3,1004,-1,-534,-279
1883,93,1,947,-20,-485,-277
1884,81,22,909,-93,-435,-197
1885,54,18,888,-186,-390,-60
1886,69,9,881,-266,-370,-9
1887,70,21,833,-280,-333,-54
1888,69,15,833,-180,-288,-122
1889,59,12,816,71,-183,-140
1890,86,-6,851,345,-54,-117
1891,73,-17,887,472,-15,-120
1892,74,-19,905,433,-11,-136
1893,92,-11,930,290,-15,-142
1894,94,15,962,173,-69,-132
1895,104,44,990,107,-83,-74
1896,119,81,1020,105,-36,-7
1897,121,80,1030,155,-9,61
1898,119,69,1027,206,34,137
1899,124,60,1012,236,95,176
1900,122,37,1004,222,149,202
1901,121,16,1038,196,208,235
1902,128,-11,1054,177,214,247
1903,135,-21,1104,118,149,251
1904,112,-28,1079,32,32,272
1905,113,-45,1076,-36,-75,297
1906,115,-66,1052,-65,-151,296
1907,107,-84,1029,-63,-185,278
1908,106,-85,1033,-73,-169,204
1909,94,-84,1028,-91,-122,108
1910,100,-62,1021,-57,-69,38
1911,109,-56,998,32,-69,14
1912,114,-61,988,136,-108,22
1913,115,-57,976,195,-136,12
1914,115,-63,987,212,-120,-42
1915,116,-46,1019,187,-89,-132
1916,133,-27,1039,116,-48,-193
1917,141,-5,1051,28,-50,-144
1918,131,-10,1040,-32,-124,-15
1919,132,-19,1016,-55,-204,83
1920,121,-40,986,-81,-212,88
1921,120,-60,986,-122,-159,59
1922,128,-67,982,-98,-101,34
1923,120,-56,987,-20,-52,12
1924,115,-56,997,71,-13,-37
1925,119,-52,1030,140,-20,-93
1926,123,-64,995,177,-91,-124
1927,126,-61,984,155,-136,-138
1928,123,-58,994,60,-149,-101
1929,125,-66,991,-59,-145,-23
1930,112,-85,999,-173,-145,42
1931,104,-110,1000,-305,-173,90
1932,107,-123,981,-438,-183,128
1933,99,-126,995,-493,-204,114
1934,106,-133,978,-440,-183,-7
1935,118,-120,962,-370,-110,-214
1936,128,-86,986,-323,-34,-394
1937,144,-62,991,-233,26,-462
1938,163,-38,1006,-81,32,-488
1939,153,-45,1021,68,11,-488
1940,146,-49,1037,196,-36,-482
1941,164,-61,1033,236,-75,-458
1942,146,-83,1026,173,-93,-408
1943,151,-94,1015,42,-83,-345
1944,146,-103,1020,-104,-40,-287
1945,149,-120,1021,-198,-13,-232
1946,155,-129,1030,-202,-24,-203
1947,152,-158,1018,-159,-65,-210
1948,138,-175,1010,-122,-128,-244
1949,130,-191,1020,-122,-190,-275
1950,139,-200,1021,-171,-206,-312
1951,137,-190,1022,-268,-175,-365
1952,146,-186,1014,-350,-136,-435
1953,149,-179,1016,-415,-87,-505
1954,147,-173,1017,-440,-81,-546
1955,146,-176,1022,-403,-134,-570
1956,152,-171,999,-376,-185,-601
1957,144,-181,1000,-368,-220,-632
1958,140,-190,1014,-339,-214,-665
1959,145,-188,1003,-321,-190,-699
1960,162,-192,994,-259,-188,-761
1961,150,-187,1006,-149,-190,-870
1962,152,-184,1001,-52,-206,-992
1963,155,-188,1001,-32,-229,-1091
1964,162,-180,996,-89,-239,-1138
1965,154,-172,988,-218,-259,-1136
1966,140,-169,993,-345,-249,-1089
1967,147,-147,1016,-415,-198,-1035
1968,168,-137,1008,-450,-163,-995
1969,169,-134,1009,-462,-167,-976
1970,167,-127,1024,-405,-198,-1001
1971,170,-125,1032,-284,-231,-1060
1972,163,-133,1000,-151,-253,-1132
1973,163,-138,989,-42,-253,-1191
1974,146,-148,988,7,-224,-1247
1975,143,-137,992,-40,-149,-1333
1976,144,-134,988,-192,-58,-1380
1977,164,-124,978,-423,-20,-1365
1978,151,-86,991,-624,-17,-1294
1979,141,-81,990,-700,5,-1230
1980,151,-64,986,-671,58,-1195
1981,166,-71,994,-514,58,-1230
1982,170,-64,1013,-280,5,-1322
1983,163,-65,1032,-87,-61,-1410
1984,150,-66,1031,56,-118,-1449
1985,143,-60,1014,50,-144,-1408
1986,143,-65,1024,-93,-149,-1331
1987,154,-66,996,-264,-122,-1296
1988,142,-51,987,-411,-71,-1279
1989,136,-55,985,-485,-9,-1277
1990,132,-48,975,-454,50,-1288
1991,137,-33,963,-380,73,-1316
1992,142,-36,993,-276,65,-1349
1993,141,-24,1023,-188,40,-1394
1994,153,-22,1017,-153,36,-1429
1995,153,-6,1032,-182,23,-1415
1996,148,6,1021,-210,-11,-1359
1997,152,5,1004,-175,-50,-1288
1998,143,-2,1000,-104,-75,-1259
1999,136,-9,970,-57,-65,-1267
2000,134,-14,946,-40,-26,-1257
2001,142,-18,952,-20,17,-1245
2002,147,-2,961,-32,73,-1242
2003,146,7,974,-95,138,-1222
2004,154,19,971,-161,208,-1179
2005,161,34,985,-163,243,-1115
2006,168,43,1011,-100,249,-1070
2007,163,18,1016,-3,243,-1048
2008,157,7,1009,62,214,-1015
2009,157,-3,1011,62,194,-982
2010,160,2,1040,32,173,-964
2011,168,0,1060,50,132,-978
2012,171,-3,1061,101,67,-1017
2013,167,11,1045,101,24,-1023
2014,164,0,1044,36,17,-978
2015,162,13,1057,-75,28,-898
2016,153,11,1039,-190,48,-831
2017,152,25,1049,-268,75,-785
2018,156,37,1059,-296,89,-765
2019,162,34,1042,-313,69,-745
2020,160,37,1036,-319,36,-706
2021,157,40,1048,-347,9,-665
2022,153,53,1025,-397,9,-622
2023,148,71,1015,-417,7,-583
2024,157,83,1017,-345,3,-570
2025,152,94,990,-223,3,-605
2026,155,103,998,-100,13,-642
2027,161,111,1003,-9,23,-683
2028,158,115,996,25,24,-685
2029,160,117,1006,28,40,-634
2030,159,120,1027,5,36,-560
2031,163,114,1024,-20,17,-472
2032,159,129,1025,-28,-15,-415
2033,168,131,1014,7,-26,-372
2034,159,117,1008,83,-24,-318
2035,150,100,1022,173,-46,-263
2036,161,87,1011,175,-56,-232
2037,160,77,1015,79,-50,-208
2038,151,83,1000,-42,-46,-146
2039,153,67,996,-116,-34,-31
2040,161,61,992,-67,-36,57
2041,158,31,1001,52,-32,79
2042,164,17,1003,185,-19,53
2043,174,-7,1016,288,15,18
2044,176,-22,1033,329,36,5
2045,172,-32,1038,277,44,8
2046,172,-37,1040,159,32,22
2047,181,-37,1021,1,11,79
2048,177,-21,1010,-128,-20,145
2049,179,-29,984,-145,-63,167
2050,162,-33,967,-73,-79,176
2051,167,-45,953,60,-42,176
2052,174,-58,961,200,13,126
2053,176,-63,994,316,71,28
2054,197,-54,1012,384,110,-60
2055,189,-52,1023,386,105,-97
2056,183,-38,1020,329,69,-54
2057,190,-56,1016,253,40,24
2058,198,-48,1029,196,-1,44
2059,200,-59,1037,191,-46,1
2060,201,-56,1016,230,-79,-66
2061,191,-43,1019,300,-73,-122
2062,197,-23,1013,380,-42,-163
2063,188,-31,1037,458,26,-214
2064,201,-21,1032,505,93,-257
2065,208,-12,1060,530,148,-304
2066,217,-7,1100,536,231,-314
2067,249,12,1160,583,337,-365
2068,274,46,1216,652,446,-490
2069,287,99,1320,730,564,-613
2070,332,168,1438,857,731,-718
2071,370,190,1606,1011,937,-802
2072,407,195,1841,1251,1130,-882
2073,500,243,2048,1534,1212,-921
2074,516,303,2048,1659,1208,-962
2075,568,352,2048,1427,841,-755
2076,585,331,2048,1009,183,-476
2077,578,318,2048,954,-499,-353
2078,555,323,2048,1372,-1300,-382
2079,511,302,2048,1691,-2515,-287
2080,432,206,2048,1577,-4019,77
2081,298,133,2048,1214,-5481,549
2082,125,73,2048,696,-6702,1014
2083,-23,35,2048,50,-7630,1381
2084,-156,-2,2048,-503,-8372,1588
2085,-237,-18,2048,-880,-8999,1618
2086,-326,-25,2048,-932,-9405,1430
2087,-396,-19,2048,-798,-9638,1143
2088,-455,-48,1902,-516,-9829,833
2089,-518,-72,1745,-222,-10069,555
2090,-606,-91,1546,-63,-10448,403
2091,-675,-105,1368,-106,-10962,456
2092,-756,-150,1163,-315,-11415,661
2093,-830,-192,992,-589,-11739,917
2094,-891,-220,827,-893,-11976,1176
2095,-932,-244,657,-1229,-12151,1403
2096,-944,-222,494,-1514,-12245,1475
2097,-917,-125,312,-1763,-12372,1323
2098,-885,-9,87,-2091,-12561,958
2099,-851,87,-139,-2425,-12825,567
2100,-797,184,-379,-2554,-13091,280
2101,-742,291,-581,-2444,-13261,12
2102,-738,412,-698,-1973,-13313,-390
2103,-747,466,-815,-1206,-13267,-753
2104,-766,469,-906,-100,-13017,-974
2105,-786,501,-1022,1122,-12429,-1167
2106,-805,541,-1231,1941,-11825,-1454
2107,-875,529,-1527,2243,-11317,-1845
2108,-944,554,-1752,2187,-10622,-2146
2109,-1025,535,-1918,1691,-9372,-1960
2110,-1074,551,-2048,1109,-7308,-1449
2111,-1090,547,-2048,706,-4649,-788
2112,-1037,540,-2048,655,-1892,-119
2113,-959,506,-1976,978,610,467
2114,-919,480,-1752,1480,2681,837
2115,-841,514,-1547,1888,4155,872
2116,-791,536,-1411,2226,5118,756
2117,-759,562,-1271,2626,5730,610
2118,-727,563,-1152,2966,6067,538
2119,-720,552,-1063,3228,6382,561
2120,-731,523,-977,3407,6759,641
2121,-756,479,-867,3550,7329,723
2122,-810,447,-774,3671,8101,758
2123,-861,385,-696,3820,9021,760
2124,-912,314,-616,4050,10036,792
2125,-983,285,-514,4161,11146,942
2126,-1063,252,-391,4023,12167,1247
2127,-1155,161,-261,3728,13058,1657
2128,-1239,92,-29,3269,13970,2133
2129,-1326,51,197,2704,14960,2633
2130,-1362,-31,442,2111,15997,3071
2131,-1377,-122,765,1864,16681,3422
2132,-1372,-168,1159,2056,16958,3631
2133,-1281,-205,1676,2599,16987,3419
2134,-995,-233,2048,3814,16651,2467
2135,-758,-243,2048,5495,16345,999
2136,-399,-225,2048,7003,16149,-445
2137,-92,-152,2048,7548,15730,-1333
2138,198,-263,2048,6134,13909,-1015
2139,443,-450,2048,2814,11007,235
2140,592,-529,2048,-764,8167,1803
2141,516,-577,2048,-3136,5939,2897
2142,424,-620,2048,-3888,4364,3294
2143,379,-667,2048,-3481,3218,3028
2144,376,-667,2048,-2376,2444,2229
2145,395,-613,2048,-1075,1989,1094
2146,427,-481,2048,-153,1782,-54
2147,457,-310,2048,220,1778,-788
2148,484,-147,2048,431,1870,-1142
2149,499,-31,2048,665,2032,-1300
2150,487,62,2048,909,2110,-1279
2151,449,52,2048,1101,1907,-1091
2152,420,3,2048,1101,1396,-753
2153,408,-56,1997,841,771,-302
2154,395,-110,1813,364,239,163
2155,350,-156,1646,-134,-9,460
2156,297,-187,1555,-507,-106,534
2157,259,-233,1493,-569,-48,477
2158,232,-247,1418,-378,64,258
2159,213,-227,1357,-120,148,-56
2160,212,-213,1287,200,105,-398
2161,217,-176,1221,441,3,-665
2162,188,-147,1184,581,-114,-798
2163,205,-116,1190,655,-274,-849
2164,220,-37,1152,587,-472,-859
2165,209,1,1116,439,-708,-781
2166,186,23,1048,286,-931,-529
2167,157,20,990,189,-1044,-185
2168,126,-8,939,66,-979,36
2169,123,-44,875,-91,-804,114
2170,128,-68,829,-249,-552,120
2171,145,-89,820,-298,-296,90
2172,143,-83,855,-235,-34,16
2173,144,-66,881,-98,157,-117
2174,164,-53,924,73,231,-271
2175,159,-29,949,218,171,-349
2176,158,-28,993,314,56,-271
2177,163,-26,1023,445,-67,-138
2178,169,-43,1024,556,-165,-52
2179,163,-62,1022,579,-231,-37
2180,125,-97,1008,448,-229,-76
2181,138,-110,1007,222,-155,-101
2182,146,-101,973,-100,-73,-91
2183,159,-78,943,-460,5,-60
2184,163,-28,958,-655,62,-62
2185,161,8,972,-554,103,-78
2186,160,25,1009,-247,120,-101
2187,180,10,1016,116,79,-134
2188,190,17,1022,349,-11,-150
2189,176,1,1021,390,-114,-83
2190,168,-22,1013,310,-190,65
2191,171,-52,976,193,-261,225
2192,152,-86,948,81,-288,288
2193,134,-94,961,1,-235,251
2194,143,-102,950,-54,-50,128
2195,162,-92,964,-87,177,-40
2196,187,-52,1005,-57,339,-236
2197,187,-11,1049,1,384,-361
2198,211,-4,1080,83,271,-372
2199,215,-3,1071,153,79,-290
2200,213,-6,1048,130,-102,-142
2201,201,-38,1028,64,-212,28
2202,188,-62,1030,-57,-181,137
2203,187,-82,1022,-218,-118,210
2204,184,-76,1012,-358,-87,253
2205,178,-82,1014,-399,-79,237
2206,172,-98,997,-259,-87,130
2207,160,-102,989,-87,-81,20
2208,158,-114,977,28,-61,-42
2209,172,-109,963,54,-61,-74
2210,171,-112,949,21,-95,-103
2211,175,-93,941,52,-116,-165
2212,159,-87,953,124,-106,-220
2213,150,-103,960,204,-63,-251
2214,166,-102,981,239,26,-277
2215,180,-113,994,191,93,-283
2216,189,-111,996,101,101,-271
2217,176,-115,987,9,79,-275
2218,191,-127,998,-89,48,-265
2219,187,-129,988,-210,54,-269
2220,185,-119,1008,-315,52,-277
2221,183,-113,1000,-325,26,-273
2222,171,-128,992,-235,-38,-281
2223,170,-130,972,-136,-81,-316
2224,167,-147,983,-73,-63,-380
2225,172,-158,964,-100,-5,-445
2226,178,-171,991,-171,60,-480
2227,181,-163,1010,-173,93,-499
2228,181,-175,1034,-138,85,-544
2229,186,-172,1043,-155,38,-605
2230,179,-171,1025,-237,-26,-667
2231,192,-150,1011,-374,-79,-706
2232,187,-132,1028,-489,-130,-724
2233,189,-106,1003,-546,-224,-716
2234,202,-99,1003,-591,-251,-679
2235,189,-73,972,-632,-208,-638
2236,180,-63,979,-628,-165,-578
2237,186,-73,964,-561,-116,-548
2238,195,-64,977,-522,-54,-572
2239,200,-79,977,-555,24,-605
2240,191,-67,1006,-608,71,-636
2241,192,-64,1039,-647,93,-642
2242,189,-48,1017,-653,48,-646
2243,190,-54,1012,-587,-36,-640
2244,191,-63,990,-440,-93,-642
2245,170,-86,998,-292,-54,-665
2246,177,-97,1010,-218,24,-697
2247,175,-99,1018,-227,95,-703
2248,186,-95,1025,-282,130,-683
2249,179,-93,1034,-356,114,-642
2250,180,-102,1011,-442,99,-581
2251,157,-87,998,-563,87,-505
2252,150,-99,1010,-581,87,-441
2253,157,-100,1016,-472,36,-451
2254,148,-126,996,-427,3,-554
2255,138,-161,985,-440,23,-658
2256,136,-175,979,-452,62,-712
2257,144,-176,968,-448,62,-773
2258,153,-177,966,-452,32,-888
2259,165,-139,973,-485,11,-1015
2260,152,-106,967,-497,54,-1056
2261,157,-93,963,-417,112,-1017
2262,157,-74,990,-284,146,-992
2263,172,-86,994,-136,126,-1007
2264,170,-79,994,-28,71,-1035
2265,172,-77,1003,25,42,-1031
2266,165,-80,1000,11,64,-990
2267,168,-61,1008,-13,108,-968
2268,171,-60,1004,-59,136,-947
2269,157,-61,992,-97,163,-929
2270,158,-79,986,-108,171,-910
2271,158,-75,976,-153,175,-874
2272,147,-86,969,-233,165,-843
2273,162,-84,966,-292,175,-818
2274,156,-69,970,-282,231,-826
2275,154,-60,974,-222,294,-841
2276,154,-70,991,-91,333,-849
2277,153,-58,1015,7,331,-857
2278,161,-52,1027,13,284,-841
2279,177,-64,1017,-32,183,-792
2280,186,-63,1004,-98,116,-767
2281,185,-34,1017,-118,103,-777
2282,164,-36,1008,-91,128,-787
2283,164,-28,1021,7,171,-773
2284,177,-17,1028,91,218,-740
2285,174,-8,1036,116,202,-701
2286,179,-25,1020,85,175,-638
2287,175,-22,1009,-18,183,-572
2288,174,-12,1007,-198,208,-509
2289,178,-14,1019,-263,228,-515
2290,172,0,1039,-100,218,-617
2291,187,2,1046,109,159,-718
2292,169,4,1067,253,89,-763
2293,153,1,1055,243,19,-697
2294,169,-4,1051,132,7,-572
2295,176,-14,1036,-75,1,-456
2296,155,-11,1021,-208,-1,-363
2297,153,1,1008,-173,23,-316
2298,160,-7,985,-36,56,-290
2299,157,-29,985,126,64,-306
2300,151,-48,976,257,54,-382
2301,143,-67,982,236,75,-425
2302,152,-62,1011,155,126,-458
2303,155,-33,1011,54,171,-429
2304,168,-15,1005,-28,194,-349
2305,180,10,992,-91,173,-318
2306,168,12,995,-44,136,-322
2307,157,26,1002,83,106,-326
2308,149,15,956,185,67,-347
2309,123,4,986,198,3,-329
2310,139,1,952,152,-46,-275
2311,152,3,952,70,40,-204
2312,151,12,961,-7,163,-181
2313,154,8,966,-16,296,-175
2314,170,13,1006,81,444,-218
2315,185,15,1044,193,433,-290
2316,202,28,1061,271,306,-337
2317,183,41,1068,308,146,-372
2318,179,45,1077,312,93,-384
2319,155,27,1078,263,214,-402
2320,188,24,1094,206,380,-400
2321,179,15,1116,150,452,-343
2322,223,20,1123,112,452,-285
2323,222,11,1158,161,466,-218
2324,206,10,1187,241,491,-119
2325,209,-16,1235,366,591,-42
2326,209,-53,1342,462,659,-44
2327,243,-62,1423,544,646,-103
2328,257,-36,1502,573,544,-203
2329,266,-44,1600,634,386,-281
2330,327,-36,1713,804,356,-347
2331,366,-13,1853,1056,437,-531
2332,372,26,2017,1411,526,-751
2333,339,38,2048,1886,534,-1001
2334,333,54,2048,2523,587,-1335
2335,359,102,2048,2995,583,-1742
2336,399,166,2048,3027,179,-2113
2337,423,208,2048,2618,-806,-2138
2338,417,277,2048,1931,-2186,-1650
2339,346,279,2048,1224,-3683,-837
2340,233,253,2048,614,-5067,-1
2341,101,191,2048,101,-6044,553
2342,-2,102,2048,-434,-6761,838
2343,-102,10,2048,-919,-7395,1034
2344,-201,-61,2048,-1220,-7991,1100
2345,-289,-95,2048,-1229,-8567,1010
2346,-376,-137,2048,-966,-9243,876
2347,-443,-187,2048,-253,-10038,631
2348,-555,-225,2048,532,-10831,380
2349,-688,-273,2048,1124,-11522,161
2350,-802,-301,2048,1419,-12188,36
2351,-934,-338,1902,1271,-12964,75
2352,-1070,-362,1685,716,-13755,256
2353,-1195,-345,1427,-112,-14378,467
2354,-1292,-332,1174,-1134,-14685,614
2355,-1362,-284,885,-2333,-14702,579
2356,-1321,-123,531,-3712,-14606,413
2357,-1239,50,196,-5009,-14487,223
2358,-1167,275,-75,-5973,-14321,-15
2359,-1095,475,-374,-6417,-14048,-222
2360,-1030,611,-679,-6282,-13651,-189
2361,-951,704,-877,-5487,-12813,18
2362,-852,720,-1052,-4364,-11526,262
2363,-766,695,-1162,-3030,-10147,460
2364,-665,617,-1221,-1559,-8833,448
2365,-553,525,-1243,-134,-7675,172
2366,-449,455,-1315,950,-6694,-369
2367,-412,405,-1304,1593,-5845,-925
2368,-412,347,-1250,1804,-5058,-1326
2369,-411,344,-1235,1646,-4286,-1460
2370,-366,357,-1219,1294,-3528,-1402
2371,-326,383,-1239,890,-2907,-1261
2372,-262,457,-1249,476,-2464,-1079
2373,-202,509,-1305,210,-2138,-847
2374,-164,577,-1400,210,-1843,-589
2375,-131,651,-1446,454,-1476,-408
2376,-113,690,-1506,870,-1003,-374
2377,-112,698,-1499,1306,-394,-402
2378,-129,701,-1465,1788,302,-400
2379,-108,663,-1444,2230,1019,-369
2380,-79,630,-1398,2562,1708,-339
2381,-46,575,-1330,2706,2327,-245
2382,-36,544,-1288,2718,2860,-48
2383,-42,525,-1191,2689,3304,178
2384,-75,491,-1125,2638,3718,430
2385,-109,461,-1066,2605,4140,655
2386,-123,422,-973,2634,4550,854
2387,-189,402,-892,2734,4948,971
2388,-247,383,-803,2872,5329,987
2389,-302,337,-721,3050,5690,952
2390,-327,285,-651,3204,6116,907
2391,-323,253,-599,3214,6583,956
2392,-279,239,-584,2993,6962,1126
2393,-272,236,-571,2573,7181,1329
2394,-324,267,-511,2157,7251,1573
2395,-387,269,-470,1995,7358,1876
2396,-466,263,-406,2163,7640,2059
2397,-541,231,-341,2544,8015,2159
2398,-682,151,-218,3011,8444,2192
2399,-846,97,-61,3437,9085,2260
2400,-956,41,89,3591,9843,2296
2401,-989,-3,203,3489,10718,2212
2402,-987,-84,364,3552,11577,2026
2403,-998,-178,571,3964,12146,1598
2404,-965,-274,900,4732,12491,954
2405,-922,-310,1224,5659,12689,118
2406,-868,-283,1534,6167,12878,-878
2407,-837,-225,1957,6218,13280,-1765
2408,-693,-100,2048,6237,13974,-2314
2409,-466,9,2048,6099,14731,-2486
2410,-147,140,2048,5663,15060,-2392
2411,155,280,2048,4638,14259,-1917
2412,374,214,2048,2896,12034,-927
2413,450,121,2048,902,9048,210
2414,380,49,2048,-735,6560,1047
2415,271,-44,2048,-1796,5517,1424
2416,282,-137,2048,-2530,5054,1612
2417,335,-160,2048,-2878,4722,1579
2418,396,-139,2048,-2884,4382,1360
2419,418,-147,2048,-2473,3976,1038
2420,383,-151,2048,-1743,3431,694
2421,315,-153,2048,-903,2888,337
2422,314,-153,2048,-218,2370,-11
2423,290,-131,2048,71,1860,-328
2424,295,-92,2048,70,1259,-501
2425,308,-56,2048,-120,624,-550
2426,304,-7,1948,-352,56,-533
2427,242,0,1811,-448,-386,-556
2428,170,-1,1702,-329,-618,-579
2429,100,6,1571,-34,-694,-597
2430,94,13,1454,234,-681,-646
2431,147,34,1317,421,-675,-679
2432,177,36,1220,501,-583,-693
2433,192,64,1165,530,-495,-687
2434,167,81,1114,448,-456,-642
2435,152,97,1095,261,-409,-515
2436,135,115,1094,85,-345,-386
2437,141,138,1087,-73,-315,-312
2438,142,131,1054,-227,-403,-197
2439,121,116,1029,-284,-571,3
2440,111,106,978,-208,-714,169
2441,87,64,937,-97,-780,247
2442,92,32,938,-16,-741,180
2443,71,-6,885,23,-616,55
2444,75,-23,878,54,-450,-72
2445,93,-6,897,91,-231,-175
2446,108,16,913,87,-9,-238
2447,129,28,954,-26,124,-216
2448,157,34,1001,-151,134,-132
2449,149,53,1022,-204,5,-60
2450,150,42,1022,-171,-169,8
2451,132,30,988,21,-321,24
2452,123,36,971,251,-388,10
2453,129,32,955,380,-351,-11
2454,132,8,969,394,-227,-11
2455,130,9,990,359,-85,40
2456,120,-5,1016,314,24,44
2457,120,11,1018,120,136,-66
2458,121,4,1040,-61,210,-117
2459,137,4,1055,-157,181,-74
2460,138,27,1071,-153,46,-33
2461,137,32,1062,-42,-142,-21
2462,128,9,1014,95,-294,8
2463,109,-29,984,224,-349,36
2464,121,-34,942,224,-308,24
2465,109,-48,946,120,-210,20
2466,129,-51,959,21,-83,38
2467,135,-30,951,-85,34,47
2468,146,-5,969,-247,140,44
2469,153,30,992,-446,249,57
2470,156,46,993,-499,314,75
2471,161,33,994,-348,231,96
2472,171,16,995,-114,97,94
2473,153,7,1006,122,13,-27
2474,151,-13,1031,286,-15,-191
2475,144,0,1030,376,34,-275
2476,144,1,1042,359,62,-285
2477,142,13,1060,214,56,-269
2478,157,13,1027,-3,11,-163
2479,151,0,1008,-227,-50,-29
2480,155,7,1003,-389,-102,55
2481,147,18,1014,-464,-124,49
2482,148,33,978,-460,-108,-9
2483,157,43,977,-419,-87,-44
2484,144,36,976,-307,-81,3
2485,141,29,990,-63,-48,-5
2486,134,17,983,165,7,-83
2487,138,-13,1014,280,52,-134
2488,139,-18,1022,300,101,-148
2489,145,-16,1050,208,126,-152
2490,161,-25,1064,48,91,-146
2491,166,-15,1074,-120,-9,-134
2492,171,21,1041,-282,-122,-122
2493,156,40,1037,-413,-208,-50
2494,158,36,1010,-395,-226,57
2495,146,17,1011,-229,-216,116
2496,143,7,1003,-69,-177,73
2497,134,-14,1003,-1,-114,-3
2498,132,-44,1015,17,-34,-44
2499,140,-37,1017,25,30,-48
2500,151,-35,1017,-5,56,-79
2501,154,-25,1032,-128,50,-132
2502,157,-8,1042,-315,-1,-117
2503,151,6,1036,-411,-85,-97
2504,153,23,1023,-356,-144,-122
2505,153,23,1039,-169,-179,-183
2506,144,19,1003,71,-200,-230
2507,164,-7,992,234,-190,-265
2508,141,-17,981,263,-142,-269
2509,155,-32,985,171,-85,-247
2510,160,-6,985,-20,-22,-232
2511,152,27,1007,-212,48,-206
2512,152,41,1003,-296,77,-154
2513,163,48,1015,-276,54,-81
2514,176,54,1014,-218,-17,-54
2515,166,46,1024,-159,-138,-70
2516,162,40,975,-120,-255,-81
2517,130,31,952,-52,-267,-48
2518,125,6,941,38,-175,-9
2519,131,-26,953,122,-34,-13
2520,141,-37,969,99,105,-68
2521,145,-10,978,-128,210,-95
2522,143,-26,983,-7,194,-111
2523,159,-9,969,-190,149,-33
2524,149,-31,963,-171,67,-3
2525,144,-28,975,-134,50,-23
2526,137,-60,978,-38,79,-44
2527,144,-80,983,105,136,-62
2528,152,-111,986,193,153,-95
2529,151,-144,1020,193,157,-117
2530,147,-172,1022,169,177,-146
2531,152,-199,1046,134,220,-230
2532,160,-199,1069,-11,237,-339
2533,172,-185,1101,-173,218,-435
2534,177,-168,1099,-280,144,-484
2535,178,-170,1109,-331,44,-460
2536,164,-180,1092,-311,-77,-417
2537,151,-210,1075,-292,-167,-417
2538,155,-210,1039,-364,-218,-458
2539,145,-215,1005,-440,-220,-499
2540,145,-209,1001,-454,-198,-574
2541,142,-191,998,-384,-149,-716
2542,127,-193,980,-288,-102,-870
2543,141,-183,1005,-204,-83,-976
2544,146,-180,1013,-157,-101,-1037
2545,139,-164,1020,-206,-128,-1091
2546,145,-141,1030,-263,-149,-1128
2547,148,-140,1010,-290,-169,-1128
2548,142,-137,1005,-329,-188,-1132
2549,137,-142,992,-393,-204,-1136
2550,147,-129,988,-473,-206,-1126
2551,131,-116,954,-526,-200,-1136
2552,122,-109,959,-479,-171,-1189
2553,130,-91,974,-343,-112,-1287
2554,123,-71,980,-177,-48,-1408
2555,129,-63,999,-50,-22,-1490
2556,134,-45,1013,21,-46,-1503
2557,134,-46,1009,54,-77,-1460
2558,129,-67,989,42,-91,-1380
2559,112,-76,1003,-3,-71,-1353
2560,115,-69,1011,-114,-28,-1372
2561,108,-79,1037,-216,3,-1388
2562,134,-66,1055,-331,7,-1425
2563,153,-39,1048,-432,-5,-1503
2564,145,-24,1057,-481,-54,-1535
2565,136,1,1053,-382,-85,-1544
2566,138,16,1082,-214,-89,-1568
2567,138,31,1082,-59,-122,-1589
2568,133,26,1073,32,-181,-1589
2569,149,21,1068,30,-212,-1589
2570,159,36,1053,-87,-175,-1581
2571,162,47,1064,-239,-116,-1540
2572,156,55,1052,-305,-99,-1484
2573,164,77,1076,-347,-114,-1427
2574,167,79,1067,-327,-192,-1417
2575,157,89,1046,-302,-302,-1415
2576,159,100,1036,-331,-382,-1382
2577,162,122,1020,-370,-394,-1312
2578,162,123,987,-343,-382,-1245
2579,143,127,984,-278,-376,-1242
2580,135,121,956,-180,-368,-1259
2581,130,116,971,-114,-319,-1253
2582,140,130,967,-163,-243,-1230
2583,149,143,953,-337,-204,-1163
2584,152,162,947,-499,-188,-1042
2585,173,196,925,-559,-171,-939
2586,161,197,918,-524,-169,-851
2587,149,190,949,-348,-169,-806
2588,161,188,929,-93,-159,-808
2589,147,189,934,124,-142,-831
2590,151,188,942,218,-104,-822
2591,154,197,935,196,-28,-755
2592,175,204,949,111,15,-652
2593,169,207,940,-14,24,-525
2594,169,190,944,-75,50,-406
2595,169,185,968,-61,93,-335
2596,164,175,975,9,114,-277
2597,167,160,999,99,118,-218
2598,171,163,1022,157,112,-189
2599,191,145,1006,112,93,-150
2600,177,126,995,-1,58,-56
2601,153,100,981,-116,50,71
2602,170,75,988,-182,106,161
2603,149,46,960,-169,194,157
2604,167,26,989,-106,263,106
2605,170,30,1006,-42,312,47
2606,186,21,1024,85,343,-17
2607,208,34,1040,202,290,-66
2608,207,24,1047,288,159,-83
2609,194,21,1038,327,32,-56
2610,188,1,1042,327,-1,-3
2611,196,-9,1039,265,36,65
2612,190,-24,1039,122,83,122
2613,185,-24,1035,-63,101,165
2614,181,-26,1034,-247,89,196
2615,195,-28,1020,-362,62,212
2616,185,-31,991,-333,52,178
2617,187,-23,1007,-188,40,94
2618,180,-28,991,-55,34,30
2619,169,-23,1000,40,19,-21
2620,185,-22,1014,95,17,-44
2621,193,-12,1037,128,17,-58
2622,196,5,1002,111,-1,-79
2623,189,-1,992,85,-28,-52
2624,184,-5,974,56,-20,18
2625,185,-15,958,40,23,75
2626,171,-23,964,19,83,79
2627,166,-28,984,27,114,32
2628,164,-41,991,38,126,-21
2629,180,-16,981,30,151,-33
2630,191,-6,988,21,185,-11
2631,176,12,985,56,220,18
2632,167,-12,977,103,237,28
2633,188,-17,994,128,243,-9
2634,182,-7,1005,120,259,-68
2635,176,13,1032,163,261,-97
2636,173,8,1021,269,263,-91
2637,158,0,1037,355,274,-89
2638,160,-12,1024,394,286,-97
2639,158,-29,1031,370,347,-83
2640,164,-51,1045,302,429,-72
2641,164,-40,1071,189,548,-105
2642,172,-42,1107,70,685,-142
2643,181,-32,1192,7,853,-167
2644,181,-12,1271,-16,1003,-224
2645,203,26,1371,-5,1124,-333
2646,261,78,1506,89,1198,-449
2647,319,138,1649,239,1241,-505
2648,308,185,1809,521,1284,-560
2649,324,207,2033,866,1126,-521
2650,336,229,2048,1167,1021,-484
2651,338,219,2048,1216,862,-495
2652,368,181,2048,1073,493,-484
2653,342,179,2048,-89,-788,-216
2654,380,159,2048,648,-48,-423
2655,283,154,2048,-850,-1819,90
2656,202,131,2048,-1356,-3032,374
2657,137,92,2048,-1645,-4237,544
2658,58,51,2048,-1847,-5313,612
2659,-34,37,2048,-1950,-6302,583
2660,-83,49,2048,-2007,-7120,489
2661,-131,32,2048,-1991,-7790,434
2662,-188,19,2048,-1725,-8425,307
2663,-220,8,2048,-1182,-9140,96
2664,-273,-43,2048,-542,-10017,-105
2665,-347,-98,1936,36,-10811,-203
2666,-425,-131,1757,353,-11476,-124
2667,-520,-171,1570,226,-12061,143
2668,-604,-222,1366,-165,-12487,471
2669,-681,-268,1146,-647,-12645,674
2670,-710,-284,908,-1241,-12608,725
2671,-740,-253,651,-2054,-12567,674
2672,-728,-179,369,-3093,-12690,602
2673,-631,-73,55,-4087,-12804,450
2674,-501,31,-201,-4663,-12704,102
2675,-401,147,-432,-4483,-12276,-412
2676,-326,237,-648,-3737,-11661,-882
2677,-240,284,-816,-2708,-10837,-1228
2678,-168,304,-916,-1493,-9565,-1482
2679,-109,333,-962,-229,-8144,-1570
2680,-55,327,-961,880,-6827,-1632
2681,-45,255,-858,1864,-5747,-1755
2682,-64,197,-780,2587,-4925,-1806
2683,-27,205,-764,2796,-4261,-1886
2684,-4,208,-759,2509,-3886,-1915
2685,40,214,-788,2097,-3671,-1728
2686,72,222,-809,1814,-3394,-1361
2687,112,235,-842,1628,-3019,-994
2688,143,241,-880,1446,-2536,-710
2689,157,265,-886,1269,-2017,-499
2690,127,294,-915,1075,-1544,-300
2691,103,320,-922,911,-987,-66
2692,86,354,-938,704,-438,202
2693,92,386,-931,415,13,452
2694,94,409,-980,99,343,676
2695,132,430,-1009,-67,618,913
2696,145,409,-1081,50,882,1128
2697,133,402,-1062,454,1175,1227
2698,84,376,-1021,1058,1616,1204
2699,39,354,-949,1704,2181,1128
2700,9,328,-871,2218,2759,1071
2701,11,281,-817,2503,3372,1051
2702,8,224,-756,2534,3993,1147
2703,-13,181,-680,2392,4651,1360
2704,-43,139,-601,2204,5284,1588
2705,-77,91,-499,2052,5829,1811
2706,-114,56,-400,1984,6259,1977
2707,-163,-4,-297,1888,6538,2106
2708,-179,-67,-218,1726,6733,2253
2709,-204,-99,-149,1562,6913,2381
2710,-242,-110,-125,1425,7087,2450
2711,-303,-144,-89,1632,7331,2389
2712,-367,-195,11,2191,7646,2104
2713,-411,-220,100,2853,8114,1649
2714,-412,-245,218,3380,8786,1081
2715,-404,-272,354,3679,9493,518
2716,-402,-282,527,3782,10065,104
2717,-408,-281,776,3888,10569,-195
2718,-394,-255,980,4021,11071,-384
2719,-287,-214,1206,4021,11356,-540
2720,-213,-138,1468,3890,11308,-810
2721,-176,-78,1680,3870,10942,-1040
2722,-100,-53,1809,3946,10485,-1079
2723,-4,-32,1880,3829,10161,-870
2724,66,-58,1971,3353,10005,-597
2725,159,-76,2048,2642,10079,-421
2726,183,-44,2048,1870,10103,-349
2727,217,-27,2048,1007,9638,-103
2728,287,17,2048,196,8771,376
2729,345,59,2048,-339,7624,786
2730,382,59,2048,-622,6296,1077
2731,376,-5,2048,-845,5038,1327
2732,331,-60,2048,-956,4296,1485
2733,308,-134,2048,-1054,3761,1581
2734,277,-192,2048,-1100,3378,1561
2735,239,-248,2048,-970,3064,1391
2736,264,-235,2048,-788,2903,1059
2737,291,-192,2048,-618,2790,549
2738,330,-118,2048,-546,2552,153
2739,345,-60,2048,-475,2065,-27
2740,342,0,2048,-288,1378,-107
2741,331,5,2048,-98,606,-171
2742,306,0,1993,17,-126,-191
2743,241,-24,1863,50,-726,-120
2744,192,-56,1699,-63,-1102,3
2745,171,-83,1566,-268,-1237,128
2746,169,-120,1457,-555,-1200,149
2747,176,-127,1350,-829,-1089,83
2748,159,-83,1304,-956,-923,-31
2749,135,-54,1265,-860,-841,-115
2750,130,-24,1207,-612,-872,-163
2751,121,0,1148,-294,-974,-201
2752,104,3,1052,-11,-1089,-204
2753,97,-15,971,185,-1200,-150
2754,101,-11,934,314,-1241,-144
2755,92,-5,891,413,-1165,-203
2756,82,2,877,441,-944,-230
2757,64,-9,847,396,-729,-163
2758,56,-26,857,224,-552,-19
2759,64,-39,846,-7,-419,122
2760,73,-35,820,-235,-300,169
2761,85,-41,804,-382,-237,184
2762,81,-45,803,-421,-192,188
2763,78,-37,820,-290,-142,128
2764,85,-42,835,3,-116,-1
2765,82,-36,870,349,-140,-128
2766,103,-46,892,640,-177,-210
2767,107,-58,886,730,-188,-230
2768,111,-56,895,612,-159,-187
2769,117,-43,907,378,-99,-101
2770,130,-30,903,105,-50,38
2771,132,-34,924,-130,-9,190
2772,136,-37,941,-225,28,272
2773,133,-44,932,-192,64,260
2774,118,-49,950,-108,108,186
2775,118,-71,976,25,149,120
2776,137,-79,997,146,159,51
2777,136,-86,1008,187,132,-21
2778,144,-86,1028,204,116,-113
2779,149,-69,1050,208,126,-199
2780,165,-36,1032,124,163,-216
2781,164,-24,1046,7,144,-132
2782,148,-24,1061,-116,50,53
2783,149,-56,1058,-204,-56,253
2784,128,-81,1035,-276,-102,342
2785,114,-112,1020,-290,-99,313
2786,124,-121,1008,-220,-79,233
2787,127,-122,1009,-61,-36,128
2788,128,-123,998,112,-3,5
2789,128,-128,1006,234,-3,-105
2790,149,-128,1030,286,-71,-230
2791,158,-93,1050,261,-122,-365
2792,142,-70,1056,175,-132,-415
2793,147,-45,1055,70,-132,-365
2794,156,-39,1019,-55,-157,-230
2795,150,-50,994,-225,-186,-101
2796,144,-62,971,-364,-183,-25
2797,134,-52,951,-448,-126,-9
2798,136,-53,958,-397,-52,-40
2799,140,-47,948,-206,11,-122
2800,141,-33,978,48,48,-212
2801,135,-48,984,275,17,-287
2802,136,-67,997,372,-24,-294
2803,142,-84,990,368,-61,-269
2804,143,-105,958,275,-95,-244
2805,140,-113,957,146,-120,-222
2806,119,-124,971,-20,-71,-210
2807,120,-113,973,-229,36,-203
2808,130,-122,969,-446,179,-189
2809,139,-124,975,-608,263,-146
2810,143,-128,980,-657,255,-97
2811,136,-140,986,-565,192,-83
2812,125,-146,976,-356,128,-124
2813,134,-170,967,-102,120,-242
2814,133,-174,980,112,142,-413
2815,125,-173,965,222,118,-537
2816,132,-180,991,269,97,-591
2817,134,-172,992,251,87,-613
2818,135,-157,1016,132,122,-630
2819,128,-173,1025,-34,159,-646
2820,130,-158,1031,-202,200,-636
2821,128,-168,1049,-337,204,-615
2822,138,-171,1062,-417,144,-599
2823,129,-167,1039,-434,81,-624
2824,112,-168,1030,-421,34,-681
2825,107,-164,1043,-341,21,-757
2826,124,-144,1063,-266,48,-878
2827,141,-120,1052,-264,73,-990
2828,130,-86,1060,-276,46,-1048
2829,135,-64,1054,-261,-22,-1042
2830,130,-52,1062,-247,-87,-1007
2831,132,-67,1033,-214,-138,-995
2832,132,-56,1025,-198,-151,-1025
2833,127,-34,1005,-212,-112,-1060
2834,125,-27,1017,-198,-44,-1060
2835,137,-18,1030,-126,17,-1033
2836,135,-8,1067,-46,3,-1007
2837,125,-22,1042,13,-73,-966
2838,129,-29,1019,79,-138,-933
2839,116,-42,995,118,-144,-910
2840,117,-55,983,107,-108,-923
2841,116,-43,978,70,-26,-949
2842,106,-47,1000,46,42,-935
2843,109,-48,1002,15,114,-931
2844,112,-48,1009,-67,161,-937
2845,111,-51,1016,-169,155,-915
2846,129,-33,1045,-239,116,-894
2847,129,-23,1033,-194,69,-906
2848,123,-13,1035,-54,28,-956
2849,128,-13,1052,91,1,-990
2850,127,-3,1074,185,-32,-1005
2851,125,-4,1057,183,-95,-984
2852,129,-16,1032,77,-167,-906
2853,126,-21,1001,-42,-186,-826
2854,113,-31,969,-139,-120,-822
2855,114,-16,979,-190,-1,-906
2856,106,-7,986,-136,95,-988
2857,108,10,1016,-22,146,-1027
2858,123,-1,1042,93,130,-1037
2859,125,14,1045,152,60,-1048
2860,136,23,1032,112,-42,-1035
2861,150,41,1018,32,-116,-972
2862,145,60,994,-3,-147,-886
2863,137,59,984,87,-138,-841
2864,113,60,993,261,-99,-859
2865,105,30,1001,394,-30,-921
2866,113,17,1025,411,15,-976
2867,123,12,1013,257,23,-962
2868,127,32,1005,40,3,-902
2869,154,48,1001,-97,-28,-829
2870,154,78,993,-108,-52,-798
2871,155,102,986,-20,-67,-767
2872,138,106,984,130,-75,-716
2873,144,110,1005,269,-50,-681
2874,149,120,994,321,7,-671
2875,144,115,1002,278,44,-636
2876,158,116,994,198,28,-531
2877,174,108,985,103,17,-417
2878,158,123,988,13,24,-351
2879,140,115,982,9,44,-326
2880,135,99,1003,75,77,-308
2881,140,97,1027,185,81,-328
2882,137,94,1046,277,23,-378
2883,144,98,1042,277,-46,-392
2884,136,102,1012,173,-83,-328
2885,144,108,991,27,-85,-189
2886,160,97,988,-77,-65,-52
2887,142,103,967,-79,-26,16
2888,124,95,980,13,7,30
2889,123,70,975,173,38,16
2890,128,61,989,318,62,-13
2891,124,40,1012,321,93,-38
2892,137,34,1023,230,124,-48
2893,149,38,1020,101,103,-40
2894,150,22,1024,-20,52,-19
2895,142,30,1026,-73,-9,-1
2896,150,59,1027,-46,-42,36
2897,141,48,1010,42,-50,75
2898,147,36,1023,126,-58,114
2899,143,17,1006,173,-58,118
2900,139,12,1011,146,-34,124
2901,132,1,994,58,3,153
2902,137,-4,975,-52,40,184
2903,131,-24,988,-147,87,196
2904,134,-14,1012,-157,103,157
2905,138,-11,1025,-79,73,51
2906,150,3,1036,11,1,-68
2907,166,27,1068,77,-69,-138
2908,182,55,1060,97,-142,-107
2909,187,59,1059,54,-218,22
2910,171,46,1045,-11,-282,182
2911,164,22,1031,-71,-267,301
2912,159,0,1016,-104,-177,348
2913,142,3,1006,-118,-58,335
2914,147,-16,1023,-69,71,280
2915,159,-22,1070,9,153,188
2916,170,-22,1075,60,144,87
2917,179,-4,1104,111,99,8
2918,171,23,1121,226,83,-25
2919,181,40,1176,407,95,-54
2920,200,46,1228,542,122,-89
2921,217,48,1309,597,144,-136
2922,230,68,1364,609,192,-173
2923,251,32,1466,663,278,-197
2924,293,24,1593,712,353,-195
2925,336,40,1768,652,333,-212
2926,361,90,1900,452,183,-238
2927,409,136,2000,136,-26,-179
2928,425,175,2048,-85,-220,-38
2929,419,189,2048,-417,-708,208
2930,410,134,2048,-546,-1255,458
2931,446,91,2048,-83,-1868,352
2932,441,73,2048,464,-2597,67
2933,404,34,2048,650,-3458,-17
2934,381,8,2048,544,-4003,92
2935,359,-17,2048,237,-4331,202
2936,325,-30,2048,-315,-4614,356
2937,307,-14,2048,-751,-4909,489
2938,276,-5,2048,-831,-5269,465
2939,214,29,2048,-667,-5765,307
2940,149,48,2048,-292,-6352,171
2941,96,59,2048,234,-6991,75
2942,30,36,1985,609,-7581,49
2943,-58,1,1817,720,-8067,149
2944,-105,-47,1651,509,-8386,282
2945,-138,-54,1449,66,-8552,421
2946,-162,-55,1295,-458,-8608,524
2947,-245,-5,1013,-1182,-8540,518
2948,-208,-30,1169,-893,-8626,547
2949,-264,37,867,-1382,-8477,499
2950,-299,53,696,-1542,-8561,538
2951,-330,72,486,-1673,-8786,618
2952,-341,120,198,-1901,-8983,585
2953,-349,175,-135,-2227,-8979,448
2954,-322,235,-488,-2456,-8702,296
2955,-297,306,-805,-2337,-8022,190
2956,-302,341,-1001,-2069,-7171,262
2957,-272,362,-1088,-1604,-6183,378
2958,-179,372,-1152,-927,-5034,383
2959,-109,349,-1189,-18,-4001,235
2960,-77,297,-1085,1025,-3157,59
2961,-20,222,-929,1902,-2542,-85
2962,41,151,-824,2456,-2036,-201
2963,33,81,-725,2681,-1575,-341
2964,58,25,-620,2603,-1251,-392
2965,80,-19,-558,2345,-1052,-251
2966,100,-54,-512,1966,-909,-40
2967,106,-72,-527,1489,-837,133
2968,115,-33,-599,909,-786,231
2969,125,27,-684,296,-645,331
2970,189,140,-780,-257,-456,446
2971,271,216,-910,-628,-142,549
2972,294,278,-1010,-571,274,672
2973,261,329,-1030,-177,806,796
2974,207,349,-997,337,1460,932
2975,168,338,-931,866,2181,1036
2976,135,278,-849,1364,2919,1075
2977,107,186,-740,1825,3532,1042
2978,106,117,-612,2144,3964,948
2979,55,75,-477,2263,4405,864
2980,40,14,-349,2241,4819,872
2981,36,-19,-253,2093,5183,936
2982,-4,-50,-187,1882,5439,983
2983,-86,-59,-107,1679,5562,971
2984,-96,-61,-48,1476,5731,899
2985,-101,-4,51,1439,6112,674
2986,-129,63,150,1773,6554,253
2987,-157,97,268,2357,7017,-210
2988,-182,145,380,2874,7374,-456
2989,-213,191,477,3005,7503,-296
2990,-191,168,572,2706,7481,180
2991,-207,91,645,2208,7521,747
2992,-210,22,797,1816,7657,1030
2993,-224,13,975,1630,7937,1069
2994,-230,9,1145,1751,8458,1114
2995,-210,21,1360,1876,9069,1188
2996,-173,42,1560,1722,9489,1149
2997,-122,-23,1822,1259,9368,1130
2998,13,-119,2048,624,8812,1040
2999,124,-158,2048,335,8224,907
3000,246,-183,2048,622,7622,669
3001,359,-204,2048,1099,7089,401
3002,466,-187,2048,1486,6419,171
3003,566,-156,2048,1349,5343,90
3004,613,-146,2048,605,3968,311
3005,588,-135,2048,-335,2616,717
3006,473,-120,2048,-1040,1944,1036
3007,406,-87,2048,-1368,1683,1114
3008,375,-78,2048,-1434,1538,1032
3009,361,-77,1950,-1304,1446,948
3010,381,-71,1808,-739,1003,770
3011,366,-55,1844,-1036,1249,881
3012,366,-58,1811,-491,833,575
3013,347,-37,1785,-288,731,403
3014,339,-31,1747,-95,614,374
3015,334,-66,1699,79,409,385
3016,300,-101,1620,198,148,356
3017,286,-137,1555,273,-112,272
3018,271,-175,1483,318,-296,153
3019,225,-182,1427,292,-399,16
3020,210,-181,1383,185,-423,-107
3021,185,-142,1328,9,-370,-199
3022,195,-96,1268,-177,-333,-255
3023,187,-53,1198,-345,-360,-234
3024,189,-29,1137,-415,-462,-173
3025,192,-8,1074,-368,-604,-148
3026,169,-8,1041,-278,-749,-158
3027,169,-13,1014,-95,-890,-222
3028,151,-8,996,138,-933,-304
3029,140,-31,954,364,-895,-353
3030,137,-42,934,458,-782,-370
3031,144,-32,923,374,-608,-384
3032,161,-28,897,126,-448,-292
3033,150,-8,897,-159,-317,-130
3034,145,17,907,-317,-233,16
3035,151,14,913,-222,-151,67
3036,151,11,922,-26,-116,40
3037,150,-19,931,153,-130,-29
3038,167,-23,957,226,-202,-72
3039,175,-26,964,193,-227,-107
3040,170,-23,941,73,-239,-105
3041,146,-28,919,-52,-218,-27
3042,151,-30,917,-128,-128,49
3043,145,-38,905,-136,-38,44
3044,152,-36,942,-136,-5,-27
3045,166,-24,955,-112,24,-97
3046,180,-7,975,-77,52,-113
3047,194,21,984,-65,56,-81
3048,210,25,1006,-34,23,-29
3049,188,21,1014,-24,-34,32
3050,198,16,1032,-40,-118,83
3051,196,6,1010,-61,-177,87
3052,171,3,1003,-130,-198,98
3053,165,-14,976,-218,-147,163
3054,157,-34,964,-266,-30,212
3055,165,-47,985,-263,54,182
3056,170,-41,980,-202,60,98
3057,174,-37,972,-126,40,26
3058,178,-26,992,-42,58,-17
3059,192,-19,979,15,58,-46
3060,194,3,992,44,28,-58
3061,195,1,995,70,-19,-44
3062,197,-12,1024,126,-54,-9
3063,192,-28,1031,200,-77,8
3064,185,-36,1016,245,-67,-19
3065,196,-34,1006,226,-46,-58
3066,192,-42,1030,128,-28,-74
3067,194,-29,1014,-34,9,-17
3068,201,-19,1005,-214,46,38
3069,195,0,1022,-315,26,47
3070,196,11,1003,-261,-24,16
3071,197,-2,1000,-98,-61,-27
3072,189,9,992,122,-101,-87
3073,186,1,990,249,-124,-115
3074,177,-15,986,302,-110,-103
3075,184,-16,964,255,-65,-56
3076,182,-23,964,105,3,-19
3077,196,-19,984,-57,95,-7
3078,208,-2,1009,-192,165,14
3079,215,12,1021,-272,146,55
3080,212,19,1046,-280,67,79
3081,202,21,1065,-214,-22,88
3082,204,3,1034,-42,-110,55
3083,203,-5,1017,93,-173,6
3084,177,-9,993,134,-204,-7
3085,172,-36,980,83,-196,32
3086,164,-39,954,5,-144,73
3087,176,-50,936,-91,-52,87
3088,178,-43,941,-159,62,49
3089,191,-35,996,-34,216,-78
3090,175,-43,966,-130,157,-5
3091,192,-14,1014,48,204,-144
3092,205,-12,1039,91,144,-167
3093,214,7,1033,64,38,-169
3094,218,9,1031,-24,-108,-111
3095,193,11,996,-89,-227,-15
3096,189,1,995,-95,-231,53
3097,193,-16,966,-40,-157,63
3098,171,-23,960,13,-91,46
3099,169,-40,974,58,-15,10
3100,186,-41,958,64,67,-35
3101,175,-45,977,9,136,-68
3102,182,-34,983,-48,177,-85
3103,196,-13,1007,-89,196,-87
3104,210,-3,1024,-100,161,-70
3105,202,0,1045,-87,62,-19
3106,196,-5,1017,-24,-7,12
3107,186,-31,1007,52,-56,26
3108,179,-63,985,75,-69,47
3109,168,-89,980,60,-50,63
3110,174,-109,973,42,21,22
3111,175,-107,1007,-9,114,-74
3112,194,-104,1012,-36,189,-156
3113,201,-76,1043,-65,189,-212
3114,214,-64,1040,-79,120,-226
3115,204,-49,1044,-100,1,-189
3116,197,-48,1032,-159,-83,-134
3117,206,-47,1023,-233,-114,-101
3118,190,-45,991,-263,-114,-97
3119,175,-50,976,-223,-110,-105
3120,178,-57,942,-153,-83,-103
3121,183,-77,940,-93,-26,-113
3122,178,-95,950,-42,48,-130
3123,178,-103,931,-38,118,-162
3124,169,-124,958,-30,175,-204
3125,180,-112,991,-7,228,-263
3126,183,-138,1008,-3,263,-314
3127,191,-148,1034,-36,235,-335
3128,200,-148,1024,-126,159,-308
3129,187,-156,1022,-255,112,-255
3130,185,-188,1027,-397,69,-195
3131,152,-198,1025,-511,64,-150
3132,159,-215,1017,-518,77,-173
3133,171,-234,1043,-446,93,-306
3134,179,-233,1050,-341,93,-472
3135,177,-228,1062,-268,75,-638
3136,195,-195,1070,-245,52,-769
3137,200,-188,1059,-247,15,-847
3138,183,-161,1052,-263,-46,-888
3139,183,-140,1043,-264,-69,-908
3140,198,-140,1053,-229,-38,-947
3141,201,-119,1077,-208,-19,-997
3142,211,-104,1102,-210,-52,-1023
3143,216,-102,1107,-229,-142,-1021
3144,196,-93,1073,-272,-249,-997
3145,176,-103,1037,-288,-323,-956
3146,166,-121,995,-284,-313,-945
3147,154,-136,984,-317,-251,-949
3148,157,-140,974,-380,-185,-994
3149,162,-100,982,-446,-122,-1076
3150,186,-66,1007,-423,-44,-1162
3151,187,-37,1008,-296,-15,-1212
3152,195,-33,1010,-153,-36,-1208
3153,202,-29,1026,-71,-110,-1216
3154,203,-19,1038,-69,-185,-1222
3155,202,-16,1015,-138,-253,-1187
3156,198,12,1027,-237,-284,-1132
3157,195,33,1010,-259,-255,-1095
3158,197,35,1004,-220,-216,-1095
3159,193,48,1021,-179,-204,-1087
3160,184,40,988,-190,-210,-1052
3161,176,18,976,-214,-218,-966
3162,180,17,992,-259,-200,-904
3163,171,25,949,-366,-134,-851
3164,164,27,955,-450,-60,-790
3165,178,37,973,-399,-7,-753
3166,181,39,980,-214,15,-792
3167,170,38,1003,-26,-15,-849
3168,179,16,1007,75,-52,-880
3169,178,5,999,42,-79,-853
3170,188,16,986,-87,-102,-787
3171,189,13,987,-233,-147,-716
3172,182,22,969,-339,-163,-617
3173,166,13,934,-374,-122,-556
3174,168,26,939,-335,-52,-564
3175,172,10,948,-220,9,-609
3176,167,16,953,-59,28,-673
3177,163,12,969,64,44,-751
3178,179,15,998,87,67,-792
3179,185,29,1005,5,93,-745
3180,191,26,1002,-95,103,-630
3181,200,30,978,-175,71,-544
3182,194,21,955,-184,23,-505
3183,184,26,956,-106,3,-511
3184,190,25,964,1,36,-529
3185,187,17,982,89,95,-540
3186,197,16,988,118,120,-540
3187,198,7,995,124,110,-544
3188,212,16,986,124,101,-560
3189,193,30,985,136,97,-544
3190,200,8,999,179,120,-517
3191,206,4,1005,216,157,-505
3192,223,10,1015,173,189,-495
3193,212,0,1023,42,165,-433
3194,216,7,1016,-108,105,-331
3195,204,-12,990,-204,58,-245
3196,201,-25,979,-188,23,-232
3197,191,-34,979,-89,15,-261
3198,183,-44,981,27,40,-339
3199,187,-61,1012,128,67,-437
3200,199,-16,1027,32,44,-568
3201,194,-44,1032,134,58,-533
3202,197,-11,1016,-100,21,-533
3203,202,10,1016,-200,-3,-453
3204,197,29,1003,-196,-22,-402
3205,208,32,968,-108,-40,-378
3206,201,29,991,11,-26,-394
3207,197,33,991,120,-3,-449
3208,206,39,1001,159,7,-468
3209,206,43,998,130,5,-429
3210,197,39,1009,81,11,-378
3211,209,48,1010,3,40,-370
3212,210,60,999,-71,60,-372
3213,206,61,1009,-65,71,-357
3214,213,84,1029,40,50,-341
3215,225,78,1023,144,11,-329
3216,214,77,1035,175,-32,-314
3217,217,95,1021,165,-50,-269
3218,205,94,1022,130,-46,-214
3219,220,88,1036,132,-46,-171
3220,220,81,1009,150,-50,-138
3221,202,62,1006,136,-65,-101
3222,198,62,1017,77,-67,-60
3223,194,47,991,-24,-30,12
3224,205,36,987,-128,-3,98
3225,200,35,990,-204,-11,145
3226,193,42,961,-198,-32,155
3227,194,31,977,-52,-34,128
3228,185,21,981,153,-38,71
3229,188,13,964,323,-56,1
3230,181,-7,976,396,-42,-25
3231,193,-24,981,392,28,-31
3232,203,-18,991,298,122,-23
3233,205,-14,1013,116,196,14
3234,206,-7,1024,-18,210,63
3235,226,4,1053,-81,169,104
3236,223,-5,1042,-93,83,120
3237,218,-3,1030,-83,-46,116
3238,201,-8,1009,-52,-120,131
3239,197,-21,1000,-1,-101,149
3240,198,-31,995,28,-36,157
3241,206,-38,1009,19,9,135
3242,196,-37,1006,5,17,94
3243,196,-30,997,52,5,38
3244,195,-29,988,114,9,-3
3245,200,-35,1012,161,32,-23
3246,214,-28,1029,150,30,-44
3247,202,-27,1021,101,-1,-60
3248,196,-6,1029,111,-22,-64
3249,195,21,1032,161,1,-60
3250,202,18,1035,232,81,-48
3251,236,26,1065,300,167,-52
3252,236,24,1075,337,276,-79
3253,256,52,1149,312,413,-95
3254,261,78,1217,232,601,-50
3255,282,78,1317,97,794,28
3256,315,93,1420,-61,933,92
3257,352,104,1530,-118,964,128
3258,376,129,1637,-3,874,118
3259,374,127,1720,245,675,42
3260,363,100,1797,612,413,-33
3261,343,34,1869,872,85,-97
3262,342,-18,1984,1068,-142,-245
3263,348,-20,2048,1011,-392,-494
3264,366,4,2048,864,-378,-724
3265,464,14,2048,626,-296,-872
3266,518,88,2048,460,-290,-904
3267,550,278,2048,806,-241,-837
3268,542,363,2048,1497,-683,-923
3269,481,407,2048,2398,-1624,-945
3270,411,414,2048,3210,-2977,-747
3271,327,365,2048,3321,-4673,-351
3272,174,257,2048,2724,-6325,190
3273,-42,179,2048,1667,-7517,805
3274,-173,92,2048,505,-8227,1415
3275,-233,26,2048,-649,-8673,1901
3276,-279,-4,2048,-1536,-8972,2059
3277,-349,-34,1948,-1804,-9093,1881
3278,-404,-58,1811,-1503,-9216,1495
3279,-461,-84,1695,-788,-9544,1032
3280,-529,-125,1523,38,-10085,606
3281,-593,-149,1334,593,-10702,284
3282,-682,-184,1129,671,-11352,208
3283,-766,-195,898,153,-11952,436
3284,-842,-159,664,-706,-12345,786
3285,-828,-128,394,-1579,-12440,1038
3286,-802,-52,125,-2421,-12270,1077
3287,-729,33,-170,-3270,-11872,973
3288,-650,135,-426,-3948,-11130,854
3289,-572,254,-632,-4188,-10120,778
3290,-477,368,-802,-3962,-9048,647
3291,-426,437,-954,-3358,-8022,469
3292,-373,524,-1054,-2532,-7110,346
3293,-332,526,-1084,-1593,-6292,370
3294,-293,478,-1109,-628,-5435,460
3295,-246,425,-1100,222,-4604,481
3296,-161,358,-1127,866,-3993,335
3297,-101,331,-1151,1191,-3501,98
3298,-67,329,-1183,1259,-3003,-115
3299,-45,342,-1209,993,-2020,-48
3300,-37,341,-1208,1142,-2532,-169
3301,-65,358,-1214,839,-1376,239
3302,-51,369,-1219,681,-657,553
3303,-47,375,-1186,562,62,819
3304,-28,353,-1164,532,700,1040
3305,-1,349,-1140,554,1204,1165
3306,32,349,-1107,601,1548,1184
3307,28,355,-1077,771,1749,1159
3308,5,354,-1045,1114,1935,1110
3309,3,336,-1039,1556,2173,1028
3310,-20,305,-1017,1946,2446,921
3311,-33,291,-985,2165,2796,837
3312,-63,257,-972,2257,3241,811
3313,-90,256,-912,2296,3759,805
3314,-128,241,-869,2321,4294,827
3315,-148,221,-786,2359,4853,844
3316,-162,204,-685,2417,5345,844
3317,-161,158,-603,2472,5747,905
3318,-170,119,-501,2491,6192,1145
3319,-229,58,-376,2605,6671,1374
3320,-319,14,-277,2874,7163,1493
3321,-474,-52,-102,3200,7626,1469
3322,-506,-122,104,3519,8056,1307
3323,-467,-133,277,3700,8534,977
3324,-470,-113,438,4025,9093,563
3325,-470,-131,620,4644,9700,20
3326,-403,-102,812,5380,10095,-593
3327,-371,-52,1027,5814,10263,-1005
3328,-380,-21,1227,5728,10341,-1089
3329,-355,-32,1368,5089,10450,-804
3330,-338,-77,1607,4153,10771,-361
3331,-258,-95,1957,3489,11269,-234
3332,-93,16,2048,3169,11751,-583
3333,33,100,2048,2870,11847,-966
3334,143,175,2048,2269,11304,-943
3335,278,150,2048,1245,10021,-466
3336,380,48,2048,-108,8013,337
3337,450,-29,2048,-1720,5694,1227
3338,396,-32,2048,-2981,4196,1803
3339,358,-49,2048,-3532,3419,2010
3340,339,-103,2048,-3220,3255,1936
3341,329,-167,2048,-2272,3423,1577
3342,345,-210,2048,-1081,3423,940
3343,391,-191,2048,-61,3095,63
3344,415,-124,2048,396,2655,-738
3345,442,-33,2048,263,2136,-1093
3346,439,56,2048,-141,1556,-1019
3347,424,101,2048,-628,991,-556
3348,427,86,2048,-927,495,12
3349,405,72,1886,-960,93,309
3350,342,49,1723,-757,-128,233
3351,302,11,1588,-405,-204,-1
3352,289,-29,1497,-30,-204,-230
3353,280,-14,1459,218,-130,-437
3354,255,21,1435,327,-56,-589
3355,252,66,1449,325,26,-599
3356,266,65,1419,304,99,-462
3357,244,31,1398,267,54,-300
3358,241,10,1398,163,-198,-148
3359,223,-7,1339,87,-495,-126
3360,203,-22,1253,-38,-817,-148
3361,178,-38,1186,-100,-1017,-193
3362,169,-17,1166,-79,-1052,-228
3363,157,2,1119,-24,-1005,-271
3364,164,-3,1074,-1,-938,-328
3365,161,-2,1039,5,-886,-357
3366,161,2,1010,-32,-843,-343
3367,150,21,981,-100,-815,-281
3368,130,23,920,-214,-788,-183
3369,126,-3,873,-327,-743,-91
3370,140,-11,867,-407,-657,-40
3371,137,-6,843,-427,-534,-62
3372,140,11,863,-368,-409,-107
3373,145,29,875,-243,-298,-144
3374,156,27,885,-36,-255,-156
3375,162,23,894,220,-304,-158
3376,154,3,905,454,-341,-191
3377,141,-29,926,597,-333,-214
3378,147,-61,919,655,-308,-232
3379,138,-92,937,540,-276,-279
3380,157,-91,932,284,-227,-300
3381,168,-94,933,17,-155,-263
3382,175,-76,956,-138,-81,-236
3383,191,-60,950,-216,-40,-255
3384,195,-29,957,-233,-34,-314
3385,193,-26,972,-204,-75,-314
3386,195,-17,984,-130,-126,-234
3387,223,-13,983,-63,-167,-150
3388,227,-53,959,-52,-220,-113
3389,189,-67,958,-67,-286,-99
3390,180,-81,971,-102,-243,-120
3391,197,-85,964,-216,-120,-201
3392,194,-89,966,-391,-44,-287
3393,201,-72,964,-489,-42,-363
3394,213,-40,975,-489,-85,-406
3395,209,-25,975,-442,-134,-427
3396,229,16,964,-382,-151,-456
3397,237,44,978,-319,-122,-482
3398,240,95,992,-227,-87,-513
3399,249,125,979,-165,-97,-472
3400,236,114,954,-106,-173,-331
3401,218,96,945,-18,-202,-234
3402,208,55,911,54,-130,-230
3403,195,11,911,60,-3,-234
3404,180,-14,913,48,138,-236
3405,194,-28,968,93,274,-308
3406,213,-18,1007,193,362,-460
3407,230,-11,1056,316,353,-595
3408,229,18,1069,425,314,-654
3409,240,22,1113,466,251,-634
3410,239,31,1098,337,106,-515
3411,222,-8,1059,62,-85,-322
3412,197,-35,1028,-231,-214,-138
3413,175,-56,971,-458,-204,-50
3414,176,-77,935,-602,-101,-54
3415,177,-89,932,-634,32,-130
3416,174,-97,942,-530,157,-249
3417,184,-83,963,-360,228,-410
3418,189,-83,982,-132,218,-560
3419,190,-81,993,36,167,-671
3420,217,-69,1023,85,87,-769
3421,228,-31,1023,-24,3,-810
3422,229,6,1037,-173,-89,-761
3423,219,24,1034,-278,-155,-632
3424,219,25,1010,-360,-206,-513
3425,197,7,990,-440,-243,-419
3426,181,-6,948,-477,-235,-388
3427,182,-18,929,-448,-155,-451
3428,176,-11,922,-389,-22,-554
3429,192,14,944,-315,134,-648
3430,219,24,986,-208,235,-710
3431,222,33,1003,-91,235,-749
3432,230,44,1046,-7,167,-769
3433,231,56,1056,44,79,-761
3434,229,59,1065,19,1,-689
3435,225,58,1067,-71,-77,-583
3436,223,46,1041,-194,-110,-486
3437,213,33,1003,-345,-102,-396
3438,205,18,990,-460,-71,-326
3439,196,21,982,-493,-17,-296
3440,193,17,991,-444,34,-333
3441,201,14,1001,-364,56,-400
3442,198,20,1011,-278,65,-445
3443,207,18,1013,-167,46,-484
3444,201,6,995,-52,13,-497
3445,210,-7,1018,46,-32,-505
3446,208,-10,1011,91,-73,-558
3447,201,-6,1008,32,-93,-562
3448,195,-3,1005,-83,-83,-501
3449,198,-3,1020,-186,-40,-451
3450,192,3,1015,-290,13,-423
3451,187,-2,1007,-347,21,-421
3452,189,1,1019,-313,1,-441
3453,182,0,1007,-229,-56,-476
3454,183,-6,979,-106,-91,-523
3455,197,0,998,-18,-60,-589
3456,212,13,1012,-18,-26,-624
3457,217,18,1014,-59,-50,-581
3458,214,27,1019,-106,-112,-509
3459,205,29,992,-159,-136,-439
3460,193,12,986,-188,-114,-402
3461,190,-2,972,-194,-85,-404
3462,194,0,983,-188,-40,-449
3463,212,1,978,-165,7,-495
3464,205,15,980,-153,19,-513
3465,210,39,997,-132,7,-488
3466,210,34,1008,-73,3,-449
3467,203,35,1003,-18,1,-429
3468,219,25,985,-11,-11,-415
3469,206,21,994,-57,-19,-392
3470,209,6,1020,-95,-11,-349
3471,213,1,1000,-114,-22,-300
3472,206,-11,990,-149,-44,-290
3473,194,-18,989,-188,-67,-298
3474,186,-32,965,-227,-60,-300
3475,203,-19,945,-259,-13,-326
3476,190,-15,942,-300,60,-351
3477,210,4,966,-311,105,-345
3478,214,9,987,-194,99,-382
3479,209,30,988,-46,62,-449
3480,211,25,1003,73,19,-472
3481,219,20,1004,134,-3,-453
3482,219,20,999,70,-28,-394
3483,217,14,979,-71,-56,-290
3484,209,-6,950,-210,-34,-197
3485,214,-13,948,-300,24,-152
3486,208,-6,953,-323,126,-189
3487,203,-7,963,-227,212,-267
3488,213,1,993,-69,269,-349
3489,219,10,1023,56,269,-398
3490,221,9,1062,157,222,-433
3491,233,10,1074,155,138,-400
3492,240,-3,1073,58,71,-329
3493,237,2,1076,-106,15,-234
3494,221,-14,1067,-257,-22,-134
3495,212,-32,1054,-313,-34,-89
3496,212,-46,1044,-319,-36,-107
3497,197,-52,1020,-278,-46,-165
3498,191,-56,1019,-225,-63,-236
3499,198,-58,981,-159,-65,-304
3500,198,-46,971,-73,-60,-388
3501,200,-22,976,15,-44,-476
3502,200,-7,988,120,-5,-544
3503,215,12,1010,206,30,-574
3504,225,30,1033,263,-5,-548
3505,223,48,1021,222,-99,-490
3506,196,29,1007,109,-198,-392
3507,195,29,982,-42,-233,-287
3508,193,39,953,-225,-183,-212
3509,183,44,913,-333,-114,-165
3510,172,44,895,-296,-46,-187
3511,186,53,906,-151,40,-279
3512,188,74,926,42,108,-388
3513,189,80,949,220,167,-421
3514,196,71,970,357,218,-400
3515,221,75,996,411,233,-396
3516,231,99,1018,343,194,-378
3517,214,98,1041,249,142,-320
3518,220,119,1063,159,91,-220
3519,221,110,1057,103,58,-99
3520,218,94,1053,52,38,-11
3521,209,94,1043,13,36,47
3522,212,90,1051,30,54,65
3523,211,74,1053,93,65,63
3524,210,70,1047,152,69,59
3525,196,56,1064,169,95,47
3526,188,47,1066,157,116,24
3527,210,48,1112,128,108,16
3528,201,56,1116,85,122,-9
3529,218,77,1148,118,112,-23
3530,248,83,1205,241,79,-27
3531,272,85,1235,368,-3,-46
3532,286,85,1283,448,-77,-97
3533,291,69,1370,417,-151,-158
3534,350,8,1472,261,-253,-222
3535,423,-61,1642,-59,-327,-396
3536,503,-81,1944,-452,-245,-687
3537,594,-32,2048,-647,146,-1042
3538,662,58,2048,-245,704,-1437
3539,720,191,2048,232,806,-1724
3540,746,257,2048,689,146,-1634
3541,741,265,2048,1193,-1436,-1214
3542,667,232,2048,1245,-3436,-495
3543,463,79,2048,726,-5249,374
3544,285,18,2048,-11,-6165,926
3545,226,-25,2048,-815,-6384,1182
3546,227,30,2048,-1452,-6306,1020
3547,200,98,2048,-1686,-6104,620
3548,197,150,1997,-1345,-6042,256
3549,164,186,1923,-571,-6210,28
3550,150,197,1840,230,-6599,-60
3551,85,182,1738,868,-6989,-70
3552,20,130,1639,1312,-7288,3
3553,-37,94,1563,1564,-7470,196
3554,-119,23,1425,1568,-7694,403
3555,-195,-55,1297,1275,-7952,672
3556,-263,-146,1146,857,-8159,909
3557,-332,-219,1008,347,-8311,1071
3558,-353,-278,872,-138,-8468,1124
3559,-401,-297,706,-600,-8630,1024
3560,-432,-269,517,-1026,-8843,893
3561,-437,-241,321,-1358,-9054,764
3562,-416,-216,155,-1514,-9208,575
3563,-391,-197,-69,-1501,-9212,395
3564,-370,-217,-319,-1386,-8874,184
3565,-350,-238,-488,-1134,-7935,-220
3566,-322,-225,-553,-850,-6614,-736
3567,-235,-162,-554,-639,-5388,-1265
3568,-96,-58,-562,-532,-4546,-1708
3569,49,16,-523,-292,-4095,-2150
3570,149,135,-472,200,-4097,-2546
3571,174,243,-485,823,-4278,-2628
3572,180,291,-516,1382,-4388,-2296
3573,203,311,-613,1614,-4390,-1841
3574,203,334,-735,1335,-4364,-1410
3575,196,363,-895,775,-4192,-1007
3576,184,393,-1043,75,-3798,-615
3577,159,431,-1152,-479,-3110,-179
3578,215,477,-1184,-753,-2015,296
3579,258,488,-1206,-858,-977,645
3580,269,488,-1172,-809,-157,909
3581,253,466,-1125,-524,398,1141
3582,235,414,-1060,-132,798,1344
3583,222,387,-1007,253,1120,1473
3584,235,336,-967,638,1323,1540
3585,252,288,-944,1036,1450,1501
3586,277,252,-951,1321,1597,1362
3587,272,230,-939,1446,1815,1172
3588,229,205,-903,1507,2142,1036
3589,185,202,-847,1527,2530,1012
3590,144,177,-800,1517,2993,1057
3591,96,179,-761,1480,3476,1075
3592,50,195,-667,1433,3940,1077
3593,62,210,-626,1460,4312,1018
3594,14,254,-602,1583,4685,942
3595,-28,297,-527,1837,5075,956
3596,-95,283,-444,2175,5413,981
3597,-152,229,-326,2489,5640,1092
3598,-211,149,-241,2581,5845,1288
3599,-294,89,-196,2243,6007,1526
3600,-342,15,-175,1597,6208,1874
3601,-415,-51,-179,948,6552,2184
3602,-491,-112,-127,634,7155,2335
3603,-582,-144,-23,749,7898,2258
3604,-653,-196,138,1202,8642,2046
3605,-737,-218,341,1837,9329,1741
3606,-796,-201,481,2423,9886,1448
3607,-826,-197,655,2894,10273,1210
3608,-786,-210,855,3269,10536,811
3609,-741,-102,1134,3685,10849,126
3610,-709,33,1471,4236,11355,-744
3611,-612,204,1868,5071,12095,-1445
3612,-382,270,2048,5759,12743,-1652
3613,-89,349,2048,5628,12753,-1453
3614,129,335,2048,4452,11985,-966
3615,256,216,2048,2706,10206,-306
3616,332,99,2048,991,8126,366
3617,339,27,2048,-628,6347,911
3618,367,-105,2048,-2225,4888,1462
3619,395,-160,2048,-3647,3649,2001
3620,416,-178,2048,-4458,2638,2288
3621,410,-154,2048,-4544,1870,2112
3622,405,-135,2048,-3729,1517,1503
3623,386,-123,2048,-2372,1208,696
3624,404,-120,2048,-1038,814,-15
3625,421,-78,2048,-333,417,-503
3626,397,-22,2048,-278,142,-757
3627,366,37,2002,-573,-22,-747
3628,340,73,1912,-753,-85,-589
3629,336,107,1838,-655,-132,-417
3630,338,128,1748,-366,-157,-288
3631,313,85,1633,-59,-327,-140
3632,285,26,1514,99,-556,42
3633,276,-28,1395,-22,-712,198
3634,263,-53,1303,-261,-704,264
3635,230,-52,1265,-407,-642,233
3636,188,-46,1225,-395,-593,192
3637,172,-57,1212,-214,-575,100
3638,158,-64,1180,97,-583,-74
3639,149,-52,1134,364,-616,-255
3640,142,-80,1110,523,-673,-390
3641,144,-68,1088,523,-761,-451
3642,153,-50,1036,392,-851,-372
3643,134,-36,979,185,-948,-244
3644,129,-47,928,-13,-972,-119
3645,118,-36,928,-149,-942,-21
3646,112,-23,901,-268,-894,34
3647,104,-46,865,-319,-782,51
3648,116,-58,835,-325,-640,67
3649,110,-51,826,-327,-534,38
3650,116,-33,823,-350,-444,3
3651,119,-35,801,-278,-395,-38
3652,135,-33,791,-87,-343,-169
3653,149,-19,829,130,-216,-328
3654,144,0,890,378,-38,-400
3655,186,30,988,607,93,-392
3656,213,34,998,679,64,-355
3657,204,53,1012,622,-71,-271
3658,172,41,1015,548,-233,-142
3659,169,15,1002,427,-347,3
3660,155,-15,962,218,-308,96
3661,146,-23,958,-63,-190,79
3662,151,-3,949,-329,-9,14
3663,169,39,957,-462,99,18
3664,172,48,961,-432,79,100
3665,167,41,963,-298,-15,174
3666,168,8,958,-147,-71,176
3667,171,-15,949,-9,-104,100
3668,160,-24,944,75,-95,46
3669,165,-36,972,140,-79,8
3670,189,-38,990,120,-24,-1
3671,211,-27,994,99,56,-13
3672,222,-4,988,48,75,-52
3673,229,15,991,-44,54,-17
3674,212,12,987,-106,77,59
3675,214,15,995,-81,146,88
3676,223,24,1016,27,196,30
3677,223,35,1038,105,181,-31
3678,228,45,1062,134,95,-42
3679,231,36,1074,198,28,12
3680,228,14,1030,228,-54,69
3681,217,-8,1032,189,-106,104
3682,204,-7,1005,83,-102,139
3683,199,-11,980,-71,-48,167
3684,192,-28,965,-216,-9,219
3685,192,-38,954,-214,42,239
3686,168,-51,969,-147,114,182
3687,170,-51,1006,-77,179,110
3688,196,-53,1043,27,173,38
3689,198,-42,1042,112,105,-17
3690,202,-41,1042,167,36,-38
3691,217,-35,1027,148,-22,-42
3692,201,-25,999,52,-85,-5
3693,200,-19,981,-20,-97,40
3694,197,-17,984,-24,-48,67
3695,197,-35,985,1,-1,63
3696,186,-46,979,21,24,14
3697,185,-41,986,5,52,-50
3698,187,-54,986,1,79,-95
3699,189,-53,1005,27,95,-120
3700,202,-39,1016,27,87,-140
3701,206,-23,1028,-5,69,-142
3702,213,-34,1034,1,9,-154
3703,201,-19,1027,-24,-75,-152
3704,194,-21,1016,-40,-130,-130
3705,189,-18,994,-30,-130,-111
3706,185,-29,986,-59,-106,-85
3707,199,-24,967,-139,-75,-38
3708,183,-52,965,-227,-32,12
3709,171,-58,942,-276,30,26
3710,191,-51,965,-222,87,-33
3711,194,-48,986,-102,108,-142
3712,189,-53,993,-20,99,-199
3713,188,-50,1005,9,81,-204
3714,204,-52,1002,-13,44,-197
3715,196,-56,1005,-28,15,-206
3716,193,-35,1033,15,-9,-251
3717,189,-21,1036,68,-5,-290
3718,215,-12,1044,56,9,-308
3719,219,-16,1041,-46,11,-269
3720,210,-20,1034,-202,-19,-197
3721,194,-22,1027,-323,-40,-113
3722,179,-19,1001,-358,-42,-70
3723,176,-38,994,-294,-19,-95
3724,179,-53,991,-220,24,-175
3725,179,-48,999,-114,69,-253
3726,184,-32,1043,44,60,-355
3727,204,-21,1031,173,-11,-456
3728,209,-5,1033,198,-79,-499
3729,202,3,1019,130,-126,-427
3730,205,-3,1008,40,-136,-300
3731,204,-23,983,-20,-124,-232
3732,208,-16,975,-95,-102,-228
3733,183,-29,971,-126,-58,-236
3734,180,-17,971,-67,19,-247
3735,183,-27,1000,13,108,-269
3736,181,-43,1014,77,173,-314
3737,186,-33,1044,81,190,-353
3738,200,-51,1067,66,136,-363
3739,220,-38,1062,46,19,-369
3740,217,-43,1032,1,-116,-345
3741,206,-40,998,-63,-226,-267
3742,198,-55,983,-100,-218,-175
3743,191,-56,969,-112,-122,-134
3744,194,-64,974,-98,-24,-126
3745,195,-78,994,-85,32,-156
3746,191,-81,1009,-122,52,-206
3747,197,-84,1004,-194,67,-245
3748,212,-71,1028,-237,48,-296
3749,219,-53,1018,-278,7,-372
3750,219,-34,1039,-313,-34,-423
3751,220,-14,1030,-286,-65,-431
3752,228,-5,1043,-222,-91,-400
3753,216,-2,1034,-173,-120,-386
3754,206,0,1031,-147,-142,-392
3755,187,8,1024,-149,-161,-376
3756,195,-3,1013,-151,-159,-359
3757,192,8,1017,-188,-153,-341
3758,191,20,1000,-276,-153,-324
3759,182,8,985,-337,-140,-300
3760,182,7,984,-309,-124,-296
3761,191,-2,980,-239,-108,-328
3762,180,-6,1003,-194,-112,-380
3763,201,3,998,-157,-122,-443
3764,205,26,1019,-100,-122,-497
3765,197,28,1033,-44,-149,-507
3766,191,42,1028,-24,-179,-482
3767,208,55,1030,-52,-183,-464
3768,208,61,1021,-153,-185,-404
3769,205,66,1013,-268,-224,-310
3770,193,66,995,-329,-249,-220
3771,193,52,986,-354,-247,-152
3772,184,52,973,-298,-235,-126
3773,193,45,949,-173,-194,-171
3774,196,44,928,-73,-149,-257
3775,195,39,969,36,-89,-339
3776,216,61,963,152,-58,-400
3777,214,64,995,200,-54,-415
3778,226,74,998,216,-75,-380
3779,231,72,1001,210,-75,-308
3780,246,79,991,175,-71,-244
3781,240,78,998,138,-56,-187
3782,241,66,1015,126,-30,-132
3783,239,65,1018,159,-34,-89
3784,233,53,1006,187,-71,-50
3785,211,26,1009,196,-89,-19
3786,210,6,992,198,-67,1
3787,212,-11,999,136,-28,16
3788,220,-4,997,56,1,20
3789,225,-6,995,46,-7,5
3790,221,17,1021,89,-24,-31
3791,209,11,1003,161,-34,-68
3792,214,9,1002,193,-32,-93
3793,224,1,1018,191,-30,-79
3794,231,10,1017,165,-44,-72
3795,229,0,1004,148,-56,-54
3796,229,4,1015,144,-85,-40
3797,214,0,992,148,-83,-23
3798,219,-15,1007,171,-61,-1
3799,211,-17,1022,161,-28,5
3800,223,-12,1038,112,-19,6
3801,218,-11,1035,75,-24,3
3802,222,-6,1025,27,-44,-1
3803,228,-12,1028,3,-77,1
3804,224,-21,1017,17,-116,-33
3805,227,-25,998,28,-165,-58
3806,211,-12,992,17,-183,-54
3807,214,-26,967,7,-173,-46
3808,236,-15,987,21,-163,-64
3809,228,-7,975,36,-198,-97
3810,224,1,977,77,-224,-120
3811,223,-2,975,103,-204,-120
3812,236,-3,979,50,-179,-105
3813,242,6,961,-34,-161,-56
3814,236,6,961,-118,-132,-9
3815,238,5,952,-155,-110,10
3816,242,1,953,-179,-79,26
3817,235,1,973,-184,-56,65
3818,237,11,980,-182,-44,83
3819,239,-1,984,-173,-69,88
3820,235,-2,978,-200,-110,112
3821,233,4,984,-235,-130,147
3822,230,-15,952,-220,-132,137
3823,229,-21,956,-212,-120,96
3824,227,-23,954,-210,-91,73
3825,238,-32,948,-202,-50,61
3826,225,-26,946,-177,-17,24
3827,241,-27,948,-138,-5,-29
3828,248,-19,971,-55,19,-89
3829,250,-3,975,32,26,-138
3830,247,-12,981,111,1,-148
3831,249,-16,965,142,-24,-117
3832,244,-11,964,111,-15,-66
3833,247,-13,984,83,7,-38
3834,234,2,982,93,26,-37
3835,235,-16,992,128,30,-25
3836,226,-22,993,130,34,-17
3837,229,-19,993,58,40,-7
3838,239,-31,968,-14,34,8
3839,238,-35,984,-28,34,20
3840,243,-40,969,-20,36,10
3841,227,-42,987,17,62,-33
3842,219,-47,988,52,95,-78
3843,226,-35,1006,62,122,-128
3844,231,-25,1023,83,146,-154
3845,246,-7,1031,124,140,-173
3846,250,3,1031,116,108,-167
3847,253,6,1032,62,73,-126
3848,257,-3,1030,11,40,-83
3849,256,3,1023,-13,-15,-81
3850,229,8,1014,-44,-56,-74
3851,237,2,1008,-44,-52,-64
3852,238,12,1007,-50,-36,-68
3853,228,-3,985,-81,-36,-79
3854,229,12,1001,-128,-34,-74
3855,230,18,1014,-149,-32,-46
3856,226,11,996,-130,-36,-40
3857,231,13,1003,-118,-46,-60
3858,236,15,986,-75,-73,-89
3859,228,16,986,3,-110,-128
3860,231,22,964,68,-124,-120
3861,226,20,952,77,-91,-81
3862,232,6,958,54,-67,-48
3863,230,17,966,11,-32,-27
3864,234,13,963,-3,7,-19
3865,228,14,981,1,38,-21
3866,245,23,981,25,50,-29
3867,248,31,998,32,28,-31
3868,248,12,990,9,1,10
3869,246,12,990,-34,-34,77
3870,243,-4,983,-50,-32,116
3871,238,-3,991,-30,-13,110
3872,238,-9,984,-7,9,83
3873,238,-14,990,27,11,53
3874,238,-27,1001,70,-1,14
3875,239,-31,979,79,-20,1
3876,238,-25,989,40,-13,3
3877,225,-18,983,-13,13,12
3878,231,-19,981,-52,46,24
3879,236,-19,997,-42,36,12
3880,239,-14,1010,-26,7,-11
3881,244,-2,1013,3,-15,-13
3882,242,-3,1002,21,-26,10
3883,238,-21,993,9,-36,32
3884,227,-21,982,-40,-30,55
3885,222,-21,991,-100,-3,61
3886,236,-29,966,-132,36,53
3887,226,-35,978,-159,56,26
3888,218,-26,1002,-151,54,-7
3889,223,-23,994,-85,24,-56
3890,239,-5,996,-48,-9,-78
3891,233,2,1001,-18,-42,-83
3892,239,10,999,38,-40,-85
3893,242,9,1013,89,-28,-85
3894,245,8,1017,81,-34,-70
3895,244,5,1017,66,-61,-46
3896,238,-1,998,32,-89,-23
3897,243,-7,1002,-18,-85,3
3898,234,-13,985,-67,-58,12
3899,231,-18,998,-110,-5,20
3900,241,0,1002,-126,52,8
3901,247,2,999,-98,69,-11
3902,259,11,1030,-61,42,-37
3903,260,20,1023,-16,-24,-46
3904,260,17,1018,44,-89,-42
3905,251,15,998,85,-116,-25
3906,245,9,1006,70,-112,22
3907,231,-7,1010,28,-79,63
3908,252,-28,1015,-48,-42,88
3909,248,-29,1010,-116,-26,96
3910,245,-23,1015,-138,-40,90
3911,236,-15,1006,-116,-50,71
3912,238,-29,1003,-77,-61,53
3913,244,-32,1010,-57,-81,34
3914,240,-28,998,-36,-99,-11
3915,246,-20,1002,-1,-95,-44
3916,255,-13,1003,32,-81,-60
3917,246,-7,991,38,-108,-46
3918,252,-17,1005,13,-138,-29
3919,240,-11,987,-24,-149,-17
3920,231,-15,990,-54,-122,22
3921,244,-27,990,-71,-69,55
3922,249,-26,1008,-91,-67,36
3923,259,-15,998,-93,-112,-13
3924,254,-21,1006,-63,-151,-54
3925,243,0,1001,-7,-171,-48
3926,248,-18,1002,21,-185,-27
