sequence,AccelerometerX,AccelerometerY,AccelerometerZ,GyroscopeX,GyroscopeY,GyroscopeZ
0,-119,-112,1022,-98,-18,-113
1,-108,-105,1024,-90,11,-117
2,-121,-105,1018,-88,50,-138
3,-127,-106,1026,-60,-26,-191
4,-137,-108,1029,-41,-59,-244
5,-148,-118,1036,-17,-32,-242
6,-147,-106,1001,-23,9,-218
7,-152,-113,1001,-10,41,-224
8,-162,-105,1007,4,3,-222
9,-150,-90,1011,-17,21,-185
10,-160,-95,997,-37,43,-173
11,-156,-103,1016,-76,27,-181
12,-139,-100,1024,-82,-2,-209
13,-148,-97,1022,-70,-20,-218
14,-130,-94,1024,-58,17,-207
15,-115,-98,1012,-66,74,-195
16,-109,-85,996,-78,99,-226
17,-119,-84,990,-68,93,-275
18,-131,-80,1002,-62,60,-330
19,-147,-93,1017,-74,60,-369
20,-175,-83,1030,-94,89,-324
21,-183,-76,1029,-99,119,-289
22,-163,-82,1033,-74,197,-240
23,-173,-84,1011,-90,363,-189
24,-167,-74,1024,-64,441,-179
25,-150,-73,1000,-70,480,-205
26,-147,-56,954,-76,490,-279
27,-144,-48,913,-90,474,-369
28,-122,-39,874,-219,406,-455
29,-103,-30,859,-344,273,-562
30,-86,-40,856,-476,218,-699
31,-139,-46,867,-504,-18,-845
32,-227,-69,926,-547,-479,-986
33,-250,-70,1016,-619,-811,-1017
34,-247,-64,1055,-592,-858,-865
35,-245,-80,1055,-541,-743,-648
36,-259,-80,1109,-562,-786,-488
37,-254,-88,1108,-555,-823,-365
38,-251,-92,1122,-500,-846,-253
39,-213,-108,1151,-447,-907,-162
40,-183,-97,1098,-404,-897,-50
41,-149,-118,1074,-432,-864,69
42,-137,-135,1058,-443,-901,80
43,-147,-168,1048,-424,-1049,-76
44,-177,-212,1108,-465,-1221,-230
45,-202,-225,1120,-404,-1331,-289
46,-136,-199,1123,115,-1323,-367
47,-161,-115,1118,709,-1096,-253
48,-137,-219,1035,686,-1196,-152
49,-51,-212,1096,299,-1274,-226
50,-38,-306,1071,414,-1155,-171
51,89,-200,1131,-238,-641,-2
52,304,-290,1104,231,-305,-121
53,110,482,765,139,-264,161
54,-44,-1019,2048,1969,-252,-248
55,69,-524,1161,2076,-100,-691
56,-70,-323,1196,1881,453,-332
57,-77,-301,1215,1723,882,-171
58,-139,-276,1208,1789,912,-41
59,-226,-281,1139,2424,1636,71
60,252,-213,845,3479,1392,143
61,-298,-113,928,3057,1080,-431
62,-200,-78,965,2131,2904,-832
63,49,-65,1258,1033,2927,-142
64,-88,62,976,1947,1998,-382
65,-99,164,937,1807,189,-650
66,-56,219,828,1522,-1135,-923
67,-91,102,827,776,-1885,-1082
68,98,89,950,-191,-1541,-853
69,202,12,948,-828,-844,-496
70,245,-17,986,-869,39,-587
71,-133,-127,1185,-953,72,-572
72,-387,-31,1066,-685,1039,-11
73,-397,45,1001,-945,992,545
74,-364,185,889,-877,550,729
75,-281,130,911,-762,-666,506
76,-285,65,1005,-266,-1756,82
77,-304,127,1020,320,-2516,-263
78,-172,83,1071,836,-3518,-671
79,-71,36,1195,971,-4840,-972
80,322,-146,968,-635,-7426,-1488
81,263,-126,949,129,-6717,-1320
82,340,-19,1137,2027,-3178,-619
83,366,13,1046,1744,-1116,151
84,144,-143,965,219,-817,424
85,58,-203,954,-588,-1272,-148
86,6,-136,954,-199,-1094,-767
87,67,-38,927,145,-745,-1023
88,60,9,955,180,-518,-929
89,80,77,886,10,121,-787
90,125,95,887,-2,779,-539
91,125,125,1107,-101,1377,-423
92,186,123,1004,-1117,2382,-361
93,266,149,936,-1639,1859,-87
94,184,146,832,-1365,1543,254
95,171,209,883,-594,1392,639
96,-124,113,1028,627,1517,1297
97,62,-42,1092,412,1248,948
98,46,26,920,-1465,1337,768
99,-86,45,832,-2318,1546,815
100,-196,-58,896,-2246,1855,1075
101,-58,-28,876,-1314,2228,1192
102,-33,-96,866,-1822,1957,1024
103,1,-119,843,-2080,2105,1110
104,45,-112,896,-1473,2175,1036
105,54,-106,938,-836,1835,823
106,-20,-65,971,-84,1400,815
107,-54,-122,971,416,1041,993
108,-164,-17,940,631,904,938
109,-204,-91,970,664,1087,28
110,-76,-257,993,592,1650,-746
111,-24,-211,1054,373,1658,-613
112,-108,-163,1047,49,1248,-570
113,-146,-159,1049,-76,757,-670
114,-119,-184,1009,57,539,-642
115,-76,-191,1004,-88,302,-406
116,-62,-243,971,529,490,-250
117,-150,-103,976,701,752,75
118,-193,-154,991,268,691,-203
119,-176,-140,962,162,712,-447
120,-164,-86,1014,277,750,-552
121,-155,-107,1056,303,617,-630
122,-141,-90,1065,365,320,-630
123,-110,-49,1090,277,-141,-548
124,-131,-79,1095,272,-737,-400
125,-94,-68,1032,279,-1297,-347
126,-125,-9,918,293,-1641,-209
127,-121,-19,806,926,-1182,-132
128,-31,-55,1016,1141,-475,-134
129,-73,-46,986,947,-266,-220
130,-59,-56,884,811,-34,-660
131,-97,-56,821,744,1000,-1355
132,-176,-17,988,1104,2199,-2015
133,-102,52,1136,1225,1902,-2343
134,-101,95,1043,600,1210,-2709
135,-194,43,1004,760,873,-2707
136,-180,9,954,1108,554,-2343
137,-202,10,989,1373,388,-1931
138,-157,99,1048,1434,293,-1451
139,-134,29,1014,1035,230,-1269
140,-179,-16,992,768,37,-961
141,-205,-37,997,779,-26,-705
142,-239,-55,994,693,78,-515
143,-235,-48,1031,574,265,-328
144,-226,-35,1056,307,386,-214
145,-194,-11,1072,63,562,-248
146,-206,30,1082,-240,578,-293
147,-200,-12,1102,-359,396,-222
148,-174,8,1113,-412,210,-168
149,-172,-15,1067,-549,-2,-101
150,-172,-1,1072,-486,-143,-23
151,-177,3,1046,-430,-248,69
152,-170,-3,998,-410,-260,180
153,-179,-40,991,-316,-258,268
154,-177,-56,1001,-164,-221,315
155,-180,-39,1004,67,-176,334
156,-174,-30,1055,266,-198,373
157,-183,11,1045,250,-233,495
158,-172,-60,1071,49,-270,579
159,-122,-83,1032,-144,-403,555
160,-238,-14,1049,-277,-450,538
161,-168,-32,996,-849,-465,498
162,-282,-17,1009,-1010,-82,516
163,-248,32,939,-1230,140,563
164,-152,-50,984,-1047,429,346
165,-206,-69,960,-1156,638,913
166,-168,-67,948,-1072,554,1120
167,-129,-87,1011,-1152,570,1096
168,-148,-115,1057,-1203,519,891
169,-127,-114,1020,-974,273,547
170,-125,-74,1005,-705,-92,305
171,-107,-53,1026,-439,-459,211
172,-108,-57,1021,-64,-893,350
173,-103,-29,991,274,-1436,485
174,-164,-57,975,473,-1633,623
175,-188,-68,969,500,-1514,762
176,-166,-81,974,320,-1194,668
177,-143,-53,1009,65,-887,497
178,-98,-15,1014,-176,-674,518
179,-119,-21,992,-219,-547,512
180,-73,7,1004,-43,-448,452
181,-74,-4,996,229,-332,194
182,-82,-10,997,385,-256,24
183,-105,18,993,510,-110,-154
184,-83,4,1036,572,-10,-156
185,-81,10,1034,547,33,-134
186,-106,-13,1010,479,54,-130
187,-81,-7,1032,399,146,-91
188,-91,1,1058,242,164,-37
189,-103,7,1059,90,70,-11
190,-115,-7,1047,61,111,163
191,-48,17,942,88,99,198
192,-130,-25,951,1172,984,580
193,-144,-48,1079,836,960,436
194,-146,-37,1063,637,625,237
195,-160,-13,1043,508,470,159
196,-138,-19,1043,352,353,127
197,-153,-17,1029,264,252,139
198,-136,-4,1016,188,130,166
199,-139,-8,1025,154,43,176
200,-139,-16,1007,178,-26,159
201,-136,6,990,170,-92,164
202,-135,2,915,301,60,190
203,-166,5,927,615,431,245
204,-127,-12,974,654,668,299
205,-142,-6,975,606,787,256
206,-133,0,996,526,968,231
207,-144,-16,1026,371,1033,223
208,-141,-29,1057,254,1058,207
209,-165,-34,1062,135,1037,163
210,-168,-42,1066,57,1017,102
211,-177,-20,1095,70,1043,61
212,-175,-16,1085,133,1107,49
213,-164,-4,1114,197,1236,49
214,-161,-1,1152,254,1433,32
215,-166,14,1192,305,1640,-19
216,-187,28,1280,352,1791,-121
217,-155,1,1362,268,1855,-70
218,-220,76,1455,277,1816,-377
219,-245,91,1531,160,1769,-431
220,-281,139,1589,176,1625,-502
221,-294,159,1658,281,1429,-408
222,-311,157,1735,377,1185,-232
223,-335,109,1749,484,847,-52
224,-342,39,1778,568,455,26
225,-386,7,1817,565,107,-60
226,-438,0,1886,383,-98,-236
227,-469,9,1926,100,-209,-382
228,-448,19,1977,-84,-373,-498
229,-438,59,2048,78,-655,-578
230,-449,120,2048,559,-1145,-574
231,-517,198,2048,1209,-1786,-425
232,-582,265,2048,1793,-2541,-185
233,-665,284,2048,2026,-3456,190
234,-713,247,2048,1863,-4518,543
235,-790,166,2048,1432,-5721,702
236,-834,83,1920,967,-6858,719
237,-852,-12,1601,506,-7696,666
238,-858,-76,1260,-70,-8065,489
239,-815,-112,924,-836,-7934,231
240,-704,-113,570,-1701,-7420,-99
241,-569,-66,212,-2484,-6600,-253
242,-311,-34,-117,-2826,-5729,-306
243,-126,-62,-368,-2146,-4920,-115
244,-27,-159,-529,-641,-4399,440
245,-5,-314,-637,951,-3963,981
246,16,-401,-681,1889,-3172,1235
247,31,-463,-679,1863,-1946,1084
248,74,-406,-601,1305,-733,452
249,195,-234,-527,608,162,-410
250,286,-33,-479,307,591,-1027
251,370,169,-393,541,753,-1128
252,401,283,-230,1209,761,-738
253,357,341,-64,2074,531,-150
254,313,355,155,2828,183,360
255,256,354,303,3080,-186,700
256,191,328,446,2772,-405,827
257,149,278,565,2119,-354,754
258,107,261,649,1463,-155,481
259,103,274,740,918,48,161
260,113,299,784,481,134,-60
261,150,326,830,236,209,-70
262,175,336,857,199,273,71
263,169,328,923,340,347,307
264,182,315,978,539,384,539
265,175,297,1023,723,369,696
266,153,271,1038,850,300,766
267,151,246,1101,859,222,711
268,142,252,1106,699,140,551
269,133,274,1117,440,113,315
270,144,309,1141,170,189,122
271,143,344,1133,-27,257,18
272,141,388,1144,-228,265,0
273,149,411,1134,-473,238,38
274,153,439,1108,-648,179,112
275,169,460,1072,-687,87,254
276,180,457,1045,-594,-77,436
277,194,465,1007,-445,-225,633
278,188,466,997,-324,-346,807
279,183,466,980,-215,-424,909
280,179,478,967,-119,-448,967
281,203,487,952,-78,-452,1036
282,212,498,939,-131,-444,1143
283,216,511,906,-185,-444,1252
284,232,509,892,-228,-424,1395
285,215,518,853,-266,-381,1534
286,197,508,840,-305,-313,1707
287,188,484,794,-357,-256,1891
288,174,443,769,-373,-190,2039
289,191,404,741,-334,-88,2168
290,178,378,734,-342,7,2327
291,163,342,702,-369,123,2491
292,153,300,687,-349,252,2637
293,142,238,674,-344,361,2788
294,121,182,675,-373,416,2879
295,100,123,655,-414,451,2913
296,96,60,622,-424,484,2897
297,50,31,619,-379,543,2821
298,43,9,580,-330,681,2741
299,37,1,590,-322,880,2739
300,34,-22,602,-303,1107,2889
301,48,-68,617,-279,1334,3135
302,28,-143,625,-178,1418,3323
303,1,-214,659,27,1419,3375
304,-38,-259,702,129,1468,3286
305,-44,-304,729,135,1525,3092
306,-41,-332,727,27,1556,2877
307,-35,-344,725,-146,1568,2637
308,-27,-377,702,-310,1634,2399
309,5,-372,685,-430,1828,2190
310,41,-385,718,-471,2091,2110
311,49,-378,750,-381,2291,2080
312,33,-393,770,-277,2500,2051
313,12,-428,814,-217,2683,2065
314,-24,-478,855,-137,2722,2018
315,-46,-515,876,-88,2664,1873
316,-70,-530,893,-96,2613,1641
317,-71,-589,888,-123,2619,1395
318,-103,-576,916,-119,2707,1086
319,-107,-516,971,-74,2871,809
320,-138,-469,1035,22,3033,622
321,-164,-432,1113,127,3203,393
322,-181,-418,1193,27,3386,172
323,-209,-414,1276,-293,3455,-70
324,-215,-411,1325,-652,3347,-322
325,-219,-448,1311,-873,3064,-515
326,-226,-461,1294,-857,2759,-673
327,-239,-451,1251,-701,2521,-806
328,-243,-438,1277,-414,2384,-968
329,-262,-407,1292,-137,2339,-1170
330,-282,-361,1310,-88,2382,-1345
331,-309,-343,1336,-121,2449,-1533
332,-312,-272,1370,-99,2480,-1779
333,-325,-198,1431,-51,2455,-1943
334,-349,-173,1461,-16,2291,-1964
335,-345,-195,1440,-14,2005,-1937
336,-357,-243,1397,-45,1648,-1931
337,-371,-280,1324,-8,1316,-1957
338,-396,-312,1245,156,1041,-2033
339,-413,-304,1235,430,884,-2173
340,-418,-228,1244,707,873,-2416
341,-423,-127,1287,988,1025,-2707
342,-419,-34,1366,1063,1156,-2859
343,-411,14,1406,918,1177,-2916
344,-421,26,1404,692,998,-2920
345,-421,48,1383,500,695,-2867
346,-424,70,1326,422,332,-2796
347,-418,118,1285,578,37,-2763
348,-426,113,1242,930,-94,-2726
349,-410,178,1214,1318,-135,-2652
350,-413,147,1227,1227,-223,-2564
351,-421,144,1175,1131,-309,-2545
352,-421,175,1185,973,-405,-2578
353,-418,282,1153,889,-489,-2599
354,-360,348,1159,990,-461,-2582
355,-299,453,1114,1047,-301,-2423
356,-287,380,1153,975,-274,-2185
357,-272,413,1082,996,-313,-2158
358,-294,426,1000,1008,-352,-2054
359,-291,374,1055,912,-346,-1900
360,-298,366,957,721,-471,-1769
361,-302,362,931,496,-555,-1607
362,-296,353,903,510,-563,-1505
363,-271,380,919,531,-563,-1375
364,-272,388,946,358,-571,-1189
365,-260,375,916,133,-541,-992
366,-234,361,903,12,-540,-795
367,-215,337,913,-88,-545,-601
368,-202,299,918,-172,-555,-421
369,-194,254,918,-178,-629,-275
370,-193,214,907,-135,-688,-140
371,-197,169,926,-64,-725,-41
372,-213,127,936,-49,-786,-5
373,-217,90,906,-80,-774,-29
374,-231,61,907,-195,-645,-70
375,-213,43,932,-336,-477,-109
376,-214,39,929,-402,-336,-125
377,-210,29,955,-387,-231,-113
378,-206,30,967,-267,-174,-97
379,-203,29,992,-156,-172,-76
380,-189,21,1007,-141,-178,-7
381,-194,15,1013,-209,-155,39
382,-188,1,1003,-252,-110,86
383,-214,-43,1024,-264,-20,168
384,-206,-41,1017,-254,-2,129
385,-201,-42,1033,-224,54,159
386,-227,-52,1032,-240,111,188
387,-200,-71,1039,-228,142,131
388,-222,-48,1011,-242,259,157
389,-205,-48,1028,-316,330,174
390,-192,-61,1050,-355,322,245
391,-211,-79,1071,-342,158,284
392,-235,-68,1051,-299,-77,276
393,-231,-106,1078,-307,-286,190
394,-245,-70,1067,-406,-430,94
395,-285,-61,1049,-588,-532,69
396,-229,-57,1067,-730,-649,65
397,-214,-40,1042,-674,-715,102
398,-214,-60,1039,-564,-805,112
399,-190,-65,1010,-443,-956,147
400,-189,-82,962,-51,-653,379
401,-177,-133,996,-80,-579,266
402,-158,-79,1022,-103,-645,51
403,-163,-46,984,-221,-659,-99
404,-169,-52,965,-275,-510,-173
405,-163,-46,975,-224,-313,-179
406,-133,-37,993,-162,-243,-162
407,-134,-40,969,-84,-272,-156
408,-139,-41,983,18,-286,-134
409,-160,-55,954,121,-258,-111
410,-153,-66,974,164,-190,-115
411,-159,-58,987,139,-116,-160
412,-152,-62,993,106,-57,-191
413,-141,-61,1006,67,-30,-173
414,-140,-67,1012,59,-26,-214
415,-139,-45,1021,70,-65,-199
416,-144,-52,980,90,-112,-199
417,-157,-47,983,143,-125,-168
418,-160,-42,999,178,-84,-156
419,-153,-33,1006,211,-38,-142
420,-152,-35,1015,242,-18,-97
421,-160,-56,1007,281,-20,-72
422,-162,-49,1006,303,-22,-91
423,-175,-53,1022,289,-30,-127
424,-174,-46,1011,229,2,-166
425,-172,-42,1017,135,64,-191
426,-168,-30,1022,123,127,-183
427,-172,-24,1015,184,119,-158
428,-172,-34,1021,242,87,-125
429,-154,-27,1019,262,54,-99
430,-157,-26,1025,283,9,-56
431,-156,-41,1009,281,-24,-39
432,-166,-37,1005,262,-10,-48
433,-167,-39,993,240,27,-39
434,-172,-44,989,221,41,-54
435,-164,-39,999,205,72,-74
436,-156,-39,997,178,84,-80
437,-162,-37,986,182,60,-86
438,-160,-36,991,174,56,-99
439,-161,-34,1001,141,76,-121
440,-164,-37,1009,111,87,-146
441,-163,-30,1002,100,93,-162
442,-162,1,990,108,103,-146
443,-159,-4,1008,154,103,-80
444,-161,6,989,213,103,-35
445,-160,-3,1009,192,97,2
446,-159,-3,1018,160,76,12
447,-160,-2,1007,125,58,18
448,-154,-6,1001,80,35,20
449,-153,-3,1015,43,-20,22
450,-167,-13,1000,0,-63,16
451,-171,-14,1017,-33,-40,-2
452,-170,-18,1028,-68,7,-27
453,-167,4,1009,-137,9,-29
454,-156,-29,1054,-215,-20,8
455,-174,17,1022,-185,-90,51
456,-169,-12,984,70,66,161
457,-166,-48,1040,322,250,168
458,-169,-29,1055,184,95,92
459,-175,-27,1026,119,41,90
460,-176,-38,1007,98,72,67
461,-169,-44,1025,74,113,18
462,-158,-37,1047,72,93,-17
463,-163,-22,1041,51,37,-25
464,-159,-27,1029,61,-12,-25
465,-147,-30,998,45,-57,-11
466,-144,-46,1014,-76,-102,-46
467,-150,-50,1008,-269,-123,-87
468,-170,-27,1000,-490,-118,-154
469,-185,-12,1001,-488,-22,-156
470,-177,-19,1013,-351,99,-105
471,-176,-14,1017,-84,205,-82
472,-169,-31,1043,4,171,-62
473,-180,-32,1033,-6,68,-60
474,-187,-48,1016,-84,31,-93
475,-173,-59,1010,-238,11,-138
476,-182,-28,1016,-361,19,-187
477,-165,-25,1007,-408,72,-250
478,-167,-29,1004,-432,97,-281
479,-148,-34,1023,-476,23,-287
480,-157,-26,1006,-441,-79,-277
481,-144,-23,1006,-324,-204,-234
482,-154,-32,1008,-224,-356,-197
483,-167,-29,1004,-51,-373,-199
484,-159,-45,1001,45,-317,-281
485,-175,-66,1019,109,-202,-330
486,-174,-52,1014,111,-94,-353
487,-177,-57,1013,98,3,-386
488,-182,-22,1020,94,74,-412
489,-166,-49,1007,129,164,-509
490,-168,-55,1006,98,205,-525
491,-180,-48,994,68,207,-462
492,-170,-31,1014,68,252,-418
493,-150,-13,1001,100,318,-427
494,-165,-45,1006,137,357,-384
495,-160,-20,990,244,308,-232
496,-170,-61,1018,277,252,-146
497,-175,-47,1007,266,195,-148
498,-167,-62,1009,147,222,-152
499,-156,-40,1000,137,244,-140
500,-162,-46,993,137,285,-70
501,-168,-28,987,236,312,4
502,-165,-32,1000,367,296,112
503,-176,-49,1000,414,296,227
504,-191,-37,1000,391,294,254
505,-197,-39,1020,350,343,256
506,-207,-48,1013,299,404,237
507,-193,-35,987,291,435,225
508,-208,-14,978,346,502,227
509,-201,-24,1005,324,568,235
510,-194,-23,1004,272,621,250
511,-213,-18,1021,188,654,243
512,-218,-17,1021,78,683,245
513,-215,-13,1034,14,726,268
514,-213,-28,1020,-4,710,274
515,-215,-35,1010,18,677,264
516,-235,-28,1045,76,664,293
517,-246,-23,1037,121,675,325
518,-238,-47,1041,131,712,350
519,-246,-39,1086,102,742,336
520,-256,-42,1081,94,759,299
521,-263,-29,1127,84,777,278
522,-242,-1,1163,2,787,293
523,-231,10,1214,-47,851,260
524,-226,33,1260,-23,910,231
525,-206,46,1319,70,968,209
526,-209,51,1406,262,960,168
527,-230,52,1510,551,869,45
528,-275,117,1635,809,736,-185
529,-281,185,1740,965,777,-443
530,-281,263,1892,969,843,-630
531,-296,330,2002,791,832,-695
532,-334,308,2048,328,724,-570
533,-387,225,2048,-195,443,-302
534,-439,142,2048,-500,-104,-121
535,-479,85,2021,-471,-807,-87
536,-493,37,1930,-217,-1567,-3
537,-502,-16,1842,221,-2342,245
538,-511,-51,1757,758,-3047,485
539,-534,-92,1683,1184,-3575,659
540,-559,-112,1619,1391,-3936,727
541,-557,-103,1588,1402,-4145,678
542,-553,-109,1495,1289,-4301,539
543,-514,-78,1442,1178,-4397,375
544,-473,-42,1390,1012,-4459,200
545,-428,-10,1303,801,-4616,96
546,-406,-15,1170,580,-4827,98
547,-360,14,990,326,-5041,149
548,-330,-14,821,160,-5247,227
549,-286,-40,615,18,-5366,311
550,-239,-65,419,-117,-5301,344
551,-193,-95,227,-248,-5047,362
552,-137,-156,60,-301,-4651,368
553,-87,-189,-80,-209,-4165,325
554,-51,-230,-197,-74,-3565,235
555,-12,-208,-272,-2,-2745,151
556,22,-199,-254,139,-1850,82
557,38,-158,-192,397,-1159,39
558,56,-102,-113,697,-723,38
559,65,-66,-11,1047,-549,86
560,74,-1,64,1324,-512,86
561,97,33,153,1424,-438,96
562,128,82,269,1344,-344,61
563,128,118,340,1158,-248,-11
564,157,150,408,969,-131,-86
565,177,181,451,742,43,-146
566,202,203,534,561,246,-211
567,213,242,594,430,439,-236
568,244,249,692,365,587,-152
569,260,246,749,440,597,-19
570,261,254,812,609,539,123
571,265,258,897,793,443,276
572,257,257,949,902,351,379
573,215,261,994,918,306,411
574,189,269,1021,793,294,370
575,158,307,1064,590,334,321
576,140,315,1082,367,402,319
577,133,327,1091,180,418,336
578,137,311,1086,43,382,391
579,117,316,1079,-19,308,428
580,102,329,1087,-33,189,498
581,98,337,1096,-53,72,565
582,102,349,1099,-57,0,620
583,103,357,1102,-72,-61,643
584,121,362,1128,-133,-90,678
585,125,373,1120,-205,-157,721
586,136,385,1088,-266,-280,793
587,151,401,1090,-281,-440,868
588,158,419,1047,-226,-575,979
589,155,405,1001,-150,-694,1120
590,156,385,986,-35,-750,1213
591,163,387,958,61,-741,1248
592,183,387,924,76,-661,1270
593,194,413,914,16,-545,1305
594,203,441,925,-107,-434,1424
595,212,428,915,-254,-332,1608
596,218,410,879,-340,-323,1774
597,218,387,850,-346,-336,1885
598,205,369,847,-340,-336,1985
599,218,342,793,-346,-334,2100
600,217,308,765,-305,-272,2211
601,207,294,731,-238,-157,2297
602,213,262,741,-150,-20,2379
603,203,239,719,-105,99,2452
604,181,214,685,-123,199,2500
605,165,163,682,-123,298,2524
606,149,139,694,-90,404,2510
607,137,112,671,-96,515,2532
608,133,93,689,-191,619,2612
609,117,57,662,-287,703,2713
610,83,25,646,-310,750,2825
611,65,-36,621,-267,793,2899
612,57,-113,591,-154,832,2957
613,39,-154,568,-6,867,2907
614,15,-173,549,109,988,2770
615,11,-184,567,180,1214,2659
616,6,-194,581,193,1412,2577
617,21,-213,600,182,1591,2520
618,42,-251,658,192,1750,2536
619,26,-280,703,324,1783,2522
620,-2,-312,715,434,1794,2434
621,-18,-327,708,399,1867,2303
622,-36,-364,717,260,1992,2131
623,-53,-387,748,70,2136,1922
624,-48,-418,768,-60,2322,1663
625,-55,-412,804,-141,2525,1424
626,-81,-397,829,-176,2673,1241
627,-86,-397,858,-99,2755,1151
628,-100,-412,905,20,2773,1077
629,-113,-432,942,55,2761,977
630,-136,-486,951,-27,2777,840
631,-161,-519,952,-152,2828,582
632,-182,-524,937,-328,2939,221
633,-212,-531,969,-560,3109,-160
634,-206,-509,990,-766,3316,-546
635,-206,-481,1033,-930,3558,-857
636,-231,-434,1111,-992,3705,-1078
637,-233,-409,1137,-935,3703,-1158
638,-248,-409,1201,-771,3548,-1148
639,-275,-403,1216,-582,3220,-1123
640,-283,-420,1205,-469,2855,-1181
641,-275,-418,1214,-326,2628,-1293
642,-282,-439,1218,-314,2484,-1402
643,-301,-440,1214,-389,2377,-1523
644,-305,-417,1223,-506,2355,-1703
645,-330,-374,1233,-564,2431,-1871
646,-344,-326,1297,-541,2503,-1984
647,-362,-281,1362,-437,2492,-2062
648,-364,-250,1384,-346,2386,-2054
649,-367,-277,1414,-254,2207,-1937
650,-380,-322,1378,-131,1878,-1869
651,-420,-345,1371,55,1503,-1937
652,-458,-312,1369,199,1230,-2068
653,-516,-250,1383,301,1138,-2175
654,-546,-213,1439,363,1128,-2228
655,-563,-171,1466,397,1033,-2281
656,-585,-139,1457,367,855,-2373
657,-590,-140,1438,195,652,-2486
658,-573,-147,1385,-27,509,-2617
659,-557,-132,1328,-223,425,-2750
660,-539,-67,1326,-248,353,-2859
661,-527,-24,1297,-123,267,-2927
662,-512,9,1268,14,144,-2933
663,-484,29,1229,96,19,-2878
664,-467,43,1156,108,-81,-2841
665,-462,105,1120,158,-116,-2826
666,-450,185,1114,359,-45,-2826
667,-398,273,1161,652,72,-2812
668,-374,316,1205,848,29,-2699
669,-352,351,1191,846,-166,-2539
670,-354,357,1166,701,-385,-2357
671,-341,339,1133,461,-543,-2175
672,-337,341,1072,260,-661,-2017
673,-324,335,1042,164,-745,-1832
674,-294,332,1011,229,-817,-1570
675,-266,306,971,467,-911,-1334
676,-265,290,952,713,-965,-1138
677,-268,240,944,904,-903,-994
678,-278,211,937,918,-784,-951
679,-299,201,922,766,-631,-951
680,-325,181,935,584,-467,-912
681,-296,163,950,393,-366,-787
682,-288,130,926,309,-338,-619
683,-245,91,905,354,-393,-462
684,-226,62,896,447,-473,-359
685,-234,36,873,621,-338,-334
686,-263,33,874,881,-61,-365
687,-247,10,915,887,35,-382
688,-249,3,936,891,156,-412
689,-246,-1,947,813,230,-404
690,-246,-20,964,664,234,-402
691,-232,-29,957,563,232,-365
692,-239,-43,950,529,298,-337
693,-248,-22,968,506,308,-279
694,-235,-22,973,578,230,-164
695,-244,-27,1014,658,70,-64
696,-253,-33,1024,680,-106,2
697,-262,-50,1011,662,-250,-17
698,-275,-52,1006,565,-288,-89
699,-264,-45,1004,412,-254,-140
700,-268,-41,988,274,-231,-175
701,-269,-44,991,213,-215,-222
702,-264,-47,997,193,-196,-242
703,-252,-48,990,203,-170,-246
704,-242,-57,1011,260,-223,-230
705,-247,-67,1044,365,-372,-240
706,-261,-67,1029,401,-567,-285
707,-259,-61,1034,315,-690,-347
708,-269,-52,1036,197,-713,-402
709,-265,-33,1023,63,-715,-418
710,-229,-31,1014,-4,-686,-404
711,-212,-12,1025,35,-655,-351
712,-207,1,1044,74,-711,-281
713,-212,-2,1042,78,-803,-175
714,-206,-28,1033,115,-807,-72
715,-213,-57,1029,139,-774,-17
716,-220,-60,1020,121,-741,-43
717,-211,-51,1035,61,-676,-103
718,-210,-51,1008,14,-590,-103
719,-199,-31,998,35,-528,-58
720,-216,-33,964,100,-399,0
721,-229,-23,941,205,-245,135
722,-237,-34,942,315,-110,368
723,-214,-52,938,326,-8,594
724,-152,-64,968,344,58,668
725,-147,-68,996,377,39,594
726,-139,-76,1025,322,-102,471
727,-156,-73,1034,151,-356,319
728,-187,-50,1017,-51,-551,209
729,-178,-45,992,-72,-512,161
730,-157,-24,984,-107,-399,147
731,-156,-28,964,-107,-268,137
732,-144,-22,984,-49,-161,145
733,-140,-30,984,31,-40,141
734,-148,-35,996,51,48,90
735,-168,-44,1021,51,82,30
736,-175,-54,1016,49,74,8
737,-167,-24,1024,10,15,-86
738,-183,-8,1019,-23,-73,-91
739,-192,-22,1010,-27,-102,-54
740,-185,-18,1010,-12,-100,-27
741,-182,-36,1001,-96,-92,14
742,-181,-44,993,-154,-43,0
743,-177,-41,999,-187,52,-11
744,-177,-35,1022,-267,103,-37
745,-186,-11,1007,-312,84,-68
746,-202,-70,964,195,486,159
747,-204,-62,1033,295,607,41
748,-188,-76,1068,324,531,55
749,-211,-18,1052,158,377,-173
750,-195,-28,1048,-19,242,-187
751,-196,-24,1049,-99,128,-189
752,-187,-14,1036,-129,13,-197
753,-180,-17,1039,-101,-55,-168
754,-169,-12,1016,-14,-96,-113
755,-176,-25,1023,74,-149,-76
756,-181,-39,1025,137,-207,-50
757,-192,-32,1007,133,-248,-62
758,-178,-36,1011,88,-241,-87
759,-172,-23,1015,39,-184,-107
760,-174,-28,1016,16,-170,-103
761,-182,-16,1017,-8,-194,-87
762,-175,-17,998,-10,-192,-56
763,-176,-12,1013,-10,-180,2
764,-176,-38,1014,-33,-190,22
765,-189,-35,975,53,-161,34
766,-183,-39,961,209,3,12
767,-179,-41,994,211,130,34
768,-200,-31,1006,135,150,26
769,-195,-33,1012,162,181,-9
770,-192,-34,1033,123,166,-52
771,-193,-34,1030,8,99,-95
772,-183,-29,1026,-27,-4,-103
773,-172,-18,1003,-2,-98,-87
774,-162,-12,993,29,-96,-41
775,-164,-19,988,65,-65,26
776,-170,-19,1006,125,-86,59
777,-174,-28,986,152,-63,55
778,-175,-35,1000,127,5,36
779,-175,-30,1015,74,43,-5
780,-175,-21,1021,-2,35,-50
781,-176,-6,1000,-41,41,-80
782,-181,-10,1014,-37,52,-70
783,-172,-7,1010,6,19,-37
784,-180,-8,1015,31,-18,-5
785,-175,-12,996,35,-6,8
786,-173,-9,986,35,33,18
787,-183,-10,997,20,35,16
788,-183,-6,1013,10,5,10
789,-169,-17,1003,18,3,18
790,-192,-12,1006,29,11,34
791,-189,-10,1002,39,31,47
792,-183,-16,1004,33,39,45
793,-180,-15,1003,29,52,45
794,-177,-19,1006,41,54,55
795,-185,-22,1000,67,43,53
796,-185,-29,997,88,17,53
797,-186,-28,981,65,13,36
798,-177,-29,996,41,17,22
799,-180,-17,1012,37,7,22
800,-185,-21,998,33,3,14
801,-180,-8,1004,26,27,12
802,-174,-23,998,8,66,-2
803,-174,-16,1004,-27,95,-15
804,-177,-9,1015,-31,115,0
805,-175,-19,994,16,91,30
806,-176,-26,1013,94,48,55
807,-189,-27,1017,115,31,53
808,-194,-35,1011,76,48,36
809,-195,-32,1011,29,68,0
810,-195,-13,1016,39,72,0
811,-189,-19,1026,72,44,14
812,-193,-6,1007,90,44,10
813,-174,-10,1000,88,62,16
814,-180,-12,1009,63,85,20
815,-179,-9,1006,59,93,28
816,-180,-1,1017,37,103,10
817,-182,9,1007,27,111,-3
818,-171,2,1029,33,105,6
819,-177,7,1017,53,80,24
820,-187,-9,1027,67,58,28
821,-189,-12,1026,55,43,12
822,-199,7,1018,55,46,18
823,-195,0,1036,53,46,47
824,-196,-6,1031,68,29,67
825,-201,5,1014,68,0,61
826,-204,-13,1030,26,9,43
827,-194,-13,1006,-23,50,20
828,-198,-15,980,-60,74,10
829,-200,-15,1004,-33,87,18
830,-201,-23,991,35,70,45
831,-209,-25,1004,111,52,75
832,-218,-41,1011,121,58,75
833,-222,-32,1007,98,62,53
834,-218,-35,1007,70,50,14
835,-207,-33,1001,43,29,-19
836,-195,-30,987,8,23,-46
837,-188,-28,975,-6,50,-72
838,-180,-4,975,-10,74,-91
839,-173,-1,989,2,107,-91
840,-178,-3,978,41,115,-64
841,-192,-4,988,92,119,-35
842,-195,-3,1003,117,128,-15
843,-195,-9,1009,100,144,-15
844,-206,-8,1035,67,130,-23
845,-200,4,1040,35,82,-33
846,-196,1,1032,18,46,-41
847,-197,21,1003,-2,44,-48
848,-193,5,1004,-33,91,-46
849,-194,3,1006,-86,158,-54
850,-206,0,1022,-158,187,-66
851,-212,8,1008,-189,195,-74
852,-214,0,1024,-195,197,-72
853,-211,-4,1012,-189,179,-70
854,-207,4,1031,-176,150,-58
855,-201,-2,1027,-189,132,-50
856,-206,-3,1026,-215,154,-46
857,-200,-4,1007,-226,187,-29
858,-206,-16,1003,-191,201,-7
859,-200,-23,1013,-117,230,22
860,-205,-32,1011,-82,265,16
861,-207,-30,1010,-78,314,-21
862,-199,-31,1018,-45,439,-50
863,-214,-16,1020,-33,507,-37
864,-201,-6,1052,96,523,-13
865,-217,-18,1079,188,519,14
866,-233,-18,1085,211,505,30
867,-229,-2,1115,244,574,36
868,-232,1,1148,250,662,22
869,-232,3,1175,242,740,-5
870,-232,6,1238,213,839,-64
871,-239,29,1278,184,990,-109
872,-222,30,1326,197,1158,-146
873,-208,47,1422,264,1269,-154
874,-197,72,1547,389,1314,-226
875,-195,58,1682,496,1244,-302
876,-252,8,1806,436,1013,-349
877,-348,-69,1919,297,605,-525
878,-429,-128,2005,-64,101,-841
879,-481,-198,2048,-473,-286,-1187
880,-505,-200,2048,-572,-551,-1404
881,-473,-184,2048,-154,-946,-1414
882,-462,-156,2048,697,-1729,-1269
883,-478,-112,2048,1490,-2911,-1054
884,-534,-90,2048,1807,-4155,-888
885,-573,-62,1927,1682,-5069,-795
886,-556,-65,1734,1375,-5571,-750
887,-504,-26,1517,1164,-5799,-736
888,-449,8,1332,1051,-5971,-724
889,-372,34,1134,891,-6024,-671
890,-321,43,941,635,-5840,-568
891,-238,38,767,358,-5422,-443
892,-153,30,636,186,-4913,-283
893,-93,47,505,197,-4504,-89
894,-82,56,453,401,-4194,141
895,-45,75,362,660,-3934,444
896,-10,59,287,885,-3678,774
897,39,28,220,1102,-3387,1127
898,60,18,159,1317,-3118,1348
899,47,10,99,1551,-2764,1411
900,39,20,97,1727,-2280,1323
901,35,18,76,1744,-1713,1172
902,18,10,95,1641,-1118,916
903,7,38,132,1547,-559,563
904,22,93,175,1438,-88,291
905,30,142,234,1279,277,252
906,41,155,301,1215,408,401
907,63,159,365,1221,345,592
908,57,168,426,1295,261,715
909,59,157,461,1391,212,778
910,72,141,535,1385,136,748
911,83,129,591,1229,52,655
912,88,120,628,973,-24,495
913,101,119,635,711,-22,274
914,113,144,658,473,74,73
915,142,174,688,283,205,-64
916,153,191,739,217,302,-89
917,182,211,784,274,337,-15
918,199,205,818,408,298,153
919,180,221,856,606,150,276
920,164,249,894,740,-6,319
921,145,264,946,725,-110,307
922,138,278,963,570,-157,250
923,127,315,972,358,-174,161
924,114,328,977,135,-190,82
925,120,341,974,-88,-143,57
926,139,344,947,-281,-67,63
927,154,365,941,-367,-18,73
928,159,394,962,-338,-10,94
929,173,419,945,-256,-40,145
930,184,435,949,-162,-118,178
931,200,455,962,-92,-186,207
932,216,496,968,-80,-252,235
933,236,538,975,-189,-305,352
934,242,541,954,-344,-364,547
935,241,567,946,-394,-454,756
936,243,589,927,-400,-547,998
937,239,578,884,-400,-622,1250
938,243,559,867,-338,-620,1506
939,230,524,848,-242,-604,1727
940,232,479,829,-170,-586,1887
941,210,434,807,-141,-522,1955
942,179,425,789,-142,-430,1946
943,166,422,775,-213,-276,2026
944,184,386,784,-410,-71,2315
945,178,333,753,-580,62,2684
946,146,265,718,-627,68,2920
947,118,245,695,-557,62,3028
948,108,190,654,-424,127,3067
949,96,136,643,-371,269,3063
950,78,60,655,-416,488,3020
951,72,9,635,-432,689,3002
952,64,-5,649,-328,859,3008
953,72,-8,653,-113,1019,3024
954,56,-27,689,104,1134,3061
955,35,-39,706,238,1177,3094
956,19,-62,733,270,1242,3092
957,0,-94,734,174,1330,3008
958,-15,-133,767,24,1472,2885
959,-10,-158,756,-129,1642,2756
960,-5,-195,776,-252,1775,2655
961,-5,-227,773,-269,1865,2577
962,-15,-237,760,-183,1937,2487
963,-20,-260,797,-103,2050,2413
964,-29,-280,793,-43,2228,2383
965,-25,-317,841,45,2377,2364
966,-37,-376,890,145,2435,2317
967,-56,-407,912,199,2423,2221
968,-88,-440,952,213,2371,2061
969,-100,-445,952,225,2316,1807
970,-141,-446,988,178,2326,1500
971,-144,-443,1013,65,2451,1247
972,-163,-435,1036,-53,2644,1038
973,-166,-456,1066,-176,2802,856
974,-162,-495,1078,-285,2847,758
975,-135,-560,1080,-310,2794,635
976,-155,-607,1088,-281,2677,467
977,-192,-592,1095,-152,2572,239
978,-208,-534,1113,67,2515,-60
979,-202,-454,1179,234,2453,-289
980,-206,-436,1212,311,2390,-431
981,-215,-409,1231,217,2402,-605
982,-219,-435,1238,-2,2466,-798
983,-227,-472,1257,-289,2527,-1033
984,-253,-482,1257,-525,2543,-1296
985,-256,-492,1231,-562,2482,-1513
986,-268,-449,1241,-373,2298,-1742
987,-299,-401,1235,-16,2066,-2000
988,-318,-307,1300,264,1955,-2253
989,-320,-221,1343,291,1929,-2441
990,-320,-163,1388,143,1949,-2595
991,-313,-127,1414,-49,1910,-2666
992,-310,-134,1378,-174,1742,-2722
993,-315,-141,1355,-182,1486,-2779
994,-346,-142,1292,-107,1226,-2804
995,-367,-118,1242,86,957,-2826
996,-368,-29,1270,387,791,-2912
997,-357,76,1312,617,830,-3046
998,-354,154,1330,627,908,-3107
999,-347,185,1387,428,914,-3025
1000,-343,186,1369,246,812,-2923
1001,-364,177,1323,115,570,-2857
1002,-374,164,1297,47,294,-2787
1003,-371,176,1230,67,62,-2699
1004,-372,190,1208,147,-137,-2595
1005,-345,195,1169,295,-260,-2556
1006,-346,234,1173,363,-239,-2576
1007,-333,265,1177,238,-120,-2552
1008,-311,245,1153,-25,0,-2464
1009,-297,241,1111,-273,25,-2337
1010,-297,223,1053,-351,-81,-2185
1011,-307,222,1005,-305,-221,-2043
1012,-302,260,1004,-154,-282,-1929
1013,-295,294,1023,33,-229,-1822
1014,-277,335,1061,108,-135,-1695
1015,-265,344,1097,45,-55,-1527
1016,-260,356,1105,-98,-32,-1378
1017,-246,350,1097,-250,-63,-1234
1018,-246,335,1058,-381,-129,-1087
1019,-246,311,1029,-447,-229,-910
1020,-250,277,980,-418,-350,-744
1021,-236,229,957,-351,-411,-593
1022,-241,192,912,-254,-383,-449
1023,-237,172,916,-144,-317,-339
1024,-241,162,944,-49,-219,-244
1025,-245,149,944,20,-157,-127
1026,-253,117,946,106,-149,-46
1027,-256,104,952,176,-168,20
1028,-246,71,952,141,-219,61
1029,-261,52,962,113,-235,69
1030,-258,39,970,49,-207,55
1031,-242,29,958,-10,-166,53
1032,-232,13,980,-16,-147,80
1033,-220,5,968,24,-112,96
1034,-217,-8,958,74,-63,108
1035,-227,-14,977,55,44,139
1036,-222,-20,990,4,136,209
1037,-229,-29,994,14,169,289
1038,-219,-40,1022,94,127,454
1039,-252,-45,1013,234,103,479
1040,-266,-59,1049,268,13,502
1041,-269,-62,1026,246,-67,506
1042,-266,-67,1023,147,-90,502
1043,-227,-78,1017,0,-123,436
1044,-248,-83,935,-564,-147,309
1045,-282,-53,994,-777,5,307
1046,-221,-93,1007,-447,156,303
1047,-214,-110,1016,-185,-26,233
1048,-242,-126,1032,-39,-268,98
1049,-261,-119,975,135,-426,0
1050,-251,-127,989,131,-497,-76
1051,-241,-113,941,199,-493,-130
1052,-240,-114,1001,164,-514,-183
1053,-235,-107,995,160,-498,-220
1054,-235,-107,1001,68,-446,-267
1055,-297,-82,1003,-23,-331,-326
1056,-215,-119,1016,-242,-270,-371
1057,-228,-75,1017,-267,-235,-410
1058,-210,-86,1006,-228,-235,-359
1059,-197,-92,996,-107,-274,-293
1060,-182,-70,958,78,-264,-230
1061,-218,-86,987,406,-32,-97
1062,-207,-110,1028,391,9,-144
1063,-206,-76,1024,186,-96,-250
1064,-215,-61,986,80,-61,-308
1065,-204,-70,1010,53,0,-339
1066,-193,-41,996,65,35,-357
1067,-169,-31,1010,111,56,-326
1068,-170,-40,1024,151,37,-293
1069,-170,-35,987,145,13,-257
1070,-177,-39,991,151,27,-201
1071,-170,-39,999,211,39,-154
1072,-165,-37,1004,326,17,-142
1073,-175,-45,1001,504,-38,-146
1074,-188,-48,1019,639,-131,-117
1075,-199,-46,1014,668,-184,-103
1076,-220,-40,1016,617,-157,-142
1077,-224,-33,1027,520,-84,-150
1078,-218,-27,1019,422,11,-127
1079,-214,-37,1022,330,72,-76
1080,-214,-28,1021,289,80,-43
1081,-223,-31,992,279,95,28
1082,-228,-32,997,311,125,88
1083,-218,-33,1011,317,117,123
1084,-212,-37,1013,258,95,69
1085,-226,-50,1017,162,72,-3
1086,-216,-53,1026,51,48,-48
1087,-214,-65,1023,-45,48,-46
1088,-210,-67,1014,-103,39,-35
1089,-205,-66,1020,-58,-20,-41
1090,-205,-66,999,2,-61,-60
1091,-212,-52,998,39,-57,-93
1092,-207,-55,995,51,-18,-130
1093,-199,-52,1000,49,2,-150
1094,-192,-33,1004,14,7,-150
1095,-192,-30,1012,0,9,-121
1096,-201,-28,1021,61,-6,-50
1097,-200,-28,1000,104,-59,-25
1098,-207,-32,1024,104,-102,-13
1099,-207,-38,1017,76,-120,-7
1100,-209,-37,998,35,-106,-29
1101,-206,-34,988,-2,-61,-62
1102,-194,-38,992,-16,-14,-52
1103,-192,-39,983,-14,15,-46
1104,-208,-37,996,-17,13,-62
1105,-201,-28,1013,-27,2,-52
1106,-195,-20,1006,-10,-26,-29
1107,-200,-35,1015,24,-63,-13
1108,-209,-21,1023,43,-94,-13
1109,-207,-26,1013,47,-98,-9
1110,-208,-31,1002,37,-71,-9
1111,-203,-30,1017,-2,-65,-19
1112,-198,-39,1008,-6,-77,-5
1113,-210,-41,1021,6,-82,-2
1114,-210,-49,1012,18,-71,0
1115,-208,-50,1011,14,-45,2
1116,-218,-33,1022,10,-41,-7
1117,-207,-41,1004,29,-38,4
1118,-215,-47,1012,37,-61,12
1119,-212,-59,1006,20,-88,4
1120,-213,-66,1023,-2,-88,-48
1121,-216,-45,1000,-43,-73,-72
1122,-190,-37,987,-74,-69,-80
1123,-195,-27,977,-53,-77,-87
1124,-187,-11,971,-23,-71,-74
1125,-181,-19,977,-4,-38,-35
1126,-172,-17,961,0,-18,-27
1127,-182,-31,983,-2,5,-23
1128,-189,-26,988,-12,17,-21
1129,-190,-32,992,10,9,-7
1130,-199,-41,996,16,-2,2
1131,-211,-36,1010,10,11,0
1132,-209,-42,1017,0,11,-3
1133,-216,-43,1011,-17,-22,-25
1134,-196,-30,1023,-33,-59,-39
1135,-195,-23,1009,-33,-73,-31
1136,-183,-21,991,-33,-71,-25
1137,-185,-29,987,-49,-51,-23
1138,-183,-36,988,-60,-18,-15
1139,-189,-20,977,-51,31,0
1140,-188,-32,994,-2,56,30
1141,-196,-44,994,27,60,39
1142,-208,-46,1004,61,46,38
1143,-214,-49,998,78,31,16
1144,-218,-49,1015,49,35,-21
1145,-215,-41,1000,2,48,-54
1146,-209,-30,1007,-41,66,-64
1147,-195,-30,1009,-51,56,-70
1148,-202,-21,1020,-16,33,-43
1149,-195,-26,997,41,-6,-17
1150,-195,-30,1007,61,-22,-9
1151,-185,-33,991,33,2,-23
1152,-194,-41,989,-4,37,-37
1153,-192,-33,991,-12,60,-50
1154,-193,-16,1009,16,74,-37
1155,-207,-17,1005,53,60,-2
1156,-212,-14,1004,78,39,12
1157,-206,-16,1016,72,44,16
1158,-203,-26,1014,41,56,14
1159,-196,-16,1011,16,48,6
1160,-198,-21,1018,6,35,4
1161,-207,-22,1015,4,27,-7
1162,-201,-28,997,0,27,-11
1163,-204,-39,1011,-10,41,-7
1164,-199,-29,1017,12,25,-5
1165,-196,-45,1008,63,3,-5
1166,-199,-36,1013,84,-2,0
1167,-200,-48,1007,76,2,-2
1168,-194,-39,1014,53,11,-15
1169,-193,-28,1004,43,0,-19
1170,-202,-19,1024,41,0,-23
1171,-201,-33,1012,53,3,-5
1172,-196,-22,1026,72,-22,6
1173,-195,-20,998,98,-49,8
1174,-200,-28,1005,94,-51,28
1175,-200,-32,1008,94,-43,24
1176,-200,-42,1015,55,-20,2
1177,-198,-23,1010,-4,11,-19
1178,-194,-33,991,-19,23,-33
1179,-192,-21,1000,-2,15,-29
1180,-193,-35,999,47,5,-3
1181,-187,-21,995,86,-20,4
1182,-196,-29,994,76,-10,6
1183,-194,-27,1005,63,19,24
1184,-200,-26,991,59,19,12
1185,-210,-23,990,51,15,-3
1186,-212,-22,980,27,15,-7
1187,-211,-31,988,14,29,-9
1188,-211,-19,987,6,56,-11
1189,-203,-20,981,26,64,-13
1190,-196,-18,994,49,52,4
1191,-205,-23,984,74,44,22
1192,-200,-24,999,109,37,28
1193,-206,-29,990,113,35,32
1194,-205,-24,991,88,50,20
1195,-209,-21,979,29,78,4
1196,-203,-12,964,4,103,-7
1197,-195,-16,984,10,117,-2
1198,-196,-22,980,27,123,14
1199,-186,-16,966,45,134,26
1200,-193,-15,985,59,160,38
1201,-201,-17,974,96,171,45
1202,-205,-10,975,137,210,63
1203,-209,-13,990,151,269,84
1204,-218,-26,1011,160,326,88
1205,-212,-31,1000,164,380,98
1206,-203,-50,980,168,410,84
1207,-187,-73,984,221,455,36
1208,-155,-83,984,358,566,-31
1209,-150,-88,997,561,750,-89
1210,-182,-75,1038,807,998,-177
1211,-217,-92,1123,1041,1267,-252
1212,-266,-93,1189,1295,1505,-378
1213,-272,-45,1311,1559,1750,-533
1214,-302,17,1459,1721,1898,-714
1215,-344,129,1557,1883,1988,-859
1216,-337,217,1705,1916,2074,-937
1217,-339,271,1806,1830,2101,-916
1218,-381,295,1866,1645,2087,-865
1219,-413,304,1970,1459,1998,-878
1220,-433,342,2048,1277,1802,-877
1221,-466,386,2048,1121,1478,-783
1222,-491,399,2048,1026,1017,-582
1223,-536,390,2048,1029,402,-281
1224,-558,358,2048,1131,-293,57
1225,-584,335,2048,1277,-1018,352
1226,-615,315,2048,1443,-1782,598
1227,-657,283,2048,1510,-2543,854
1228,-707,241,2048,1453,-3248,1084
1229,-735,188,1998,1315,-3950,1231
1230,-751,107,1832,1006,-4668,1342
1231,-753,44,1641,627,-5350,1307
1232,-715,4,1423,192,-5829,1172
1233,-649,-23,1202,-258,-6049,969
1234,-579,-48,1007,-871,-6110,750
1235,-509,-41,793,-1508,-6061,536
1236,-454,-30,606,-1971,-5911,372
1237,-382,-36,430,-2262,-5747,270
1238,-314,-47,227,-2449,-5569,204
1239,-261,-40,70,-2574,-5288,186
1240,-188,-52,-99,-2564,-4883,250
1241,-126,-100,-279,-2295,-4424,358
1242,-81,-119,-371,-1762,-3852,475
1243,-47,-141,-402,-1057,-3196,643
1244,-28,-186,-395,-308,-2522,788
1245,-36,-201,-373,266,-1854,795
1246,-22,-195,-273,547,-1198,655
1247,-25,-151,-143,588,-627,321
1248,-2,-72,-59,512,-172,-56
1249,52,3,48,475,162,-281
1250,86,62,147,506,365,-363
1251,125,88,261,584,394,-361
1252,146,92,358,627,296,-310
1253,138,119,431,666,146,-250
1254,147,156,519,797,44,-156
1255,170,170,593,934,-30,-21
1256,179,163,652,1016,-49,116
1257,195,132,679,1008,11,205
1258,212,117,718,953,136,243
1259,213,103,785,895,246,223
1260,210,109,803,867,337,196
1261,215,128,858,863,390,161
1262,205,137,890,844,431,157
1263,200,144,926,818,482,163
1264,194,159,954,793,527,172
1265,183,172,1002,789,515,176
1266,151,191,1029,807,466,190
1267,135,220,1071,820,410,225
1268,113,245,1102,838,332,278
1269,102,258,1113,799,240,332
1270,91,251,1127,721,169,334
1271,84,262,1123,576,113,278
1272,78,286,1145,422,95,198
1273,84,313,1121,258,125,125
1274,89,331,1133,123,156,98
1275,90,365,1124,41,148,106
1276,110,389,1141,0,99,147
1277,119,415,1129,-51,35,256
1278,128,412,1097,-99,-57,391
1279,141,396,1066,-113,-163,516
1280,162,384,1027,-80,-258,629
1281,172,374,996,12,-290,747
1282,178,381,985,141,-290,866
1283,188,386,970,297,-262,965
1284,179,396,984,408,-225,1045
1285,171,415,975,418,-219,1118
1286,162,421,963,344,-215,1188
1287,154,428,955,254,-213,1245
1288,156,436,915,188,-211,1307
1289,123,445,882,127,-196,1409
1290,125,429,853,78,-172,1497
1291,127,418,812,37,-110,1620
1292,133,385,791,-27,-6,1782
1293,134,354,775,-99,127,1930
1294,124,336,741,-137,246,2000
1295,98,317,747,-178,347,2022
1296,92,298,733,-266,439,2051
1297,74,262,721,-396,513,2088
1298,78,221,717,-494,587,2118
1299,83,197,690,-553,656,2129
1300,81,159,661,-562,693,2157
1301,43,142,649,-502,755,2202
1302,30,141,642,-422,826,2288
1303,16,106,643,-318,869,2372
1304,-4,77,640,-226,894,2426
1305,-6,42,669,-156,923,2442
1306,2,-2,670,-96,978,2426
1307,-6,-16,694,-51,1025,2403
1308,-8,-9,703,61,1015,2416
1309,4,-1,739,367,902,2534
1310,-18,15,762,836,644,2731
1311,-18,-30,787,1401,328,2942
1312,-30,-75,788,1789,134,3038
1313,-41,-116,798,1904,125,3047
1314,-53,-181,802,1766,267,2924
1315,-68,-219,785,1432,498,2664
1316,-75,-265,768,998,804,2370
1317,-78,-272,747,625,1138,2077
1318,-76,-284,756,457,1406,1832
1319,-84,-271,770,461,1605,1606
1320,-87,-256,806,475,1814,1420
1321,-96,-224,870,481,2031,1288
1322,-90,-227,924,445,2158,1192
1323,-110,-245,972,309,2238,1133
1324,-134,-309,980,129,2291,1028
1325,-167,-382,978,-58,2306,844
1326,-199,-407,971,-232,2377,565
1327,-218,-409,992,-357,2494,243
1328,-230,-382,1044,-412,2652,-2
1329,-221,-353,1082,-389,2779,-209
1330,-227,-326,1166,-363,2828,-349
1331,-251,-314,1228,-266,2818,-500
1332,-253,-300,1270,-277,2730,-712
1333,-264,-318,1273,-482,2648,-892
1334,-257,-336,1250,-697,2560,-1070
1335,-261,-347,1222,-779,2423,-1252
1336,-258,-346,1209,-695,2279,-1410
1337,-263,-342,1209,-381,2191,-1613
1338,-276,-285,1273,-115,2142,-1804
1339,-281,-214,1346,47,2171,-2007
1340,-264,-161,1384,27,2189,-2142
1341,-280,-138,1423,-123,2181,-2255
1342,-293,-158,1423,-248,2121,-2375
1343,-317,-155,1423,-301,1982,-2519
1344,-334,-141,1406,-250,1761,-2648
1345,-344,-89,1395,-129,1513,-2738
1346,-342,-46,1403,20,1349,-2804
1347,-370,-8,1396,100,1240,-2863
1348,-407,32,1420,90,1187,-2884
1349,-431,70,1405,51,1140,-2908
1350,-470,49,1396,29,1029,-2931
1351,-498,42,1354,94,832,-2902
1352,-500,37,1346,311,636,-2949
1353,-499,85,1359,535,421,-3058
1354,-492,158,1353,672,255,-3201
1355,-493,197,1357,617,128,-3273
1356,-483,253,1323,455,41,-3298
1357,-458,265,1246,318,-32,-3336
1358,-441,293,1177,240,-114,-3339
1359,-405,304,1098,240,-194,-3285
1360,-373,329,1049,293,-258,-3160
1361,-338,343,987,471,-362,-2988
1362,-333,344,917,723,-479,-2787
1363,-326,373,886,912,-551,-2646
1364,-317,410,876,1039,-498,-2578
1365,-309,485,906,1041,-397,-2539
1366,-273,547,949,965,-241,-2535
1367,-256,592,961,758,-141,-2410
1368,-208,599,959,580,-114,-2125
1369,-192,572,923,508,-133,-1748
1370,-183,521,923,522,-188,-1357
1371,-193,467,923,580,-182,-1017
1372,-229,424,951,627,-122,-785
1373,-255,406,987,609,-41,-627
1374,-280,380,1034,514,44,-500
1375,-283,353,1094,359,46,-361
1376,-310,326,1123,207,-57,-267
1377,-333,275,1133,65,-198,-177
1378,-333,251,1125,-66,-332,-103
1379,-331,225,1116,-193,-467,-52
1380,-330,213,1099,-334,-506,2
1381,-317,173,1066,-447,-532,71
1382,-314,143,1029,-566,-530,110
1383,-320,114,1020,-652,-508,125
1384,-318,79,1025,-746,-483,90
1385,-308,58,997,-828,-440,43
1386,-307,67,971,-859,-395,18
1387,-289,63,946,-844,-348,63
1388,-280,34,938,-812,-321,122
1389,-267,20,934,-799,-290,147
1390,-264,-1,928,-783,-211,145
1391,-263,-1,919,-803,-90,137
1392,-260,-23,906,-869,27,135
1393,-260,-20,937,-849,148,118
1394,-254,-37,925,-822,281,94
1395,-266,-33,961,-867,414,18
1396,-255,-28,998,-824,375,-13
1397,-248,-40,980,-797,271,-41
1398,-253,-39,975,-734,160,-45
1399,-264,-39,955,-652,115,-25
1400,-256,-47,948,-576,162,-13
1401,-248,-50,939,-496,232,-17
1402,-250,-47,955,-455,261,-29
1403,-251,-46,967,-439,255,-46
1404,-272,-19,965,-410,275,-35
1405,-248,-29,962,-371,285,36
1406,-240,-50,993,-314,169,96
1407,-288,26,956,-340,17,125
1408,-269,-158,1011,-555,-55,196
1409,-268,-82,987,-334,-108,24
1410,-252,-93,974,-283,-168,-43
1411,-275,-82,948,-305,-207,-107
1412,-268,-96,938,-346,-143,-46
1413,-268,-136,951,-318,-92,-109
1414,-266,-98,936,-158,-51,-168
1415,-260,-108,949,-119,-24,-201
1416,-248,-95,923,-70,13,-197
1417,-230,-94,927,-53,43,-134
1418,-236,-94,934,-17,56,-82
1419,-247,-101,948,51,101,-23
1420,-232,-98,972,131,107,34
1421,-245,-106,1010,193,93,30
1422,-251,-100,1001,207,64,0
1423,-261,-82,1036,184,39,-15
1424,-261,-81,1062,143,13,-21
1425,-273,-72,1056,129,-73,-27
1426,-279,-69,1045,117,-166,-41
1427,-299,-71,1041,106,-186,-52
1428,-295,-73,1025,51,-143,-39
1429,-301,-83,1030,-14,-102,-21
1430,-306,-80,1019,-45,-94,-41
1431,-302,-81,999,-37,-79,-31
1432,-301,-79,1003,4,-75,-13
1433,-308,-70,982,61,-84,-17
1434,-301,-73,1009,78,-88,-35
1435,-278,-54,997,102,-108,-48
1436,-271,-56,984,84,-110,-76
1437,-263,-46,969,41,-98,-107
1438,-260,-37,959,22,-43,-127
1439,-255,-38,980,43,19,-121
1440,-256,-26,998,68,60,-103
1441,-274,-29,1017,102,62,-95
1442,-280,-42,1025,115,48,-113
1443,-279,-45,1047,123,29,-134
1444,-267,-50,1037,92,3,-164
1445,-264,-44,1037,53,-16,-181
1446,-268,-46,1024,51,-24,-166
1447,-259,-49,1007,98,-43,-125
1448,-259,-40,1013,156,-79,-111
1449,-266,-39,996,182,-104,-121
1450,-261,-39,1000,190,-94,-134
1451,-260,-35,1000,141,-92,-146
1452,-268,-20,987,115,-77,-140
1453,-264,-13,1004,106,-67,-101
1454,-263,-18,997,125,-82,-48
1455,-269,-9,988,160,-127,-5
1456,-273,-17,970,190,-155,30
1457,-276,-18,983,178,-118,51
1458,-276,-22,974,131,-81,53
1459,-275,-20,982,90,-41,49
1460,-262,-33,971,61,-4,47
1461,-260,-39,965,39,23,61
1462,-258,-35,960,41,31,69
1463,-267,-30,972,59,27,63
1464,-266,-23,978,70,17,61
1465,-262,-18,987,63,3,61
1466,-259,-22,1004,51,-6,67
1467,-262,-23,993,47,-16,82
1468,-258,-18,971,47,-12,90
1469,-261,-31,974,41,13,98
1470,-255,-36,978,29,33,88
1471,-268,-26,975,14,39,69
1472,-258,-32,978,10,37,65
1473,-273,-40,970,35,5,71
1474,-256,-27,985,84,-12,90
1475,-255,-29,970,98,-26,118
1476,-255,-41,983,76,-18,125
1477,-241,-24,961,39,17,108
1478,-246,-27,947,4,41,90
1479,-259,-23,971,6,41,102
1480,-261,-26,962,37,37,118
1481,-272,-40,990,57,33,120
1482,-258,-36,974,57,31,112
1483,-256,-38,977,14,46,102
1484,-258,-43,963,-2,87,104
1485,-261,-48,981,31,101,135
1486,-278,-47,993,59,101,139
1487,-272,-45,1000,51,97,125
1488,-274,-41,982,26,97,116
1489,-278,-41,993,4,87,108
1490,-271,-49,982,2,66,102
1491,-278,-61,998,-10,50,98
1492,-286,-67,990,-31,46,75
1493,-281,-59,991,-49,62,53
1494,-285,-55,982,-49,46,43
1495,-280,-50,975,-25,43,41
1496,-280,-56,985,-4,56,45
1497,-272,-50,992,2,74,36
1498,-283,-59,991,10,84,14
1499,-276,-52,985,10,93,4
1500,-271,-47,983,18,93,-9
1501,-267,-41,996,53,89,0
1502,-271,-37,1013,84,74,14
1503,-282,-33,1011,82,46,-2
1504,-275,-41,1020,47,43,-17
1505,-272,-33,1000,-6,33,-39
1506,-270,-27,1022,-25,33,-52
1507,-273,-18,1000,-12,7,-39
1508,-260,-21,1011,20,-12,8
1509,-268,-33,991,57,-28,43
1510,-276,-37,990,65,-20,36
1511,-271,-43,988,26,7,12
1512,-273,-31,982,-16,43,-23
1513,-267,-33,994,-23,46,-46
1514,-271,-23,993,0,5,-35
1515,-274,-29,997,47,-57,-11
1516,-271,-18,975,94,-82,8
1517,-267,-21,972,109,-59,22
1518,-275,-22,970,82,-12,22
1519,-263,-13,971,31,19,8
1520,-266,-14,966,0,52,16
1521,-256,-12,964,16,82,36
1522,-267,-19,966,65,84,55
1523,-281,-17,990,98,82,79
1524,-283,-22,990,100,78,77
1525,-289,-17,1006,90,46,69
1526,-288,-23,1004,98,-4,80
1527,-284,-19,988,113,-34,69
1528,-278,-24,1009,84,-30,49
1529,-279,-11,973,27,-16,39
1530,-265,-8,1019,0,0,43
1531,-279,-12,1000,-2,-8,59
1532,-286,-14,983,24,-6,84
1533,-295,-25,987,45,-18,96
1534,-300,-42,990,55,-32,90
1535,-291,-29,997,47,-45,71
1536,-297,-41,976,14,-57,43
1537,-280,-43,957,-2,-53,20
1538,-279,-45,978,10,-51,2
1539,-287,-40,975,41,-75,0
1540,-274,-36,974,88,-94,2
1541,-262,-34,963,108,-112,2
1542,-268,-32,948,104,-94,-19
1543,-263,-30,967,68,-22,-45
1544,-262,-33,958,24,43,-58
1545,-253,-20,954,29,89,-60
1546,-261,-19,961,55,107,-48
1547,-242,-13,975,84,105,-13
1548,-243,-14,980,117,95,0
1549,-262,-17,972,125,99,8
1550,-264,-20,983,147,144,4
1551,-268,-22,993,127,218,-5
1552,-269,-30,1016,135,279,-9
1553,-269,-19,1019,162,322,-11
1554,-274,-24,1029,190,361,-21
1555,-275,-20,1066,227,398,-48
1556,-273,13,1084,276,408,-99
1557,-270,43,1121,258,451,-170
1558,-276,76,1170,192,535,-181
1559,-281,83,1180,162,591,-179
1560,-283,77,1248,225,650,-148
1561,-254,53,1282,276,654,-19
1562,-287,19,1342,559,478,92
1563,-290,-16,1385,955,207,157
1564,-331,-8,1411,1276,-96,125
1565,-359,34,1471,1516,-379,86
1566,-385,100,1517,1543,-434,-23
1567,-384,135,1572,1324,-360,-142
1568,-344,180,1635,994,-305,-216
1569,-331,200,1660,621,-266,-273
1570,-326,200,1679,274,-301,-271
1571,-320,187,1703,98,-442,-224
1572,-344,168,1719,57,-635,-154
1573,-368,149,1736,133,-846,-86
1574,-391,133,1766,266,-1069,-9
1575,-411,112,1812,420,-1364,73
1576,-414,95,1865,604,-1762,133
1577,-443,77,1891,803,-2262,200
1578,-456,85,1928,1033,-2795,239
1579,-497,108,1922,1092,-3317,319
1580,-518,99,1896,1002,-3790,420
1581,-531,101,1819,830,-4237,465
1582,-532,62,1726,627,-4666,508
1583,-510,18,1589,416,-5084,575
1584,-482,-34,1440,313,-5442,590
1585,-456,-60,1283,172,-5713,518
1586,-423,-81,1091,-60,-5899,426
1587,-376,-108,927,-365,-5918,321
1588,-337,-99,727,-641,-5815,196
1589,-268,-88,558,-892,-5616,110
1590,-218,-68,363,-1064,-5356,88
1591,-146,-26,176,-1088,-5038,120
1592,-62,-29,16,-932,-4862,289
1593,-24,-54,-126,-461,-4633,532
1594,-11,-94,-244,197,-4196,756
1595,-3,-154,-253,740,-3497,913
1596,16,-177,-232,1098,-2637,901
1597,-1,-184,-155,1168,-1803,661
1598,-5,-128,-73,942,-993,280
1599,42,-73,37,680,-303,-103
1600,77,20,85,494,91,-455
1601,150,111,164,404,267,-623
1602,212,161,253,500,273,-527
1603,255,187,316,807,39,-269
1604,248,194,361,1193,-299,-17
1605,210,203,428,1533,-487,166
1606,202,205,492,1639,-420,254
1607,198,188,567,1455,-233,241
1608,215,185,614,1117,-8,145
1609,220,187,649,801,238,20
1610,250,225,706,666,427,-76
1611,278,267,785,703,503,-21
1612,287,313,863,844,468,145
1613,275,333,886,949,373,323
1614,266,355,914,928,298,444
1615,256,361,944,776,314,510
1616,253,395,975,621,343,508
1617,254,434,990,447,369,508
1618,256,467,980,309,386,553
1619,259,488,990,219,396,653
1620,273,504,990,178,378,832
1621,270,511,978,231,269,1030
1622,267,519,954,324,146,1184
1623,263,525,939,377,62,1321
1624,241,551,890,367,9,1446
1625,231,533,881,268,5,1551
1626,236,513,839,137,-28,1633
1627,241,505,821,-19,29,1668
1628,241,491,794,-213,138,1766
1629,244,493,776,-381,255,1872
1630,266,482,755,-414,318,2047
1631,265,483,750,-312,289,2264
1632,266,459,737,-164,181,2465
1633,233,406,710,-74,121,2649
1634,206,380,709,-23,97,2770
1635,187,349,657,-21,132,2817
1636,166,325,681,-68,242,2830
1637,162,286,676,-99,394,2868
1638,157,263,666,-123,517,2948
1639,146,227,655,-96,582,3039
1640,142,192,636,-25,638,3129
1641,122,161,615,51,730,3248
1642,92,142,617,207,826,3336
1643,58,116,627,426,935,3426
1644,13,82,636,568,1031,3514
1645,-31,25,649,651,1117,3551
1646,-50,-19,649,668,1240,3514
1647,-63,-83,683,656,1414,3428
1648,-55,-114,681,635,1613,3311
1649,-69,-137,711,658,1832,3170
1650,-69,-133,747,690,1992,3032
1651,-98,-154,770,693,2087,2955
1652,-108,-186,793,656,2152,2883
1653,-143,-254,855,529,2203,2766
1654,-137,-323,897,274,2294,2573
1655,-141,-388,892,-43,2429,2370
1656,-140,-450,867,-178,2470,2186
1657,-144,-470,861,-57,2421,1998
1658,-173,-465,851,221,2445,1786
1659,-193,-466,912,524,2560,1575
1660,-207,-471,976,631,2722,1379
1661,-206,-484,1025,527,2888,1170
1662,-210,-512,1066,344,2984,932
1663,-212,-530,1097,246,2992,684
1664,-206,-513,1130,277,2918,440
1665,-223,-489,1157,457,2816,211
1666,-241,-468,1218,609,2693,-27
1667,-253,-420,1261,604,2601,-328
1668,-262,-384,1291,393,2627,-613
1669,-258,-376,1300,90,2701,-830
1670,-245,-405,1320,-162,2703,-1007
1671,-251,-418,1310,-273,2562,-1158
1672,-253,-405,1310,-238,2371,-1273
1673,-265,-406,1316,-19,2185,-1412
1674,-277,-397,1332,234,1994,-1586
1675,-286,-360,1388,391,1869,-1816
1676,-278,-351,1396,402,1793,-2031
1677,-281,-342,1414,328,1691,-2170
1678,-302,-355,1423,303,1513,-2259
1679,-327,-406,1414,371,1183,-2390
1680,-377,-419,1395,426,793,-2628
1681,-415,-377,1372,350,500,-2978
1682,-419,-329,1330,234,386,-3318
1683,-407,-196,1316,231,402,-3765
1684,-372,-33,1348,330,562,-4216
1685,-337,89,1378,309,761,-4509
1686,-314,194,1403,205,904,-4607
1687,-299,267,1407,53,918,-4562
1688,-295,316,1370,-66,796,-4421
1689,-303,406,1356,55,636,-4281
1690,-317,501,1359,356,492,-4130
1691,-317,573,1366,695,207,-3775
1692,-308,583,1376,988,-30,-3380
1693,-346,586,1323,973,-114,-3035
1694,-353,588,1284,643,-145,-2882
1695,-384,617,1261,211,-16,-2818
1696,-380,657,1251,-219,232,-2752
1697,-342,737,1247,-476,371,-2552
1698,-268,739,1227,-445,226,-2207
1699,-215,713,1230,-242,-172,-1759
1700,-194,643,1201,-31,-666,-1287
1701,-223,560,1159,-76,-1002,-943
1702,-243,500,1071,-510,-1155,-869
1703,-239,492,1009,-902,-1182,-896
1704,-177,501,923,-55,-1846,-1109
1705,-203,386,959,1020,-1832,-941
1706,-180,287,892,651,-1340,-652
1707,-128,242,875,483,-1329,-490
1708,-101,172,821,725,-1411,-431
1709,-131,174,926,1039,-1465,-181
1710,-188,141,887,576,-1227,-50
1711,-186,133,846,281,-1118,28
1712,-156,99,864,233,-901,96
1713,-181,71,868,344,-719,174
1714,-220,47,918,529,-731,184
1715,-231,34,933,393,-731,92
1716,-215,58,954,299,-770,-50
1717,-168,43,1008,51,-739,-173
1718,-123,80,959,-234,-743,-296
1719,-180,86,988,-455,-651,-388
1720,-168,144,882,-480,-407,-414
1721,-177,163,995,-103,-217,-193
1722,-68,43,1022,98,-170,-226
1723,-95,65,946,350,-432,-171
1724,-123,-17,974,832,-666,-189
1725,-182,-8,1099,494,-67,-357
1726,-267,64,1078,-590,414,-929
1727,-88,109,1075,-1221,589,-1369
1728,-3,202,1026,-1844,781,-908
1729,10,164,1029,-1539,632,-140
1730,-35,50,1044,-1133,252,543
1731,-75,-114,1050,-1197,-299,717
1732,-112,-38,905,-752,-629,733
1733,-172,31,875,-2,-616,655
1734,-7,4,923,227,173,403
1735,-26,-29,1009,96,761,569
1736,-120,-46,1066,-33,810,446
1737,-117,18,1114,-98,492,51
1738,-155,30,1143,8,5,-5
1739,-240,-37,1073,225,-575,-31
1740,-116,68,955,1520,-1491,-316
1741,-164,36,1070,3170,-1622,-158
1742,-180,20,1151,2859,-1004,-99
1743,-107,7,1099,1285,-547,-31
1744,-113,69,1053,463,-442,-64
1745,-66,105,993,55,-432,-39
1746,-51,109,987,256,-424,67
1747,31,147,971,475,-520,241
1748,-1831,1045,1152,877,-797,397
1749,-55,33,987,2861,209,-543
1750,-142,24,1007,2455,-237,-1109
1751,-13,117,907,1430,-168,-1013
1752,-44,92,896,1092,189,-920
1753,-109,103,893,514,582,-791
1754,-100,130,873,160,867,-681
1755,-374,177,617,-240,373,-570
1756,-115,77,1079,-2726,-1245,-353
1757,-54,87,1263,-2373,-540,-224
1758,-180,63,1232,-998,-133,414
1759,-251,98,1202,94,-454,743
1760,110,-47,500,412,191,305
1761,-23,14,423,-3998,1386,-566
1762,-104,62,736,-9117,-77,-1414
1763,-268,71,1068,-9607,511,-1043
1764,-513,-27,1443,-8773,-372,-1298
1765,-183,-245,1550,-5795,-1358,-785
1766,-156,-280,1454,-2031,-1491,-474
1767,-140,-272,1185,344,-1192,-7
1768,-88,-206,1066,608,-629,686
1769,-74,-143,1072,215,-237,1059
1770,-51,-85,1092,55,-186,1010
1771,2,-106,1091,127,-514,489
1772,45,-102,1069,137,-881,-130
1773,41,-106,1081,108,-1190,-646
1774,-43,-143,1104,229,-1186,-865
1775,-105,-162,1142,260,-1067,-775
1776,-129,-171,1133,414,-864,-488
1777,-152,-144,1080,686,-690,-166
1778,-123,-114,1058,713,-596,133
1779,-90,-74,1025,744,-518,372
1780,-75,-49,969,674,-489,491
1781,-27,-9,951,531,-616,473
1782,-23,-18,948,383,-756,414
1783,-2,-34,961,115,-743,377
1784,49,-55,979,-178,-719,319
1785,87,-88,999,-295,-625,258
1786,89,-115,1020,-322,-541,170
1787,74,-121,1036,-207,-457,86
1788,45,-123,1014,-17,-391,38
1789,8,-119,1003,68,-315,36
1790,-28,-94,1025,100,-291,20
1791,-22,-82,1017,156,-309,-56
1792,-17,-56,978,258,-291,-60
1793,-8,-28,954,256,-245,-11
1794,-6,-7,945,182,-161,38
1795,-24,-12,934,82,-147,53
1796,-10,-32,940,-119,-170,57
1797,-17,-61,974,-256,-141,100
1798,6,-77,981,-277,-114,157
1799,1,-109,980,-285,-71,202
1800,21,-113,997,-305,-30,247
1801,-7,-133,991,-174,-28,231
1802,-12,-141,1007,-127,-145,178
1803,10,-122,1019,-14,-151,204
1804,10,-98,977,109,-104,305
1805,10,-80,957,31,-43,387
1806,14,-59,961,-99,46,454
1807,38,-59,949,-193,142,495
1808,35,-67,974,-340,191,461
1809,56,-100,988,-533,166,332
1810,32,-138,1039,-670,44,116
1811,30,-186,1074,-719,-118,-84
1812,16,-188,1104,-588,-149,-121
1813,7,-217,1112,-336,-96,-37
1814,9,-208,1113,-66,35,141
1815,18,-169,1081,152,127,274
1816,40,-137,1069,256,134,297
1817,63,-93,1017,266,89,207
1818,58,-75,982,201,31,67
1819,51,-61,988,61,-43,-89
1820,38,-67,1009,-49,-127,-214