sequence,AccelerometerX,AccelerometerY,AccelerometerZ,GyroscopeX,GyroscopeY,GyroscopeZ
0,108,-22,1017,19,-6,-22
1,102,-26,1009,-10,-8,-10
2,99,-21,1003,-47,-14,5
3,101,-24,990,-77,-24,21
4,94,-19,987,-83,-16,46
5,99,-21,972,-69,-2,46
6,103,-18,981,-53,5,25
7,102,-25,978,-28,25,3
8,87,-35,978,-10,41,0
9,101,-27,979,-12,41,-4
10,94,-21,986,-98,80,25
11,96,-30,989,-61,58,3
12,85,-22,987,-110,105,39
13,92,-22,994,-90,128,56
14,108,-27,1000,-38,132,60
15,109,-45,1007,-12,101,33
16,100,-45,1002,-8,66,11
17,105,-32,1005,-32,42,21
18,101,-33,998,-49,58,37
19,107,-33,1019,-55,89,42
20,100,-27,1011,-61,132,15
21,103,-32,1027,-34,154,-8
22,107,-35,1044,-8,160,-26
23,103,-32,1054,3,146,-30
24,116,-28,1059,-2,89,-36
25,100,-26,1051,-24,33,-26
26,106,-31,1067,-34,9,-8
27,108,-42,1049,-49,0,3
28,109,-37,1049,-57,-16,0
29,106,-31,1040,-69,-14,-12
30,111,-36,1029,-77,-8,-12
31,103,-34,1042,-88,9,-12
32,99,-35,1047,-90,-2,-20
33,112,-25,1043,-90,9,-16
34,117,-22,1051,-92,-14,-20
35,94,-25,1038,-63,-55,7
36,102,-18,1054,-79,-24,5
37,106,-20,1035,-43,-61,25
38,106,-32,1021,-45,-59,15
39,100,-29,1023,-75,-90,-4
40,97,-35,1028,-100,-73,-26
41,95,-36,1009,-96,-79,-18
42,92,-32,1009,-92,-75,-14
43,92,-35,1005,-79,-84,-8
44,98,-44,1005,-102,-94,-22
45,101,-27,1006,-118,-120,-34
46,91,-30,985,-149,-104,-43
47,87,-21,988,-161,-75,-30
48,97,-32,972,-135,-53,-30
49,108,-39,975,-129,-34,-45
50,95,-29,984,-94,-49,-63
51,99,-16,988,-71,-49,-71
52,117,-26,975,-24,-26,-79
53,97,-23,979,-43,-42,-77
54,102,-28,977,-22,-10,-88
55,107,-17,984,1,11,-98
56,109,-20,989,-2,15,-100
57,117,-22,980,-28,15,-92
58,106,-7,973,-73,5,-83
59,99,-1,999,-120,19,-57
60,94,-3,999,-124,42,-26
61,97,-13,1001,-88,80,7
62,102,-14,998,-49,109,17
63,112,-37,996,-12,93,0
64,103,-34,1002,-2,83,-30
65,97,-38,994,-24,87,-42
66,94,-36,990,-81,113,-36
67,103,-38,1000,-127,130,-28
68,102,-35,1005,-143,156,-45
69,110,-27,1011,-124,152,-67
70,111,-27,1032,-67,132,-79
71,107,-24,1050,17,85,-83
72,100,-34,1030,64,58,-71
73,103,-36,1020,58,82,-69
74,100,-41,1030,39,130,-67
75,104,-39,1041,-10,166,-73
76,108,-37,1046,-71,156,-69
77,110,-28,1061,-92,144,-55
78,104,-28,1049,-77,126,-73
79,103,-23,1049,-14,123,-98
80,104,-19,1042,29,138,-108
81,119,-23,1063,7,152,-137
82,115,-26,1091,-55,212,-145
83,130,-11,1129,-157,287,-79
84,169,-8,1138,-276,312,-65
85,174,-15,1183,-292,273,-75
86,191,-8,1256,-211,277,-135
87,192,5,1326,-47,238,-202
88,206,14,1425,156,193,-254
89,230,27,1511,326,91,-288
90,237,39,1602,474,-96,-249
91,260,16,1660,585,-331,-145
92,264,-29,1700,617,-536,-90
93,293,-56,1751,611,-616,-77
94,314,-37,1869,597,-508,-170
95,319,26,2008,650,-317,-434
96,327,102,2048,808,-163,-731
97,337,156,2048,1158,-209,-917
98,346,188,2048,1556,-454,-934
99,356,196,2048,1744,-930,-831
100,311,175,2048,1699,-1750,-586
101,253,147,2048,1376,-2719,-215
102,206,92,2048,888,-3659,193
103,143,34,2048,427,-4381,468
104,56,17,2048,154,-4836,460
105,10,2,2048,25,-5200,361
106,-18,6,2048,50,-5516,285
107,-47,6,2048,218,-5838,134
108,-79,1,2048,480,-6180,-12
109,-142,0,1976,705,-6477,-153
110,-204,3,1871,826,-6766,-235
111,-266,-4,1748,757,-7073,-209
112,-326,-28,1589,480,-7500,-34
113,-383,-52,1382,-34,-8055,267
114,-467,-96,1168,-655,-8584,546
115,-533,-132,929,-1155,-8918,660
116,-576,-168,656,-1475,-9016,607
117,-584,-148,406,-1614,-8918,416
118,-587,-108,161,-1616,-8608,29
119,-552,-76,-83,-1461,-8184,-379
120,-528,5,-352,-1211,-7606,-698
121,-499,114,-654,-1030,-6934,-977
122,-444,253,-965,-961,-6221,-1108
123,-407,397,-1204,-840,-5491,-1204
124,-382,510,-1446,-711,-5077,-1180
125,-333,546,-1726,-561,-4583,-897
126,-312,551,-1886,-73,-3643,-604
127,-275,540,-1951,638,-2395,-442
128,-164,542,-1975,1291,-1108,-333
129,-77,536,-1938,1720,-141,-286
130,-17,560,-1857,1970,417,-161
131,-52,512,-1792,1994,925,64
132,-108,463,-1713,1917,1511,378
133,-164,361,-1588,1833,2167,673
134,-208,249,-1414,1826,2871,847
135,-221,175,-1256,1833,3554,857
136,-257,109,-1058,1814,4130,750
137,-266,72,-869,1707,4564,636
138,-264,44,-704,1404,4847,578
139,-251,-3,-571,949,5005,580
140,-263,-44,-462,417,5123,708
141,-321,-78,-372,-157,5353,910
142,-348,-109,-252,-750,5593,1041
143,-404,-121,-118,-1280,5921,1195
144,-475,-133,56,-1561,6246,1376
145,-505,-167,223,-1616,6556,1500
146,-530,-236,344,-1454,6804,1615
147,-552,-293,476,-1024,6947,1666
148,-581,-312,607,-469,7013,1552
149,-522,-337,758,156,7011,1261
150,-499,-280,911,679,7093,832
151,-550,-282,1062,1007,7386,460
152,-523,-270,1281,1210,7744,185
153,-495,-186,1505,1078,8246,-36
154,-433,-89,1782,707,8673,-165
155,-334,6,2048,386,8738,-186
156,-255,135,2048,50,8466,-34
157,-202,176,2048,-278,7898,300
158,-170,122,2048,-456,7183,800
159,-105,74,2048,-590,6550,1150
160,-30,-4,2048,-770,6060,1296
161,38,-53,2048,-852,5658,1294
162,101,-57,2048,-770,5410,1060
163,210,-9,2048,-606,5166,652
164,286,98,2048,-331,4814,250
165,395,234,2048,103,4294,-77
166,503,318,2048,593,3796,-280
167,546,388,2048,953,3246,-297
168,550,358,2048,886,2150,23
169,542,274,2048,443,486,605
170,506,147,2048,-147,-1311,1046
171,407,55,2048,-674,-2704,1144
172,316,9,2048,-1016,-3940,1146
173,222,-44,2048,-1028,-5102,1029
174,110,-77,2048,-575,-5838,675
175,4,-81,2048,191,-6272,136
176,-63,-80,2048,865,-6674,-360
177,-151,-44,2048,1207,-7020,-698
178,-270,22,2048,1335,-7293,-850
179,-340,56,2048,1292,-7573,-608
180,-403,56,2048,1189,-7903,-266
181,-483,67,2048,1068,-8270,-69
182,-579,77,2048,939,-8655,15
183,-661,59,1933,892,-9086,185
184,-771,41,1675,947,-9448,326
185,-854,-22,1420,1111,-9614,292
186,-877,-46,1164,1259,-9465,111
187,-894,-18,958,1132,-9110,-20
188,-918,-13,807,894,-8872,0
189,-904,-21,628,707,-8721,132
190,-871,3,388,498,-8651,261
191,-849,35,116,273,-8633,335
192,-838,137,-273,87,-8602,285
193,-840,271,-695,-163,-8329,314
194,-894,341,-1112,-329,-7641,517
195,-902,304,-1405,-223,-6821,777
196,-845,175,-1663,25,-5975,960
197,-800,-11,-1792,476,-4868,1052
198,-740,-139,-1790,1128,-3532,826
199,-604,-234,-1656,1794,-2262,185
200,-377,-178,-1592,2181,-1477,-668
201,-217,58,-1701,2044,-1331,-1372
202,-223,316,-1832,1587,-1467,-1500
203,-308,533,-1962,1132,-1290,-1067
204,-346,595,-2048,826,-680,-223
205,-401,515,-2048,773,158,628
206,-467,336,-2048,757,1080,1177
207,-464,168,-2033,769,2119,1386
208,-479,56,-1937,699,3087,1314
209,-495,-52,-1771,500,3808,1136
210,-487,-98,-1638,199,4417,990
211,-516,-140,-1464,-75,4990,847
212,-557,-193,-1277,-254,5550,808
213,-583,-235,-1097,-264,6162,794
214,-658,-231,-867,-178,6687,625
215,-722,-219,-618,-57,7097,447
216,-765,-215,-419,162,7505,460
217,-843,-227,-149,304,7873,490
218,-822,-200,144,142,8298,507
219,-765,-159,521,-176,8882,589
220,-694,-87,884,-465,9435,671
221,-649,-9,1289,-428,9833,679
222,-635,27,1747,201,9984,634
223,-610,21,2048,1339,9992,343
224,-382,64,2048,2177,9896,-77
225,-112,102,2048,1884,9472,-305
226,6,153,2048,714,8585,-22
227,43,172,2048,-627,7533,529
228,72,94,2048,-1551,6691,1048
229,101,36,2048,-1965,5851,1283
230,201,34,2048,-2196,4925,1369
231,302,34,2048,-2045,4150,1255
232,393,-19,2048,-1426,3673,941
233,462,-75,2048,-637,3259,490
234,391,-103,2048,-102,2634,150
235,317,-108,2048,142,1968,-55
236,330,-112,2048,89,1660,-204
237,364,-76,2048,-98,1437,-254
238,383,-44,2048,-424,1013,-297
239,386,16,2048,-704,570,-315
240,385,81,2048,-868,119,-170
241,326,106,1856,-1012,-340,35
242,237,121,1676,-1059,-702,218
243,147,128,1522,-918,-952,404
244,120,83,1346,-555,-1036,566
245,101,1,1207,-43,-903,554
246,124,-57,1123,341,-667,357
247,110,-77,1078,427,-405,72
248,109,-41,1127,373,-120,-245
249,126,-18,1151,292,48,-436
250,138,9,1190,230,-38,-448
251,131,38,1148,187,-385,-438
252,95,45,1078,183,-686,-381
253,61,56,1005,242,-823,-260
254,53,25,958,326,-764,-129
255,60,0,913,367,-678,-55
256,55,-18,904,283,-563,-38
257,70,28,897,87,-444,-40
258,58,45,869,-118,-379,-106
259,50,80,878,-303,-288,-51
260,48,95,897,-356,-178,-98
261,57,95,908,-284,-108,-135
262,58,96,950,-51,-83,-118
263,57,93,958,187,-84,-157
264,62,66,965,330,-122,-200
265,76,75,957,402,-133,-217
266,87,92,964,398,-90,-241
267,94,118,973,341,-32,-278
268,81,137,985,195,-32,-200
269,75,149,1003,5,-71,-47
270,81,148,1000,-243,-108,113
271,94,113,1014,-459,-129,236
272,91,103,1018,-645,-186,318
273,76,71,1015,-756,-249,343
274,90,68,1023,-735,-225,322
275,68,42,1062,-569,-204,261
276,86,36,1047,-385,-145,156
277,104,34,1055,-272,-124,56
278,111,51,1061,-233,-170,-28
279,119,70,1045,-290,-258,-67
280,115,74,1009,-401,-331,-38
281,119,83,998,-450,-399,37
282,125,85,981,-397,-485,130
283,136,72,984,-264,-538,164
284,142,64,965,-102,-510,121
285,134,50,962,83,-399,3
286,128,50,990,281,-250,-137
287,150,58,1007,398,-106,-268
288,171,98,1005,386,31,-321
289,178,124,1033,279,39,-254
290,162,120,1072,119,-22,-55
291,158,118,1092,-59,-88,142
292,141,91,1066,-223,-190,232
293,126,77,1039,-303,-252,300
294,125,39,1024,-243,-284,347
295,116,13,996,-112,-282,339
296,103,-41,955,19,-254,181
297,102,-60,915,148,-127,-6
298,104,-67,928,318,29,-202
299,104,-42,942,447,197,-418
300,117,16,970,501,328,-647
301,126,87,993,521,365,-733
302,126,131,1009,541,318,-700
303,133,167,996,562,218,-553
304,131,187,1001,580,121,-364
305,138,164,1004,564,11,-190
306,127,143,990,466,-92,-24
307,111,100,958,281,-104,115
308,109,81,960,31,-10,220
309,106,61,950,-231,113,207
310,107,58,973,-459,201,179
311,109,70,979,-528,216,171
312,120,79,983,-504,199,128
313,123,80,984,-381,128,54
314,138,89,1001,-159,41,-16
315,133,112,988,44,-12,-79
316,138,123,1021,160,-38,-55
317,129,134,1000,201,-47,-14
318,120,131,1009,166,-47,31
319,109,102,1001,83,-38,125
320,121,85,982,0,52,228
321,134,61,977,-122,132,275
322,132,56,1009,-227,208,271
323,133,55,1060,-276,234,214
324,152,60,1080,-233,183,95
325,149,66,1088,-124,74,15
326,143,99,1067,-16,-49,-49
327,135,102,1019,19,-151,-71
328,118,101,1003,19,-176,-4
329,119,87,977,29,-112,48
330,106,73,983,44,-18,44
331,103,66,991,54,103,1
332,121,62,1015,74,197,-38
333,116,71,1035,48,220,-45
334,125,84,1068,-22,173,-26
335,136,79,1067,-112,78,33
336,145,81,1050,-196,-34,78
337,132,77,1038,-239,-155,93
338,128,75,1042,-215,-223,85
339,103,76,1033,-149,-221,11
340,121,75,1003,-59,-163,-90
341,113,66,983,9,-94,-110
342,123,68,986,25,-67,-122
343,126,66,979,-100,-28,-137
344,112,82,982,-252,-14,-108
345,116,111,988,-334,7,-83
346,130,128,1002,-338,35,-69
347,147,149,1006,-258,-24,-69
348,113,145,997,-153,-129,-10
349,115,137,970,-71,-153,72
350,110,110,970,-4,-127,113
351,120,72,946,35,-86,128
352,103,54,947,41,-22,95
353,109,51,950,52,48,44
354,121,60,979,33,107,0
355,122,44,983,-36,136,-22
356,120,56,1002,-114,150,9
357,116,34,999,-147,126,29
358,121,32,1005,-124,85,29
359,117,24,1021,-61,62,-14
360,128,22,1036,9,33,-49
361,136,31,1015,15,0,-79
362,124,39,1007,-96,-43,-59
363,128,31,1000,-225,-81,21
364,128,22,972,-329,-71,85
365,122,-13,979,-372,-36,107
366,119,-32,972,-317,19,72
367,125,-54,983,-264,91,-10
368,125,-65,996,-202,126,-98
369,133,-73,1028,-125,109,-188
370,133,-74,1028,-98,46,-276
371,115,-86,1021,-104,-22,-305
372,127,-92,981,-129,-59,-303
373,123,-126,1006,-206,-30,-325
374,119,-113,1014,-286,42,-350
375,141,-112,1029,-362,78,-409
376,139,-83,1066,-452,66,-504
377,144,-64,1042,-491,25,-553
378,157,-53,1045,-444,-40,-590
379,145,-56,1027,-442,-73,-618
380,151,-50,1018,-491,-122,-643
381,137,-37,993,-528,-143,-649
382,136,-38,1004,-497,-137,-676
383,129,-23,1014,-436,-81,-709
384,130,-28,1026,-354,-42,-768
385,135,-21,1033,-278,-49,-790
386,129,-26,1028,-202,-69,-831
387,129,-15,1021,-168,-67,-899
388,126,-33,1010,-168,-32,-918
389,130,-20,1042,-151,-12,-942
390,136,-7,1063,-194,9,-1000
391,135,-4,1074,-250,-24,-1016
392,133,40,1082,-299,-94,-1024
393,124,64,1059,-346,-151,-1038
394,115,87,1051,-383,-184,-999
395,113,84,1019,-381,-213,-926
396,100,68,1011,-350,-219,-887
397,102,65,996,-290,-190,-874
398,100,58,980,-194,-172,-879
399,90,51,969,-108,-131,-903
400,99,38,974,-75,-65,-918
401,106,39,1008,-22,-10,-958
402,124,64,1047,3,33,-1047
403,119,90,1082,21,35,-1106
404,123,106,1089,74,-20,-1112
405,127,127,1077,50,-102,-1067
406,110,129,1064,-40,-204,-954
407,91,107,1032,-120,-268,-807
408,96,83,988,-202,-264,-723
409,104,73,965,-266,-213,-700
410,96,66,969,-198,-131,-768
411,97,77,973,-59,-51,-868
412,89,96,997,27,7,-930
413,98,85,998,58,-16,-911
414,104,81,1007,1,-49,-879
415,111,92,1004,-100,-77,-834
416,104,83,999,-163,-100,-792
417,96,87,1004,-147,-120,-790
418,95,81,999,-104,-94,-819
419,109,90,1010,-67,-69,-836
420,114,102,997,-59,-92,-846
421,91,112,1001,-110,-127,-803
422,96,116,986,-163,-145,-733
423,111,109,971,-213,-79,-639
424,113,106,968,-217,-42,-629
425,103,105,984,-172,-34,-651
426,112,97,977,-104,5,-651
427,99,81,1006,-86,-8,-643
428,113,82,1010,-155,-42,-629
429,110,92,991,-307,-67,-616
430,102,103,991,-403,-102,-588
431,98,112,991,-368,-108,-590
432,102,127,991,-258,-67,-608
433,110,116,988,-65,-22,-612
434,109,101,995,107,1,-631
435,102,103,1017,150,5,-635
436,104,91,1017,123,-12,-610
437,98,81,999,31,-30,-577
438,99,81,985,-104,-26,-543
439,98,74,979,-239,-22,-495
440,85,66,971,-282,0,-481
441,96,63,983,-245,48,-510
442,102,90,988,-170,93,-561
443,111,98,1004,-131,93,-586
444,110,109,1002,-137,70,-575
445,105,108,978,-131,52,-526
446,102,112,1013,-75,52,-499
447,100,101,990,-2,87,-514
448,111,99,1024,64,132,-530
449,116,94,1024,125,128,-545
450,107,83,1034,136,93,-524
451,93,73,1024,68,42,-497
452,110,59,1016,-96,-2,-461
453,99,59,1002,-274,-43,-436
454,100,64,980,-342,-36,-444
455,100,78,988,-280,19,-479
456,96,86,1000,-112,85,-542
457,108,98,1015,72,103,-618
458,100,107,1034,150,70,-639
459,90,110,1039,136,39,-596
460,107,110,1011,48,3,-532
461,103,123,979,-108,-30,-489
462,102,125,972,-225,-43,-446
463,99,142,945,-231,-22,-395
464,96,138,948,-149,37,-379
465,95,129,964,-67,111,-393
466,73,129,994,5,173,-413
467,105,133,981,64,210,-403
468,100,131,1003,70,199,-417
469,101,161,1012,29,195,-387
470,97,163,1007,-10,191,-333
471,96,153,1003,-28,183,-280
472,99,161,1010,-40,166,-252
473,91,155,1016,-38,150,-239
474,87,155,1010,-30,144,-233
475,89,160,1023,-42,130,-196
476,83,157,1018,-84,107,-124
477,82,135,1009,-98,101,-86
478,80,121,987,-49,113,-75
479,84,94,995,52,150,-114
480,84,94,1002,132,210,-178
481,84,108,1045,164,244,-223
482,97,130,1064,195,199,-245
483,92,125,1066,173,119,-206
484,90,129,1058,125,46,-145
485,81,110,1045,64,21,-75
486,94,95,1028,-2,23,-40
487,82,101,1023,-57,46,-16
488,83,91,1019,-98,31,1
489,81,79,1008,-125,33,-8
490,87,77,978,-147,54,-45
491,82,81,1007,-139,89,-71
492,87,84,1021,-155,148,-83
493,94,90,1025,-180,169,-92
494,110,116,1030,-192,128,-106
495,101,113,1037,-137,68,-108
496,94,114,1025,-77,25,-81
497,87,127,1028,-28,-14,-77
498,89,117,1009,-20,-18,-75
499,94,101,1016,-20,15,-55
500,90,94,1007,-45,54,-30
501,100,97,999,-122,66,-10
502,91,95,1019,-213,42,9
503,71,94,992,-274,27,9
504,82,98,993,-262,35,15
505,85,108,989,-204,78,11
506,84,100,993,-125,109,5
507,78,96,1001,-55,62,23
508,69,92,987,-6,41,0
509,69,68,1016,13,66,-8
510,74,56,1013,9,128,-28
511,90,65,1048,0,193,-59
512,92,81,1068,35,201,-118
513,93,109,1075,89,171,-145
514,85,111,1083,203,103,-131
515,78,115,1060,322,50,-137
516,78,97,1057,425,54,-141
517,90,69,1085,521,78,-180
518,84,72,1103,541,109,-217
519,89,69,1117,460,115,-258
520,105,89,1119,332,82,-258
521,103,95,1121,177,13,-209
522,93,115,1109,7,-65,-141
523,76,101,1081,-88,-155,-71
524,79,111,1043,-69,-157,-47
525,85,95,1041,-32,-233,-131
526,64,113,1047,62,-243,-186
527,70,115,1024,173,-213,-215
528,69,119,1033,261,-190,-250
529,68,122,1013,277,-215,-223
530,69,110,978,226,-225,-153
531,69,96,969,197,-182,-141
532,68,120,932,212,-145,-163
533,62,126,950,287,-45,-208
534,56,146,980,390,74,-254
535,75,149,1019,357,125,-229
536,74,143,1023,250,130,-139
537,65,140,1065,93,87,-65
538,66,111,1078,-198,205,11
539,70,119,1053,-71,123,-24
540,88,117,1144,-239,255,3
541,107,131,1189,-221,281,-71
542,118,153,1246,-167,291,-129
543,128,181,1277,-129,234,-124
544,104,165,1344,-112,148,-51
545,111,139,1435,-125,148,3
546,175,130,1535,-114,277,-73
547,188,159,1672,132,564,-321
548,233,209,1942,447,767,-651
549,295,347,2048,802,984,-1034
550,311,434,2048,1228,1199,-1317
551,356,560,2048,1851,1255,-1450
552,391,705,2048,2408,1007,-1563
553,392,812,2048,2789,-26,-1364
554,313,829,2048,2710,-1829,-676
555,201,708,2048,2181,-3973,289
556,58,555,2048,1367,-5764,1201
557,-69,412,2048,449,-7086,1789
558,-149,281,2048,-317,-8045,2033
559,-257,169,2048,-668,-8565,1978
560,-330,87,2048,-733,-8764,1658
561,-376,54,1951,-729,-8856,1167
562,-435,44,1739,-641,-9104,828
563,-512,49,1499,-506,-9551,611
564,-599,94,1214,-366,-9985,416
565,-660,122,899,-243,-10395,304
566,-723,171,558,-163,-10774,296
567,-824,319,108,-270,-10956,412
568,-902,487,-442,-756,-10803,707
569,-904,598,-1003,-1420,-10178,1203
570,-852,638,-1419,-1831,-8868,1779
571,-720,643,-1658,-1987,-7067,2210
572,-570,576,-1803,-1897,-5176,2535
573,-502,482,-1850,-1397,-3543,2730
574,-483,278,-1682,-510,-2083,2755
575,-383,116,-1477,505,-1055,2441
576,-262,0,-1286,1123,-432,1890
577,-241,-83,-1186,1583,-161,1388
578,-259,-108,-1098,1994,-133,869
579,-302,-78,-1094,2136,-61,517
580,-338,-63,-1173,2013,146,417
581,-410,-89,-1250,1667,544,478
582,-441,-122,-1346,1207,1029,556
583,-446,-122,-1430,718,1525,558
584,-466,-117,-1519,304,2000,544
585,-488,-84,-1593,-38,2519,564
586,-504,-75,-1592,-270,3191,632
587,-555,-60,-1534,-411,4111,740
588,-584,-56,-1408,-434,5089,781
589,-639,-54,-1209,-211,5986,712
590,-652,-33,-940,162,6800,529
591,-662,-11,-629,533,7511,240
592,-716,-45,-262,835,8076,17
593,-758,-54,126,994,8400,-63
594,-720,-97,513,914,8578,-143
595,-720,-61,888,605,8580,-170
596,-686,21,1220,70,8701,-38
597,-635,60,1542,-366,9181,171
598,-548,58,1839,-432,9634,599
599,-356,29,2048,-334,9714,964
600,-233,0,2048,-270,9449,1027
601,-205,-58,2048,-67,8884,994
602,-130,-91,2048,132,8273,839
603,-80,-120,2048,-61,7710,673
604,-8,-151,2048,-682,7085,728
605,86,-165,2048,-1325,6394,980
606,177,-129,2048,-1663,5613,1181
607,229,-86,2048,-1504,4777,1123
608,351,-24,2048,-866,4255,712
609,413,35,2048,-2,3830,224
610,525,67,2048,396,2957,60
611,601,102,2048,339,1787,39
612,572,127,2048,195,691,23
613,584,127,2048,68,-100,-10
614,640,180,2048,83,-661,-198
615,612,284,2048,187,-1395,-524
616,543,397,2048,406,-2612,-735
617,400,453,2048,699,-3809,-704
618,252,408,2048,861,-4922,-288
619,123,331,2048,853,-5967,232
620,-8,253,2048,673,-6911,525
621,-126,179,2048,578,-7708,742
622,-262,140,2048,695,-8260,703
623,-375,140,2048,914,-8422,476
624,-453,138,2048,1158,-8385,271
625,-535,120,2048,1443,-8485,207
626,-615,74,2048,1755,-8725,201
627,-701,33,1896,2003,-8991,171
628,-771,-19,1678,2125,-9215,179
629,-843,-58,1450,2203,-9319,207
630,-867,-81,1248,2169,-9411,257
631,-912,-97,1034,1968,-9526,421
632,-953,-85,765,1669,-9672,697
633,-994,-125,513,1339,-9821,972
634,-1009,-174,232,960,-9747,1169
635,-1005,-202,-6,496,-9278,1312
636,-980,-194,-232,29,-8629,1292
637,-940,-147,-458,-352,-7930,1058
638,-845,-68,-652,-596,-7338,814
639,-765,22,-918,-711,-6911,716
640,-694,71,-1160,-651,-6571,708
641,-645,131,-1372,-387,-6188,625
642,-590,198,-1588,-83,-5608,523
643,-517,188,-1750,453,-4778,515
644,-450,162,-1843,1275,-3762,503
645,-386,100,-1845,2074,-2594,408
646,-318,34,-1783,2621,-1502,224
647,-259,14,-1686,2675,-661,85
648,-227,24,-1635,2318,-90,35
649,-189,6,-1585,1804,253,78
650,-185,3,-1549,1294,568,207
651,-180,30,-1543,808,933,371
652,-147,48,-1538,490,1373,507
653,-154,46,-1527,486,1849,517
654,-157,26,-1485,605,2339,400
655,-179,36,-1425,599,2896,304
656,-201,57,-1372,443,3474,279
657,-276,64,-1282,185,3976,275
658,-323,31,-1186,-139,4462,375
659,-329,-8,-1088,-465,4949,533
660,-395,-75,-959,-803,5402,730
661,-495,-129,-843,-1114,5804,972
662,-569,-199,-674,-1387,6218,1138
663,-651,-222,-505,-1530,6718,1146
664,-761,-244,-353,-1393,7326,1099
665,-902,-294,-171,-913,8019,972
666,-984,-396,137,-131,8822,759
667,-922,-424,426,750,9486,404
668,-809,-379,753,1593,10248,-59
669,-729,-276,1173,2421,10896,-805
670,-613,-47,1690,3062,11281,-1778
671,-463,203,2048,3312,11597,-2499
672,-280,489,2048,3078,11515,-2743
673,-111,618,2048,2214,10728,-2178
674,105,636,2048,628,9085,-883
675,253,565,2048,-1563,7269,464
676,309,466,2048,-3721,5650,1601
677,389,363,2048,-5059,4609,2589
678,469,196,2048,-5020,3757,3093
679,431,42,2048,-3624,3191,2671
680,377,-73,2048,-1747,2734,1673
681,371,-73,2048,-293,2376,679
682,431,35,2048,250,2113,-67
683,460,195,2048,76,2046,-340
684,458,325,2048,-151,2144,-358
685,440,393,2048,-270,1970,-168
686,423,391,2048,-260,1439,130
687,343,272,2048,-196,781,517
688,259,86,2039,-133,187,863
689,253,-75,1756,-272,-256,1021
690,307,-156,1544,-729,-643,1035
691,289,-156,1381,-1086,-872,796
692,204,-66,1302,-860,-739,414
693,183,-24,1265,-288,-305,25
694,206,10,1303,443,222,-344
695,222,49,1317,917,439,-512
696,168,58,1305,1054,386,-448
697,160,25,1229,904,214,-233
698,170,-47,1094,521,-65,97
699,156,-102,985,54,-321,328
700,101,-105,926,-260,-397,353
701,97,-58,899,-426,-231,246
702,74,6,930,-385,31,78
703,103,25,930,-159,230,-49
704,113,36,929,115,326,-165
705,116,35,967,332,292,-198
706,110,43,993,343,246,-157
707,120,37,984,167,167,-57
708,123,29,986,-16,54,44
709,116,43,977,-69,-47,78
710,96,29,958,-34,-90,58
711,98,44,957,52,-98,-22
712,96,73,930,44,-88,-100
713,102,117,900,-36,-75,-92
714,101,132,905,-69,-55,1
715,98,119,934,-10,-16,58
716,99,105,960,80,95,82
717,115,84,996,136,185,48
718,117,52,1056,167,257,37
719,128,35,1090,193,271,46
720,145,49,1129,167,207,29
721,147,81,1120,48,64,-12
722,123,95,1102,-104,-143,37
723,104,77,1057,-163,-315,128
724,107,50,1017,-235,-336,146
725,113,28,1004,-338,-260,78
726,111,34,1005,-438,-127,-36
727,133,103,1008,-469,11,-155
728,126,157,1001,-442,72,-176
729,117,175,991,-344,42,-47
730,127,155,979,-174,-2,95
731,121,99,978,0,7,138
732,104,70,1001,193,31,109
733,120,31,1036,365,91,72
734,110,-11,1051,357,89,-22
735,116,-12,1093,224,111,-110
736,141,0,1078,-36,89,-155
737,152,44,1066,-313,23,-153
738,136,62,1035,-549,-94,-104
739,138,80,1043,-733,-200,5
740,125,77,1015,-780,-262,39
741,135,80,1005,-727,-327,17
742,120,75,995,-581,-350,-18
743,119,62,995,-360,-323,-45
744,116,22,982,-184,-284,-40
745,98,-17,1003,-129,-237,-12
746,99,-66,1002,-188,-200,15
747,113,-82,1007,-303,-176,0
748,118,-83,1011,-446,-161,-67
749,138,-65,1002,-549,-184,-208
750,141,-11,991,-575,-223,-370
751,120,26,972,-500,-305,-391
752,108,27,953,-321,-325,-344
753,101,11,941,-143,-256,-331
754,116,-6,949,-106,-155,-325
755,121,-8,922,-211,-42,-333
756,124,-13,946,-375,58,-334
757,128,-9,969,-448,150,-338
758,127,-2,991,-424,212,-334
759,137,-17,1023,-348,208,-368
760,145,-8,1035,-270,187,-459
761,142,11,1037,-200,158,-549
762,150,35,1036,-170,72,-588
763,147,47,1031,-178,-16,-583
764,123,52,1003,-188,-65,-545
765,129,56,988,-194,-47,-510
766,111,40,1011,-182,15,-532
767,119,40,1020,-151,72,-547
768,123,46,1046,-159,93,-555
769,138,55,1042,-227,97,-571
770,138,82,1042,-325,87,-561
771,136,99,1030,-411,44,-497
772,127,101,1004,-434,-18,-436
773,116,106,1014,-356,-57,-415
774,108,93,1010,-178,-36,-415
775,98,74,1000,29,21,-440
776,108,64,1010,195,78,-465
777,109,60,1012,283,107,-504
778,116,61,1042,263,119,-504
779,111,61,1049,115,121,-454
780,126,63,1059,-104,101,-379
781,112,43,1066,-295,62,-282
782,118,41,1070,-358,21,-245
783,118,51,1073,-346,-12,-270
784,111,46,1054,-286,-77,-268
785,116,30,1027,-172,-139,-252
786,108,4,998,-100,-159,-266
787,100,-6,993,-75,-129,-280
788,110,-22,999,-49,-73,-331
789,112,-16,997,-36,9,-393
790,114,0,1004,-40,44,-434
791,117,10,1007,-83,33,-420
792,116,0,1010,-118,-2,-383
793,100,-16,987,-151,-57,-333
794,104,-29,987,-172,-81,-317
795,108,-35,963,-159,-77,-342
796,108,-33,976,-149,-51,-362
797,111,-33,995,-190,-38,-362
798,112,-27,983,-258,-40,-370
799,106,-21,979,-309,-43,-379
800,106,-32,968,-303,-14,-424
801,115,-30,972,-213,64,-497
802,117,-6,975,-120,97,-661
803,108,13,1007,-42,156,-772
804,111,27,1021,0,195,-784
805,121,32,1039,5,171,-723
806,126,33,1064,-55,68,-641
807,116,29,1025,-159,-55,-555
808,110,15,1007,-286,-133,-520
809,91,15,971,-375,-104,-524
810,79,12,976,-385,-6,-575
811,103,9,982,-295,107,-647
812,111,25,1011,-176,166,-731
813,109,33,1036,-147,191,-819
814,108,70,1027,-221,205,-844
815,113,99,1051,-295,162,-801
816,114,101,1048,-305,50,-688
817,116,91,1023,-305,-83,-612
818,99,69,1005,-299,-135,-590
819,99,60,986,-278,-88,-565
820,93,72,1009,-235,9,-538
821,103,71,1000,-223,83,-532
822,102,82,990,-233,105,-555
823,105,54,994,-200,93,-530
824,100,62,1008,-137,89,-526
825,104,55,1008,-83,105,-559
826,103,63,1034,-6,107,-571
827,95,53,1038,46,85,-543
828,106,41,1043,31,46,-499
829,107,34,1018,-49,-28,-452
830,103,31,999,-143,-92,-420
831,90,22,969,-204,-96,-393
832,85,15,963,-180,-36,-375
833,95,4,960,-71,62,-422
834,87,3,989,60,164,-542
835,97,-1,1008,162,261,-622
836,112,24,1040,152,314,-667
837,104,36,1046,3,300,-635
838,113,40,1065,-225,226,-530
839,119,44,1064,-440,93,-438
840,118,46,1042,-567,-67,-411
841,90,40,1003,-565,-182,-407
842,84,31,1003,-471,-178,-432
843,73,25,964,-329,-112,-483
844,76,12,973,-184,-18,-547
845,79,4,960,-112,62,-594
846,84,24,972,-112,119,-581
847,87,13,989,-106,158,-569
848,94,52,1012,-86,205,-567
849,98,53,1023,-40,208,-569
850,100,62,1028,44,164,-561
851,87,59,1043,128,121,-557
852,87,68,1050,171,87,-575
853,94,39,1039,117,58,-551
854,81,26,1037,27,46,-497
855,86,24,1022,-79,54,-454
856,74,12,1028,-172,76,-446
857,92,24,1030,-198,80,-483
858,77,22,1036,-145,62,-504
859,81,20,1041,-61,56,-504
860,101,3,1050,-26,62,-522
861,92,13,1036,-71,44,-551
862,89,25,1036,-149,9,-542
863,90,29,1027,-250,-12,-497
864,87,24,1040,-270,-22,-438
865,88,20,1021,-196,-16,-456
866,70,8,1035,-104,19,-547
867,88,23,1045,-26,25,-612
868,81,38,1049,3,-10,-639
869,98,52,1041,-83,-71,-639
870,83,66,1036,-211,-141,-594
871,85,59,1012,-292,-219,-465
872,69,46,973,-284,-239,-381
873,68,21,945,-231,-188,-413
874,56,13,967,-170,-106,-506
875,61,18,977,-149,9,-592
876,75,38,985,-135,101,-606
877,81,47,990,-133,117,-590
878,86,58,994,-137,80,-563
879,92,80,1003,-116,54,-542
880,91,94,993,-90,42,-542
881,78,99,1014,-45,41,-502
882,77,93,1008,-2,41,-473
883,79,107,1008,-12,31,-432
884,64,102,991,-32,19,-383
885,81,83,995,-98,11,-331
886,77,78,966,-196,3,-268
887,75,60,971,-225,19,-231
888,65,66,968,-176,91,-313
889,65,71,978,-71,212,-422
890,75,87,1023,107,296,-481
891,75,88,1060,240,304,-489
892,72,104,1071,236,224,-456
893,85,106,1053,91,115,-364
894,77,91,1042,-120,-2,-239
895,66,89,1016,-266,-51,-112
896,67,91,1006,-278,-18,-69
897,68,92,1016,-221,46,-100
898,69,90,1019,-90,83,-135
899,66,84,1017,50,109,-133
900,68,66,1034,140,146,-135
901,75,40,1038,138,175,-168
902,74,43,1049,33,207,-202
903,67,53,1053,-92,169,-204
904,82,68,1068,-182,107,-163
905,77,63,1063,-213,23,-104
906,75,59,1041,-208,-53,-63
907,75,49,1024,-147,-100,-65
908,69,27,1014,1,-84,-122
909,73,47,1017,126,-28,-188
910,72,65,1044,158,23,-217
911,74,81,1030,93,23,-163
912,80,73,1020,5,-14,-63
913,66,42,990,-47,-42,-10
914,70,41,1006,-120,-10,-22
915,70,43,1012,-182,37,-53
916,75,50,1030,-133,70,-63
917,73,50,1040,-71,66,-104
918,64,44,1050,58,17,-165
919,71,64,1032,107,-4,-159
920,74,69,1023,126,-36,-168
921,76,74,1042,136,-30,-153
922,74,79,1042,193,11,-163
923,96,94,1068,289,64,-241
924,99,117,1100,390,82,-301
925,100,141,1143,494,91,-319
926,112,155,1179,580,107,-315
927,132,166,1196,556,160,-311
928,157,209,1280,435,244,-311
929,178,232,1342,310,335,-309
930,226,246,1473,275,455,-252
931,307,234,1649,275,673,-206
932,346,259,1974,218,970,-245
933,381,273,2048,292,1300,-432
934,348,322,2048,521,1638,-649
935,407,366,2048,742,1808,-776
936,441,372,2048,876,955,-633
937,431,325,2048,705,-592,-208
938,353,235,2048,462,-2698,285
939,191,130,2048,107,-4792,742
940,-6,-8,2048,-215,-6192,1041
941,-112,-143,2048,-586,-7217,1279
942,-190,-249,2048,-889,-7918,1234
943,-277,-281,1939,-1206,-8385,935
944,-348,-242,1584,-1536,-8721,544
945,-419,-166,1220,-1778,-9022,199
946,-497,-40,796,-1946,-9334,82
947,-500,112,342,-2057,-9542,44
948,-528,275,-145,-1942,-9333,-65
949,-542,395,-605,-1528,-8653,-190
950,-511,517,-955,-913,-7309,-264
951,-478,602,-1127,-290,-5434,-202
952,-455,627,-1119,179,-3586,146
953,-426,573,-1103,330,-2239,708
954,-443,435,-1080,484,-1264,1228
955,-419,269,-1032,777,-686,1562
956,-373,92,-993,1023,-448,1699
957,-331,-56,-947,1125,-549,1601
958,-349,-175,-925,1029,-717,1373
959,-352,-210,-940,814,-786,1025
960,-363,-189,-914,527,-590,710
961,-354,-147,-957,199,-202,507
962,-341,-93,-993,-45,330,197
963,-358,-5,-995,-208,1064,-127
964,-388,194,-936,-258,1894,-354
965,-397,311,-877,-223,2720,-200
966,-400,325,-788,-71,3480,347
967,-366,226,-626,89,4173,939
968,-310,110,-454,125,4833,1248
969,-292,20,-236,210,5320,1136
970,-355,20,2,412,5753,875
971,-395,6,276,755,6376,615
972,-393,-29,560,1386,7156,275
973,-363,-23,931,1962,7939,-92
974,-267,15,1337,2148,8558,-360
975,-139,81,1756,1994,8835,-479
976,29,131,2048,1593,8605,-381
977,140,186,2048,1111,7933,-155
978,241,201,2048,644,6970,224
979,363,180,2048,224,5958,681
980,466,126,2048,-219,4859,1103
981,511,66,2048,-754,3648,1500
982,559,-11,2048,-1252,2615,1707
983,577,-82,2048,-1547,1960,1644
984,618,-142,2048,-1508,1496,1443
985,684,-178,2048,-633,574,765
986,664,-180,2048,-1176,1089,1119
987,702,-156,2048,-168,-96,400
988,661,-92,2048,101,-895,117
989,589,-54,2048,105,-1834,54
990,546,-47,2048,-24,-2881,128
991,464,-11,2048,-202,-3856,107
992,381,-13,2048,-237,-4717,42
993,308,-4,2048,-108,-5288,-24
994,272,-6,2048,25,-5651,-114
995,201,-2,2024,117,-5875,-198
996,117,1,1840,54,-6032,-190
997,74,-18,1657,-32,-6139,-112
998,22,0,1503,-143,-6200,-83
999,-13,20,1303,-340,-6301,-32
1000,-51,47,1133,-551,-6485,66
1001,-105,92,907,-684,-6665,167
1002,-161,111,671,-723,-6805,244
1003,-243,75,453,-602,-6825,267
1004,-304,83,237,-420,-6608,250
1005,-347,89,22,-258,-6276,189
1006,-382,168,-185,-331,-5913,125
1007,-410,226,-363,-643,-5579,224
1008,-414,279,-555,-928,-5172,468
1009,-401,318,-718,-1073,-4661,666
1010,-373,340,-880,-1053,-4047,849
1011,-381,339,-1006,-854,-3485,960
1012,-416,312,-1101,-495,-2866,1080
1013,-454,305,-1166,44,-2057,1126
1014,-487,234,-1191,605,-1100,1087
1015,-486,201,-1167,1074,-137,941
1016,-466,198,-1124,1359,875,794
1017,-446,180,-1044,1525,1837,732
1018,-382,157,-976,1595,2648,763
1019,-350,131,-958,1507,3228,792
1020,-333,109,-885,1347,3613,847
1021,-371,77,-793,1246,3890,906
1022,-420,53,-714,1160,4250,937
1023,-470,-32,-594,1031,4744,955
1024,-480,-116,-410,970,5363,1015
1025,-414,-178,-160,869,6054,1013
1026,-361,-245,123,757,6628,908
1027,-344,-313,520,718,7251,767
1028,-271,-346,977,824,7931,568
1029,-113,-281,1452,1019,8451,203
1030,96,-112,1905,1150,8380,-235
1031,228,-22,2048,1175,7582,-358
1032,293,83,2048,1132,6560,-124
1033,279,63,2048,902,5851,214
1034,342,-8,2048,500,5423,673
1035,451,-120,2048,-88,4902,1099
1036,507,-159,2048,-862,4218,1308
1037,543,-177,2048,-1487,3408,1464
1038,500,-163,2048,-1749,2652,1501
1039,478,-152,2048,-1622,2062,1414
1040,441,-148,2048,-1292,1544,1267
1041,403,-168,2048,-874,1091,1042
1042,398,-169,2048,-422,765,753
1043,386,-135,1956,-10,527,425
1044,361,-133,1859,228,382,214
1045,346,-133,1785,310,240,91
1046,336,-98,1706,271,52,-4
1047,285,-99,1611,140,-200,-10
1048,211,-98,1519,-8,-471,117
1049,180,-113,1400,-215,-674,197
1050,195,-93,1259,-422,-786,179
1051,202,-40,1144,-542,-877,134
1052,178,18,1058,-510,-879,85
1053,149,35,984,-307,-756,70
1054,103,-3,990,64,-508,58
1055,109,-29,1023,453,-258,-24
1056,111,-22,1058,574,-112,-86
1057,135,-24,1058,449,-135,-84
1058,121,-40,1040,205,-293,29
1059,115,-38,996,-57,-432,136
1060,98,-44,932,-278,-536,236
1061,84,-56,893,-333,-579,328
1062,55,-72,869,-211,-483,292
1063,30,-90,856,48,-243,136
1064,56,-75,888,335,52,-10
1065,81,-52,913,507,300,-165
1066,93,-21,992,558,435,-172
1067,117,-11,1023,525,421,-81
1068,127,-19,1021,378,240,27
1069,106,-42,1020,136,-6,152
1070,89,-71,994,-108,-170,246
1071,84,-96,987,-307,-204,185
1072,95,-119,986,-424,-170,74
1073,84,-109,988,-424,-98,-86
1074,82,-70,1019,-307,0,-264
1075,99,-15,1045,-168,46,-405
1076,98,31,1034,-137,7,-430
1077,80,54,1010,-215,-45,-276
1078,106,71,979,-333,-81,-51
1079,114,75,955,-454,-147,93
1080,111,80,911,-475,-176,214
1081,95,69,914,-331,-155,304
1082,98,31,919,-167,-55,314
1083,108,-29,927,-47,13,201
1084,107,-27,940,-59,123,87
1085,108,-34,965,-114,208,-12
1086,115,-23,991,-163,281,-83
1087,128,-21,1020,-170,294,-84
1088,140,-12,1058,-125,212,-71
1089,140,-22,1075,-55,105,-75
1090,147,-18,1076,60,3,-120
1091,128,-40,1067,193,-69,-159
1092,130,-10,1037,269,-116,-227
1093,127,16,1011,156,-129,-272
1094,123,8,988,25,-120,-180
1095,129,-8,971,-57,-49,-42
1096,133,-25,988,-143,62,9
1097,118,-34,1004,-200,154,21
1098,120,-40,1019,-233,187,56
1099,113,-77,1036,-200,166,60
1100,119,-99,1062,-106,150,42
1101,117,-112,1052,35,107,-34
1102,128,-125,1077,177,60,-159
1103,126,-98,1077,253,52,-307
1104,129,-79,1091,240,9,-368
1105,135,-59,1090,95,-77,-360
1106,137,-41,1037,-118,-198,-297
1107,119,-38,1005,-290,-293,-206
1108,109,-47,945,-393,-288,-116
1109,109,-52,928,-399,-202,-90
1110,118,-64,950,-327,-63,-153
1111,118,-71,962,-178,101,-282
1112,134,-43,989,0,220,-428
1113,138,-28,1009,99,271,-481
1114,134,-14,1031,156,232,-456
1115,139,-23,1064,103,150,-407
1116,130,-24,1058,-2,21,-346
1117,129,-38,1013,-96,-108,-272
1118,108,-53,1000,-170,-165,-247
1119,98,-69,981,-196,-137,-235
1120,105,-95,970,-192,-59,-239
1121,105,-116,983,-167,-6,-297
1122,100,-142,985,-137,42,-395
1123,100,-139,987,-125,80,-487
1124,102,-146,980,-127,113,-588
1125,98,-118,988,-141,134,-627
1126,111,-102,1015,-206,154,-618
1127,133,-74,1021,-282,123,-624
1128,118,-67,1019,-299,23,-608
1129,111,-58,1019,-219,-57,-596
1130,108,-43,1003,-100,-77,-647
1131,109,-57,988,-10,-96,-668
1132,99,-54,981,33,-67,-694
1133,104,-61,993,-8,13,-719
1134,109,-44,1012,-104,62,-717
1135,111,-18,1022,-243,62,-717
1136,113,3,1024,-379,50,-745
1137,120,12,1024,-399,23,-752
1138,102,18,1029,-317,-16,-739
1139,119,37,1019,-219,5,-750
1140,103,39,1038,-141,15,-749
1141,98,34,1032,-92,25,-749
1142,116,29,1035,-124,-2,-723
1143,104,32,1020,-196,-55,-668
1144,106,49,1001,-252,-83,-627
1145,110,73,969,-266,-73,-627
1146,102,71,971,-190,-75,-606
1147,91,78,1004,-59,-14,-575
1148,104,60,1004,50,97,-577
1149,109,67,1012,85,171,-606
1150,119,68,1049,72,160,-555
1151,120,40,1069,39,109,-487
1152,118,43,1067,-14,50,-479
1153,115,36,1067,-67,3,-475
1154,109,34,1035,-59,-38,-456
1155,103,40,1046,-57,-73,-481
1156,92,56,1024,-106,-81,-489
1157,96,62,1018,-118,-71,-424
1158,96,46,1012,-120,-45,-344
1159,96,29,1003,-114,-14,-334
1160,78,30,1022,-116,41,-362
1161,96,15,1025,-73,105,-452
1162,110,26,1054,-8,148,-538
1163,112,49,1063,46,95,-551
1164,116,51,1066,48,0,-506
1165,110,52,1036,9,-110,-430
1166,99,46,1014,-24,-135,-354
1167,100,25,1008,-12,-77,-334
1168,117,33,1017,19,-16,-360
1169,107,35,1030,83,-38,-422
1170,90,30,1052,93,-32,-430
1171,108,29,1029,41,-75,-381
1172,96,14,1019,-92,-129,-288
1173,90,-2,980,-227,-163,-209
1174,98,-6,983,-301,-131,-209
1175,104,-15,987,-276,-100,-288
1176,105,11,1004,-157,-77,-385
1177,108,33,1019,25,-61,-459
1178,116,52,1035,158,-67,-440
1179,109,38,1008,154,-106,-389
1180,111,19,999,37,-149,-293
1181,109,7,981,-75,-176,-227
1182,111,-9,960,-143,-143,-231
1183,106,-11,969,-129,-75,-278
1184,92,3,974,-43,3,-311
1185,110,7,1008,15,64,-346
1186,107,23,1009,-43,46,-327
1187,120,19,1013,-182,-2,-243
1188,99,13,992,-303,-26,-176
1189,107,1,979,-327,-28,-174
1190,116,4,972,-249,-28,-219
1191,112,16,990,-145,-6,-297
1192,116,26,995,-22,9,-358
1193,123,29,1019,66,21,-374
1194,127,29,1013,60,25,-385
1195,110,29,1011,-49,44,-364
1196,117,29,1005,-137,35,-290
1197,109,12,991,-198,15,-237
1198,115,18,990,-211,25,-241
1199,99,18,991,-170,54,-239
1200,99,3,985,-96,83,-292
1201,96,-5,1003,-10,105,-336
1202,92,2,1006,54,150,-334
1203,102,5,1012,46,146,-303
1204,101,2,1009,-16,126,-274
1205,99,10,1004,-94,123,-270
1206,109,16,1011,-163,105,-264
1207,110,3,987,-192,62,-278
1208,98,31,993,-114,19,-286
1209,93,18,978,-53,68,-303
1210,104,9,987,-30,183,-352
1211,113,15,1015,23,236,-377
1212,102,25,1031,17,224,-393
1213,110,43,1038,-12,208,-417
1214,117,44,1041,-40,169,-401
1215,103,44,1040,-49,105,-348
1216,96,49,1041,-26,41,-321
1217,106,50,1036,29,3,-321
1218,91,27,1019,101,-8,-342
1219,94,31,1026,158,37,-374
1220,102,50,1028,164,97,-440
1221,91,80,1047,89,125,-424
1222,79,89,1040,0,113,-342
1223,89,92,1059,-114,107,-256
1224,91,116,1039,-186,105,-211
1225,77,122,1038,-200,154,-206
1226,95,151,1056,-92,205,-208
1227,130,162,1069,107,261,-252
1228,132,174,1108,414,314,-313
1229,146,193,1137,750,404,-393
1230,154,202,1195,1005,537,-499
1231,159,212,1280,1144,712,-598
1232,187,204,1392,1123,925,-643
1233,182,198,1543,996,1087,-625
1234,210,199,1716,695,1070,-559
1235,240,204,1877,193,884,-420
1236,291,201,2013,-583,519,-84
1237,327,203,2048,-1450,177,304
1238,392,251,2048,-1639,35,396
1239,456,295,2048,-989,5,85
1240,470,340,2048,283,33,-420
1241,436,352,2048,1755,-30,-807
1242,401,296,2048,2783,-411,-909
1243,334,210,2048,3033,-1290,-784
1244,264,113,2048,2552,-2532,-413
1245,171,48,2048,1699,-4026,146
1246,75,-43,2048,910,-5497,667
1247,-34,-121,2048,390,-6534,908
1248,-131,-189,2048,179,-7235,890
1249,-200,-234,2048,183,-7909,697
1250,-300,-235,2048,234,-8579,404
1251,-359,-244,1884,281,-9194,154
1252,-421,-215,1669,208,-9725,-73
1253,-484,-131,1438,25,-10088,-272
1254,-520,-47,1193,-292,-10471,-338
1255,-548,18,932,-639,-10846,-266
1256,-567,68,700,-879,-11022,-155
1257,-617,139,479,-840,-10825,-94
1258,-631,168,276,-668,-10374,-108
1259,-622,236,-15,-602,-9901,-153
1260,-644,309,-314,-733,-9645,-108
1261,-720,367,-564,-883,-9290,95
1262,-787,436,-820,-1110,-8735,322
1263,-776,451,-1045,-1352,-8079,664
1264,-697,447,-1291,-1483,-7346,1091
1265,-644,440,-1443,-1401,-6352,1375
1266,-596,348,-1519,-1002,-5161,1519
1267,-578,285,-1532,-459,-4010,1519
1268,-559,213,-1536,123,-3010,1408
1269,-559,152,-1538,603,-2139,1162
1270,-564,141,-1572,847,-1405,867
1271,-588,121,-1592,878,-747,611
1272,-619,161,-1594,802,17,439
1273,-652,223,-1535,568,884,365
1274,-659,276,-1449,332,1839,453
1275,-661,334,-1372,236,2787,716
1276,-654,347,-1297,236,3599,1076
1277,-668,338,-1191,265,4250,1382
1278,-676,281,-1082,322,4921,1593
1279,-676,218,-936,416,5625,1732
1280,-682,139,-799,517,6197,1792
1281,-688,33,-683,585,6710,1896
1282,-769,-106,-504,658,7232,1966
1283,-806,-232,-283,703,7818,1841
1284,-808,-279,-34,501,8423,1482
1285,-826,-297,236,224,9072,1113
1286,-815,-282,524,128,9728,873
1287,-758,-244,802,439,10519,716
1288,-691,-157,1139,1246,11417,455
1289,-524,-76,1570,2125,12091,-63
1290,-394,-60,2048,2843,12505,-690
1291,-244,-38,2048,3105,12636,-1012
1292,-38,-63,2048,2771,12121,-889
1293,242,3,2048,1988,10824,-543
1294,380,85,2048,910,9029,44
1295,432,104,2048,-192,7105,703
1296,541,120,2048,-1073,5794,1224
1297,618,57,2048,-1594,4951,1826
1298,687,-127,2048,-1680,4240,2173
1299,736,-318,2048,-1348,3740,2025
1300,868,-399,2048,-672,3359,1423
1301,960,-355,2048,207,2957,396
1302,1009,-199,2048,857,2382,-627
1303,1025,37,2048,1265,1509,-1084
1304,1009,183,2048,1269,335,-1249
1305,973,332,2048,984,-1022,-1153
1306,801,402,2048,509,-2711,-700
1307,619,342,2048,97,-4448,-49
1308,484,278,2048,21,-5475,361
1309,405,130,2048,132,-6362,609
1310,306,-9,2048,390,-7108,623
1311,170,-97,2048,611,-7596,386
1312,34,-128,2048,613,-7907,119
1313,-79,-117,2048,427,-8202,9
1314,-216,-133,2048,287,-8596,80
1315,-315,-179,2048,216,-9020,171
1316,-419,-203,1817,183,-9356,121
1317,-504,-226,1580,107,-9512,-120
1318,-601,-216,1345,50,-9633,-194
1319,-645,-181,1066,19,-9729,-118
1320,-706,-175,815,-92,-9780,21
1321,-731,-159,579,-211,-9774,146
1322,-757,-124,343,-399,-9717,121
1323,-777,-55,71,-737,-9596,111
1324,-791,33,-206,-1061,-9319,177
1325,-752,177,-440,-1280,-8762,240
1326,-739,312,-695,-1297,-8051,236
1327,-721,379,-911,-1167,-7438,224
1328,-705,426,-1101,-944,-6852,310
1329,-687,450,-1264,-641,-6112,392
1330,-657,428,-1343,-161,-5188,322
1331,-625,361,-1364,359,-4157,193
1332,-587,303,-1369,875,-3147,111
1333,-540,244,-1338,1238,-2280,15
1334,-458,240,-1360,1226,-1627,-77
1335,-415,245,-1413,896,-1194,-42
1336,-412,251,-1408,585,-778,128
1337,-417,265,-1387,427,-213,275
1338,-416,249,-1317,365,500,412
1339,-386,243,-1236,306,1228,507
1340,-325,283,-1188,310,1863,550
1341,-272,312,-1193,453,2419,580
1342,-264,349,-1133,753,2927,486
1343,-286,340,-1049,1179,3453,386
1344,-276,313,-977,1500,4078,417
1345,-273,284,-850,1646,4726,429
1346,-322,239,-675,1675,5357,400
1347,-364,153,-513,1537,5982,521
1348,-400,82,-356,1294,6642,734
1349,-442,-8,-176,849,7355,1000
1350,-461,-115,26,175,8177,1304
1351,-445,-217,263,-395,9052,1597
1352,-399,-257,565,-657,9779,1689
1353,-342,-214,916,-647,10259,1537
1354,-242,-123,1194,-317,10412,1216
1355,-148,-61,1399,283,10115,878
1356,-124,-94,1624,863,9697,798
1357,-85,-164,1815,1205,9320,914
1358,28,-244,2040,1181,8921,990
1359,109,-287,2048,996,8515,958
1360,245,-262,2048,687,7996,792
1361,349,-209,2048,240,7302,728
1362,360,-187,2048,-178,6433,847
1363,405,-161,2048,-506,5560,1044
1364,435,-144,2048,-758,4832,1144
1365,426,-146,2048,-823,4187,1138
1366,447,-130,2048,-641,3628,1064
1367,456,-108,2048,-348,3218,880
1368,463,-76,2048,-147,2923,732
1369,480,-48,2048,-90,2644,673
1370,512,-46,2048,-182,2300,648
1371,519,-33,2048,-458,1980,679
1372,442,-15,2048,-657,1617,712
1373,369,-21,2017,-631,1369,742
1374,317,-77,1953,-424,1164,710
1375,268,-131,1875,-194,880,572
1376,248,-189,1765,-6,531,457
1377,308,-204,1623,111,181,314
1378,345,-146,1520,105,-49,103
1379,308,-47,1452,101,-69,-172
1380,244,34,1422,236,13,-286
1381,212,71,1430,468,60,-174
1382,197,52,1407,689,21,-59
1383,177,10,1360,707,-137,1
1384,156,-29,1315,556,-340,56
1385,120,-72,1222,341,-538,150
1386,117,-120,1134,126,-696,279
1387,107,-162,1066,-57,-749,335
1388,103,-162,1029,-208,-670,244
1389,90,-100,971,-317,-512,56
1390,79,-60,975,-352,-362,3
1391,81,-41,977,-194,-295,-12
1392,93,-44,959,7,-295,-53
1393,84,-48,974,111,-286,-63
1394,106,-70,962,123,-301,-10
1395,126,-117,965,70,-413,52
1396,115,-131,956,-69,-491,72
1397,125,-101,935,-237,-459,29
1398,101,-94,932,-374,-440,15
1399,99,-84,930,-395,-407,-24
1400,90,-72,916,-333,-325,-131
1401,87,-64,925,-247,-206,-241
1402,111,-64,934,-149,-108,-252
1403,152,-46,934,-159,-26,-256
1404,149,-26,924,-239,3,-249
1405,143,13,936,-336,15,-188
1406,144,41,941,-370,11,-143
1407,142,35,929,-362,-67,-98
1408,131,16,930,-329,-120,-28
1409,133,-6,944,-258,-108,-40
1410,128,3,977,-159,-63,-75
1411,144,15,1009,-55,-6,-65
1412,152,1,1009,35,35,-75
1413,146,8,997,132,-10,-127
1414,141,25,991,95,-24,-172
1415,147,29,966,-22,0,-153
1416,147,33,968,-112,52,-98
1417,164,26,989,-139,130,-53
1418,174,45,1031,-57,160,-61
1419,152,11,1076,115,134,-51
1420,151,1,1100,218,91,-36
1421,150,-17,1091,189,66,-16
1422,158,-29,1076,37,56,7
1423,169,-42,1051,-194,-12,42
1424,154,-42,1035,-370,-110,52
1425,137,-27,1018,-379,-135,13
1426,117,-13,1040,-235,-88,-34
1427,128,-33,1049,27,7,-81
1428,129,-43,1050,275,39,-149
1429,126,-63,1053,439,27,-184
1430,137,-82,1042,546,0,-237
1431,151,-80,1036,566,-22,-323
1432,172,-31,1042,466,-147,-479
1433,170,-45,1043,554,-55,-434
1434,163,-14,1059,269,-208,-399
1435,173,18,1072,3,-174,-309
1436,171,27,1072,-268,-157,-180
1437,176,34,1058,-450,-176,-14
1438,161,26,1034,-536,-237,103
1439,145,10,1024,-551,-299,193
1440,142,-50,1005,-522,-344,158
1441,139,-64,959,-407,-342,66
1442,162,-55,957,-227,-352,-100
1443,150,-62,941,-63,-334,-319
1444,137,-43,948,115,-274,-428
1445,157,-5,970,337,-196,-504
1446,168,10,981,423,-135,-534
1447,158,4,979,347,-131,-502
1448,153,19,988,144,-168,-383
1449,153,16,964,-94,-231,-239
1450,153,-6,935,-282,-264,-122
1451,142,-3,960,-381,-239,-77
1452,146,-12,935,-368,-163,-96
1453,150,-11,948,-231,-71,-147
1454,154,-27,957,-77,9,-211
1455,152,-38,986,-26,74,-262
1456,151,-55,984,-83,95,-272
1457,151,-90,994,-215,89,-254
1458,161,-104,1009,-387,72,-235
1459,165,-98,1022,-508,29,-272
1460,157,-94,1023,-495,-47,-344
1461,163,-67,1027,-372,-90,-461
1462,159,-14,1043,-235,-157,-569
1463,160,-11,1007,-198,-206,-569
1464,170,14,994,-204,-219,-499
1465,163,17,980,-229,-209,-461
1466,162,-4,979,-227,-167,-448
1467,144,12,961,-208,-90,-465
1468,162,-2,959,-204,-43,-477
1469,159,-3,941,-213,15,-475
1470,171,6,964,-213,74,-469
1471,191,20,962,-249,105,-467
1472,180,34,987,-245,89,-477
1473,178,54,1008,-161,72,-479
1474,181,48,1026,-42,101,-469
1475,179,51,1038,103,128,-469
1476,188,41,1037,138,89,-440
1477,171,33,1033,21,44,-372
1478,161,20,1023,-125,9,-274
1479,159,-15,1026,-227,7,-213
1480,157,-23,1016,-297,19,-213
1481,160,-23,1021,-293,21,-288
1482,168,-17,1028,-213,23,-364
1483,166,-7,1034,-79,33,-418
1484,168,5,1012,-14,27,-440
1485,178,-9,1017,-59,-6,-397
1486,188,-21,1020,-112,-53,-358
1487,167,-13,998,-139,-43,-334
1488,161,-7,1014,-135,-2,-348
1489,169,-9,1025,-127,42,-381
1490,177,-19,1051,-149,31,-368
1491,164,-8,1049,-209,-30,-358
1492,163,2,1037,-290,-96,-342
1493,168,-4,1016,-301,-131,-323
1494,159,-8,1027,-225,-141,-338
1495,149,1,989,-102,-135,-375
1496,155,-21,988,-16,-96,-395
1497,155,-24,967,7,-55,-420
1498,149,-31,979,-42,-38,-422
1499,155,-29,991,-163,-16,-430
1500,161,-15,986,-280,5,-415
1501,150,11,971,-297,27,-424
1502,159,17,1002,-227,52,-467
1503,151,31,1021,-141,80,-479
1504,171,37,1025,-53,76,-483
1505,175,46,1038,7,9,-465
1506,161,28,1020,21,-61,-401
1507,150,3,994,-2,-90,-350
1508,162,-1,990,-53,-61,-317
1509,153,-11,1005,-110,-42,-297
1510,169,-13,997,-153,-51,-288
1511,166,-7,990,-159,-65,-350
1512,147,-8,983,-167,-40,-432
1513,141,12,993,-149,19,-436
1514,150,17,982,-104,70,-407
1515,167,22,1004,-100,74,-372
1516,165,18,1006,-90,66,-352
1517,174,12,999,-67,48,-375
1518,163,16,1004,-59,42,-375
1519,154,15,993,-20,44,-374
1520,151,6,1009,-16,64,-381
1521,152,4,1009,-57,89,-366
1522,142,11,1005,-112,97,-338
1523,169,5,1014,-137,66,-344
1524,167,0,1013,-139,-6,-348
1525,154,-10,986,-114,-59,-315
1526,150,-15,984,-55,-26,-317
1527,150,-28,969,3,46,-362
1528,133,-42,985,17,85,-407
1529,155,-22,1006,1,99,-440
1530,160,-7,1007,-24,72,-430
1531,174,-3,1010,-102,23,-426
1532,169,-14,993,-163,-8,-440
1533,158,-15,993,-182,-2,-436
1534,157,-9,1000,-147,19,-459
1535,143,-2,994,-81,58,-481
1536,149,0,1021,0,85,-506
1537,158,5,1035,72,109,-508
1538,182,7,1023,121,99,-489
1539,179,6,1018,87,46,-473
1540,155,-3,1027,68,15,-471
1541,159,-7,1018,72,42,-469
1542,161,-23,1019,111,85,-483
1543,153,-27,1010,130,138,-534
1544,150,-25,1044,93,140,-553
1545,154,-15,1065,21,132,-559
1546,140,7,1056,-77,105,-540
1547,162,18,1037,-200,37,-479
1548,150,9,1023,-254,-51,-403
1549,145,-11,990,-239,-110,-377
1550,132,-3,963,-202,-92,-409
1551,146,-8,957,-149,-38,-467
1552,134,-6,980,-75,0,-524
1553,136,20,987,-49,33,-573
1554,146,24,983,-10,50,-610
1555,142,9,969,27,48,-612
1556,148,22,988,64,48,-604
1557,159,22,1005,89,76,-622
1558,154,56,1000,35,87,-622
1559,160,70,1012,-83,62,-551
1560,144,76,1009,-204,27,-434
1561,144,61,984,-305,-2,-340
1562,133,55,964,-356,-30,-303
1563,137,49,961,-342,-28,-315
1564,122,25,963,-252,15,-370
1565,127,13,951,-149,91,-448
1566,133,15,975,-67,166,-532
1567,138,32,1016,5,210,-608
1568,140,64,1027,52,228,-659
1569,146,99,1043,64,218,-627
1570,160,108,1056,58,164,-559
1571,166,126,1059,37,64,-485
1572,155,112,1022,37,-6,-411
1573,136,103,1025,85,1,-368
1574,135,90,1030,125,91,-333
1575,134,75,1048,117,175,-311
1576,134,73,1060,52,201,-295
1577,152,61,1058,0,177,-268
1578,149,57,1045,7,125,-282
1579,143,54,1057,39,97,-305
1580,136,60,1057,89,115,-331
1581,137,78,1095,177,150,-358
1582,147,90,1117,232,125,-358
1583,149,92,1118,189,21,-307
1584,145,87,1096,44,-118,-202
1585,144,68,1050,-127,-237,-96
1586,122,57,1019,-247,-276,-30
1587,121,49,993,-233,-227,-40
1588,123,53,988,-125,-145,-129
1589,116,58,1002,13,-69,-225
1590,127,77,1003,123,-10,-301
1591,133,93,1024,146,11,-346
1592,138,115,1046,89,-14,-344
1593,148,137,1020,13,-71,-268
1594,142,141,1007,-2,-153,-174
1595,134,121,997,62,-182,-124
1596,126,124,971,158,-118,-131
1597,125,123,980,248,-10,-145
1598,138,130,981,304,68,-149
1599,145,135,1017,279,93,-141
1600,161,157,1024,261,113,-137
1601,160,157,1047,285,121,-108
1602,179,148,1112,296,136,-94
1603,156,159,1152,357,152,-116
1604,187,168,1206,468,199,-131
1605,207,179,1285,666,232,-231
1606,231,208,1358,894,279,-338
1607,264,231,1437,1093,318,-440
1608,293,296,1501,1205,386,-481
1609,321,350,1566,1146,365,-418
1610,340,369,1713,933,283,-202
1611,380,403,1872,634,224,-18
1612,374,483,2048,167,160,189
1613,421,519,2048,-393,-86,583
1614,461,491,2048,-489,-362,818
1615,446,441,2048,-280,-614,890
1616,461,359,2048,281,-983,847
1617,455,279,2048,1160,-1325,550
1618,455,274,2048,1986,-1817,154
1619,416,290,2048,2410,-2440,-157
1620,332,340,2048,2552,-3325,-231
1621,232,365,2048,2291,-4372,72
1622,118,344,2048,1667,-5461,603
1623,14,253,2048,966,-6483,1148
1624,-104,184,2048,373,-7229,1525
1625,-197,88,1948,-73,-7827,1701
1626,-272,19,1692,-440,-8290,1730
1627,-331,-47,1476,-586,-8584,1630
1628,-404,-97,1220,-577,-8819,1455
1629,-449,-118,950,-504,-8950,1281
1630,-503,-167,689,-467,-9036,1125
1631,-529,-167,382,-391,-9161,960
1632,-563,-188,31,-391,-9264,794
1633,-608,-192,-284,-446,-9069,644
1634,-661,-125,-639,-489,-8444,498
1635,-718,-76,-1005,-528,-7426,443
1636,-751,33,-1373,-592,-6319,416
1637,-692,169,-1758,-764,-5307,523
1638,-619,259,-2025,-723,-4292,642
1639,-570,346,-2048,-137,-3002,638
1640,-522,381,-2048,746,-1571,500
1641,-524,353,-2048,1529,-157,416
1642,-523,268,-1919,2121,988,347
1643,-548,149,-1783,2576,1982,310
1644,-492,20,-1502,2927,2742,261
1645,-423,-113,-1287,2841,3519,107
1646,-404,-178,-1041,2523,3988,-98
1647,-371,-175,-843,2130,4335,-329
1648,-362,-154,-646,1560,4587,-452
1649,-360,-118,-442,767,4761,-438
1650,-337,-47,-311,-120,4925,-325
1651,-259,20,-229,-770,5117,-47
1652,-221,62,-146,-967,5353,306
1653,-226,58,-95,-754,5539,503
1654,-282,-4,46,-209,5771,476
1655,-336,-40,237,412,6216,267
1656,-348,-77,497,775,6833,-167
1657,-364,-167,742,839,7365,-514
1658,-356,-240,984,580,7589,-520
1659,-275,-312,1139,-90,7478,-245
1660,-231,-324,1216,-1038,7224,0
1661,-250,-304,1294,-1530,6972,42
1662,-282,-174,1433,-1456,6851,-176
1663,-239,49,1601,-958,7107,-624
1664,-165,189,1797,-112,7333,-1067
1665,-11,281,1998,699,7248,-1311
1666,150,347,2048,1201,6939,-1403
1667,213,409,2048,1265,6529,-1508
1668,256,483,2048,994,5982,-1270
1669,335,579,2048,232,5421,-741
1670,446,649,2048,-989,5134,-63
1671,557,717,2048,-2303,4814,640
1672,727,774,2048,-2889,4074,1179
1673,856,796,2048,-2094,3197,1150
1674,906,811,2048,-397,2216,572
1675,864,813,2048,1191,1183,42
1676,834,821,2048,1957,265,-182
1677,799,825,2048,1861,-561,-42
1678,723,838,2048,1287,-1641,414
1679,616,777,2048,644,-3018,951
1680,504,679,2048,302,-4358,1250
1681,354,644,2048,187,-5407,1214
1682,178,531,2048,109,-6280,1195
1683,59,450,2048,128,-7065,1212
1684,-62,349,2048,156,-7674,1123
1685,-148,240,2048,234,-8182,986
1686,-234,189,2048,308,-8374,878
1687,-340,178,2048,345,-8352,800
1688,-435,159,1900,283,-8424,890
1689,-519,134,1651,111,-8647,1152
1690,-605,84,1384,-49,-8928,1404
1691,-693,20,1077,-161,-9157,1582
1692,-786,-57,765,-245,-9354,1677
1693,-842,-121,458,-327,-9516,1662
1694,-886,-167,142,-620,-9385,1542
1695,-913,-113,-125,-1264,-8967,1505
1696,-881,-39,-440,-1928,-8469,1550
1697,-829,59,-804,-2168,-7883,1474
1698,-815,110,-1120,-1895,-7202,1296
1699,-849,152,-1379,-1075,-6481,1037
1700,-838,227,-1621,70,-5760,673
1701,-793,221,-1809,1250,-4905,378
1702,-785,177,-1925,2253,-3770,164
1703,-747,94,-1923,2910,-2395,27
1704,-653,49,-1902,3068,-942,-14
1705,-584,-15,-1827,2683,162,-45
1706,-560,-33,-1726,2121,978,-67
1707,-527,-7,-1619,1623,1642,-22
1708,-469,-13,-1479,1316,2175,-51
1709,-400,34,-1337,1144,2646,-116
1710,-360,55,-1190,1152,3111,-133
1711,-351,95,-1045,1248,3558,-172
1712,-370,49,-885,1250,3949,-141
1713,-397,0,-728,1068,4304,5
1714,-348,-34,-557,650,4671,146
1715,-262,-27,-412,134,5035,236
1716,-178,33,-227,-450,5310,335
1717,-146,114,-36,-946,5523,458
1718,-124,212,137,-1139,5796,583
1719,-152,231,352,-700,6218,656
1720,-190,183,598,232,6708,500
1721,-153,110,872,1052,7158,257
1722,-61,78,1174,1380,7505,52
1723,57,92,1482,1125,7712,-34
1724,132,107,1726,599,7630,27
1725,222,93,1971,50,7271,240
1726,286,81,2048,-522,6693,511
1727,317,74,2048,-1133,5982,875
1728,359,59,2048,-1641,5201,1298
1729,423,40,2048,-1971,4474,1634
1730,479,32,2048,-2014,3976,1792
1731,494,8,2048,-1770,3611,1746
1732,493,13,2048,-1321,3441,1542
1733,475,22,2048,-797,3333,1269
1734,407,-1,2048,-331,3134,1021
1735,436,-5,2048,1,2947,814
1736,536,-26,2048,128,2701,630
1737,593,-12,2048,0,2197,519
1738,600,59,2003,-276,1589,443
1739,555,149,1967,-379,1242,371
1740,497,236,1943,-178,1136,357
1741,475,224,1888,72,1029,615
1742,441,145,1814,214,814,814
1743,376,80,1674,201,490,888
1744,364,38,1515,82,193,990
1745,361,-7,1357,-43,37,1000
1746,320,-40,1267,-90,62,888
1747,279,-76,1203,31,332,679
1748,253,-95,1219,207,744,375
1749,249,-52,1270,283,1074,76
1750,253,-38,1296,289,1179,-84
1751,285,1,1360,283,1074,-161
1752,306,43,1349,322,734,-153
1753,290,46,1319,386,179,13
1754,245,-8,1246,480,-266,162
1755,209,-9,1208,574,-364,140
1756,197,-19,1149,537,-311,99
1757,208,-10,1121,398,-249,56
1758,183,-1,1121,238,-206,56
1759,189,15,1085,70,-170,89
1760,219,21,1052,-118,-165,87
1761,204,20,1028,-358,-167,138
1762,204,39,1035,-461,-178,220
1763,194,48,1053,-401,-235,220
1764,180,50,1034,-266,-329,193
1765,184,46,1030,-94,-424,158
1766,196,40,1027,50,-504,103
1767,187,36,1008,144,-553,35
1768,200,40,1015,201,-553,-22
1769,194,50,1001,138,-491,-63
1770,199,65,974,41,-444,-104
1771,178,90,973,-104,-362,-110
1772,173,91,940,-266,-307,-28
1773,160,102,898,-407,-288,52
1774,146,108,892,-532,-235,113
1775,171,117,907,-512,-178,132
1776,177,131,911,-333,-165,70
1777,174,138,925,-88,-122,-75
1778,185,155,927,42,-20,-145
1779,197,166,943,167,85,-190
1780,187,169,982,218,156,-239
1781,178,155,1014,158,207,-143
1782,167,135,1034,60,218,1
1783,194,127,1001,-75,162,99
1784,175,84,1004,-215,78,177
1785,181,83,1005,-290,25,167
1786,192,100,1005,-272,35,72
1787,200,121,1005,-163,19,29
1788,187,127,984,-43,19,42
1789,185,116,991,15,35,25
1790,185,100,991,-4,74,46
1791,180,104,1009,-61,117,68
1792,196,107,1021,-145,171,70
1793,196,92,1042,-192,212,103
1794,208,85,1059,-159,148,103
1795,202,81,1078,-122,5,68
1796,183,68,1041,-71,-112,33
1797,178,43,1023,-47,-170,25
1798,177,11,996,-12,-182,46
1799,177,0,988,-10,-170,25
1800,189,16,980,-61,-124,-45
1801,176,29,965,-137,-81,-100
1802,171,27,988,-252,-28,-92
1803,169,42,984,-323,27,-34
1804,182,39,984,-297,15,15
1805,174,25,976,-219,-47,29
1806,179,-11,972,-155,-96,11
1807,200,-23,956,-106,-131,-20
1808,191,-26,974,-61,-118,-106
1809,199,-18,980,-38,-53,-208
1810,212,-20,996,-55,5,-299
1811,203,-12,1020,-131,37,-348
1812,212,6,1011,-295,-12,-342
1813,206,5,1009,-504,-122,-282
1814,197,12,993,-676,-211,-227
1815,191,26,952,-772,-221,-215
1816,182,24,938,-698,-176,-249
1817,174,37,931,-483,-92,-282
1818,181,26,929,-241,-34,-336
1819,188,18,927,-75,-16,-389
1820,196,18,925,-59,15,-448
1821,189,14,941,-133,89,-508
1822,192,18,971,-204,134,-563
1823,200,45,996,-229,105,-584
1824,213,64,999,-198,58,-620
1825,191,94,1010,-174,33,-645
1826,193,104,1001,-137,27,-598
1827,191,80,1002,-122,15,-510
1828,189,80,1013,-116,31,-444
1829,189,69,1001,-127,66,-436
1830,197,48,979,-186,87,-399
1831,189,53,989,-223,130,-358
1832,196,72,1005,-278,187,-372
1833,200,52,1023,-352,212,-368
1834,187,61,1041,-405,183,-331
1835,198,49,1055,-438,126,-313
1836,200,44,1048,-485,23,-329
1837,200,29,1040,-534,-40,-348
1838,190,31,1039,-516,-47,-368
1839,193,37,1050,-411,-49,-446
1840,202,46,1050,-344,-57,-532
1841,196,49,1050,-331,-90,-557
1842,190,69,1044,-393,-108,-555
1843,187,65,1038,-479,-106,-495
1844,192,77,1019,-530,-120,-411
1845,186,65,990,-610,-157,-344
1846,192,46,987,-625,-159,-325
1847,182,46,996,-549,-131,-374
1848,191,48,1019,-469,-110,-424
1849,178,50,1014,-424,-120,-432
1850,169,48,990,-430,-147,-407
1851,174,37,967,-465,-167,-403
1852,174,25,943,-536,-125,-391
1853,185,41,951,-553,-51,-399
1854,189,49,984,-469,41,-456
1855,184,56,1002,-348,78,-506
1856,181,61,1019,-237,62,-520
1857,180,62,1029,-215,23,-512
1858,177,44,1012,-262,-36,-481
1859,169,49,995,-295,-71,-420
1860,175,44,985,-323,-34,-391
1861,180,36,986,-364,35,-374
1862,181,29,1008,-374,54,-385
1863,174,35,1022,-366,41,-409
1864,174,21,1016,-325,21,-407
1865,170,14,1000,-299,11,-418
1866,157,0,1001,-327,15,-422
1867,174,17,1002,-440,50,-432
1868,188,39,1013,-516,66,-456
1869,196,48,1019,-526,15,-448
1870,185,55,1008,-467,-28,-461
1871,167,48,1016,-346,-28,-499
1872,166,47,1012,-208,-12,-538
1873,183,33,1010,-145,23,-565
1874,194,42,1020,-165,19,-571
1875,196,50,1024,-264,-14,-524
1876,182,57,1000,-379,-24,-479
1877,170,44,987,-463,-8,-438
1878,181,40,972,-489,13,-391
1879,180,33,983,-430,72,-350
1880,168,28,954,-321,97,-338
1881,162,17,1007,-221,119,-352
1882,163,20,1003,-145,128,-381
1883,170,18,1002,-155,107,-383
1884,170,16,1007,-225,74,-352
1885,174,7,984,-290,72,-319
1886,175,13,1008,-319,56,-321
1887,172,11,1018,-325,33,-356
1888,178,12,1005,-303,-16,-399
1889,164,-1,1008,-252,-36,-436
1890,168,2,1008,-211,-16,-475
1891,158,15,995,-172,5,-491
1892,171,10,1013,-133,-12,-487
1893,164,16,991,-139,0,-483
1894,164,-7,980,-147,-6,-473
1895,164,-11,993,-170,9,-458
1896,159,-22,989,-159,42,-463
1897,163,-23,1011,-104,101,-518
1898,174,-4,1030,-53,144,-594
1899,168,16,1051,-59,126,-641
1900,189,31,1071,-161,62,-584
1901,181,30,1039,-303,-24,-487
1902,195,29,1019,-413,-131,-391
1903,160,14,995,-430,-176,-338
1904,154,-3,994,-366,-133,-370
1905,164,-16,980,-262,-49,-426
1906,162,-22,986,-208,-14,-471
1907,152,-18,987,-174,-6,-506
1908,160,-8,983,-165,7,-508
1909,168,8,980,-198,48,-514
1910,159,21,978,-229,109,-534
1911,167,29,998,-213,173,-536
1912,172,21,994,-145,195,-534
1913,181,31,1024,-110,160,-524
1914,186,52,1023,-196,78,-500
1915,162,61,1010,-282,3,-442
1916,168,56,985,-323,-42,-360
1917,171,36,975,-299,-59,-309
1918,140,18,957,-247,-28,-274
1919,150,-1,959,-188,44,-268
1920,150,-31,957,-182,148,-301
1921,150,-22,971,-235,251,-346
1922,159,-18,995,-336,316,-375
1923,145,3,1033,-424,283,-383
1924,152,5,1005,-458,169,-352
1925,154,-4,970,-407,54,-336
1926,151,-9,989,-258,29,-372
1927,143,-15,983,-83,83,-434
1928,154,-17,1008,54,160,-500
1929,149,-2,1018,91,185,-538
1930,161,6,1017,15,156,-514
1931,153,3,1025,-104,93,-452
1932,165,4,995,-209,50,-364
1933,150,-6,981,-252,23,-333
1934,148,-17,994,-202,62,-362
1935,143,-29,994,-110,144,-438
1936,157,-15,1012,-55,216,-522
1937,147,-9,1041,-53,212,-542
1938,155,-2,1051,-83,160,-485
1939,166,3,1057,-157,101,-428
1940,160,-8,1009,-221,33,-379
1941,149,-21,1009,-239,15,-360
1942,149,-29,1002,-198,52,-381
1943,150,-47,1002,-151,91,-438
1944,155,-40,1016,-143,97,-512
1945,150,3,1046,-155,107,-500
1946,160,15,1020,-206,70,-524
1947,145,10,1022,-247,1,-508
1948,143,18,1005,-250,-16,-459
1949,141,8,996,-182,-2,-446
1950,152,12,998,-124,42,-479
1951,146,6,1016,-108,107,-520
1952,150,25,1018,-114,158,-538
1953,153,36,1034,-143,152,-510
1954,144,45,1055,-157,126,-458
1955,144,52,1032,-149,113,-379
1956,147,27,1040,-129,33,-366
1957,127,28,1015,-40,13,-352
1958,133,2,984,13,21,-360
1959,129,-3,994,21,60,-385
1960,137,-11,985,29,111,-430
1961,134,9,999,-8,126,-491
1962,134,24,1031,-86,154,-448
1963,138,40,1024,-174,113,-352
1964,140,25,1005,-239,50,-262
1965,134,20,989,-243,11,-221
1966,120,13,979,-159,41,-227
1967,134,1,987,-57,101,-256
1968,129,-18,986,0,146,-284
1969,138,-20,972,17,162,-325
1970,133,-23,988,21,85,-452
1971,124,-2,990,37,103,-522
1972,124,23,986,37,115,-530
1973,116,44,991,39,140,-487
1974,122,30,992,35,154,-420
1975,134,31,996,15,154,-368
1976,137,34,997,3,146,-336
1977,132,39,1012,-12,119,-317
1978,137,56,1008,-69,136,-317
1979,135,90,1011,-63,166,-301
1980,140,100,1021,15,193,-256
1981,152,99,1008,121,228,-231
1982,155,88,1012,263,314,-229
1983,177,96,1015,392,421,-274
1984,191,113,1089,464,572,-417
1985,211,180,1192,546,726,-596
1986,239,243,1321,708,904,-694
1987,259,308,1469,921,1099,-667
1988,306,301,1630,1187,1300,-545
1989,392,286,1789,1302,1417,-358
1990,470,262,1972,1142,1375,-278
1991,479,262,2048,996,1236,-295
1992,512,255,2048,845,1294,-440
1993,507,248,2048,859,1320,-692
1994,491,234,2048,1076,1142,-778
1995,472,198,2048,1287,593,-692
1996,438,172,2048,1281,-575,-522
1997,398,149,2048,1044,-2307,-409
1998,307,178,2048,650,-4395,-243
1999,130,205,2048,345,-6235,-53
2000,-50,183,2048,158,-7377,154
2001,-121,176,2048,66,-8026,408
2002,-185,133,2048,-57,-8542,529
2003,-258,75,2048,-100,-8809,593
2004,-336,53,2048,-90,-9006,572
2005,-417,19,1871,-26,-9223,507
2006,-489,31,1678,-34,-9518,482
2007,-581,47,1414,-235,-9973,529
2008,-703,65,1118,-618,-10567,759
2009,-774,81,797,-1084,-11208,1111
2010,-817,144,386,-1543,-11858,1214
2011,-879,271,-129,-2077,-12377,976
2012,-898,408,-721,-2499,-12288,664
2013,-888,554,-1297,-2333,-11125,195
2014,-938,747,-1672,-1749,-9122,-229
2015,-991,907,-1846,-1170,-7008,-116
2016,-995,934,-1944,-475,-5083,525
2017,-950,813,-1962,478,-3377,1251
2018,-909,575,-1896,1546,-1938,1628
2019,-820,340,-1806,2205,-815,1746
2020,-798,129,-1675,2320,-24,1808
2021,-780,-34,-1583,2125,550,1810
2022,-755,-108,-1483,1748,1054,1656
2023,-713,-119,-1423,1275,1480,1386
2024,-690,-58,-1419,841,1859,1125
2025,-678,31,-1432,496,2312,976
2026,-709,66,-1389,322,2894,964
2027,-752,95,-1301,326,3576,1039
2028,-801,87,-1196,562,4376,1195
2029,-803,45,-1045,996,5246,1240
2030,-802,-21,-879,1380,6060,1191
2031,-800,-129,-675,1619,6771,1101
2032,-802,-206,-469,1632,7367,953
2033,-845,-272,-218,1320,7859,757
2034,-851,-277,22,755,8417,734
2035,-843,-279,278,173,8837,828
2036,-765,-278,553,-165,9117,1005
2037,-731,-185,798,-237,9587,1115
2038,-750,-192,1081,250,10173,908
2039,-730,-150,1449,1230,10595,400
2040,-639,-158,1838,2218,10955,-14
2041,-534,-217,2048,2853,10917,-309
2042,-335,-297,2048,2857,10689,-495
2043,-154,-293,2048,2164,10421,-811
2044,-6,-273,2048,1000,9990,-786
2045,124,-233,2048,-73,9130,-266
2046,298,-145,2048,-745,8019,214
2047,454,-44,2048,-961,6642,464
2048,555,44,2048,-852,5023,468
2049,657,80,2048,-555,3539,404
2050,708,95,2048,-180,2712,158
2051,752,142,2048,173,2312,-157
2052,856,228,2048,304,2064,-340
2053,906,301,2048,296,1615,-430
2054,850,312,2048,310,1056,-436
2055,798,323,2048,275,11,-299
2056,756,346,2048,337,-1446,-167
2057,647,334,2048,513,-3293,-63
2058,435,277,2048,757,-5344,52
2059,223,224,2048,783,-6936,232
2060,23,121,2048,662,-8055,507
2061,-110,3,2048,435,-8938,615
2062,-242,-61,2048,208,-9377,572
2063,-298,-107,2048,41,-9567,439
2064,-363,-93,2048,-10,-9657,154
2065,-424,-84,2048,9,-9647,-100
2066,-508,-61,1888,85,-9655,-243
2067,-553,-35,1657,105,-9749,-309
2068,-658,5,1438,95,-9885,-284
2069,-752,-6,1193,74,-10040,-141
2070,-801,-51,920,48,-10100,117
2071,-863,-52,617,-42,-9979,392
2072,-911,-79,351,-254,-9667,589
2073,-942,-58,83,-532,-9239,679
2074,-969,27,-187,-959,-8764,685
2075,-953,134,-500,-1375,-8297,609
2076,-950,301,-841,-1711,-7803,486
2077,-886,442,-1261,-1782,-7252,357
2078,-878,559,-1556,-1315,-6551,193
2079,-893,569,-1728,-209,-5624,9
2080,-871,535,-1811,1369,-4413,-200
2081,-839,367,-1774,2753,-2866,-391
2082,-779,202,-1650,3472,-1358,-604
2083,-669,89,-1510,3480,-188,-741
2084,-558,61,-1399,2894,566,-659
2085,-476,70,-1317,2009,974,-434
2086,-382,129,-1333,1091,1207,-112
2087,-341,169,-1355,425,1455,189
2088,-377,230,-1312,185,1828,357
2089,-391,277,-1230,240,2480,439
2090,-377,278,-1124,539,3294,564
2091,-355,227,-980,996,4021,564
2092,-333,183,-847,1351,4554,343
2093,-293,128,-702,1402,4951,265
2094,-290,53,-622,1230,5150,267
2095,-292,30,-548,919,5285,332
2096,-369,-8,-488,494,5462,482
2097,-521,-52,-358,167,5818,580
2098,-608,-153,-167,50,6408,542
2099,-600,-215,26,-6,7220,382
2100,-534,-224,246,218,8246,257
2101,-446,-270,516,701,9117,46
2102,-401,-190,899,1263,9798,-350
2103,-374,-46,1349,1511,10394,-1032
2104,-283,153,1790,1203,10839,-1493
2105,-216,344,2048,447,10767,-1278
2106,-134,421,2048,-592,10144,-495
2107,11,382,2048,-1381,9316,421
2108,184,303,2048,-1733,8457,1220
2109,319,230,2048,-1727,7519,1718
2110,413,-105,2048,-1674,4865,2138
2111,384,83,2048,-1625,6318,1943
2112,413,-239,2048,-1792,3501,2292
2113,418,-311,2048,-1836,2519,2292
2114,401,-357,2048,-1756,1748,2154
2115,345,-375,2048,-1374,1255,1791
2116,285,-393,2048,-682,1082,1136
2117,269,-326,1988,-71,1238,343
2118,277,-215,1972,185,1580,-301
2119,322,-34,1940,160,1810,-563
2120,389,128,1976,35,1882,-495
2121,422,246,1973,-108,1691,-239
2122,391,251,1963,-155,1222,82
2123,357,203,1938,-83,517,300
2124,316,147,1808,42,-84,353
2125,240,88,1684,197,-456,396
2126,211,-1,1549,234,-854,507
2127,206,-65,1428,91,-1124,568
2128,191,-65,1279,-149,-1219,486
2129,154,-44,1178,-422,-1194,417
2130,122,-35,1118,-565,-1047,429
2131,90,-29,1098,-522,-827,429
2132,59,-53,1085,-434,-563,382
2133,68,-51,1057,-331,-383,289
2134,98,-35,1047,-303,-315,210
2135,117,-4,988,-321,-356,220
2136,77,21,967,-258,-422,222
2137,82,43,964,-161,-405,132
2138,86,49,976,-28,-204,66
2139,90,44,1009,136,-43,68
2140,89,14,1023,275,54,80
2141,95,-31,1044,271,152,146
2142,121,-62,1077,130,152,177
2143,143,-37,1084,-159,54,175
2144,142,-23,1091,-487,-170,242
2145,143,15,1095,-686,-465,392
2146,134,31,1036,-661,-733,460
2147,99,9,981,-481,-887,433
2148,72,-1,934,-231,-922,443
2149,66,-14,878,19,-764,425
2150,57,-54,857,212,-559,228
2151,27,-61,845,263,-356,-28
2152,36,-91,873,255,-174,-295
2153,49,-63,903,232,44,-366
2154,85,-36,932,146,97,-366
2155,107,-1,953,21,56,-350
2156,130,24,923,-106,-147,-278
2157,96,25,911,-180,-364,-170
2158,90,26,900,-159,-458,-120
2159,81,11,907,-77,-426,-104
2160,85,-3,894,-10,-340,-90
2161,89,-25,886,13,-208,-75
2162,104,-27,897,23,-73,-77
2163,130,-9,910,-34,23,-94
2164,150,7,934,-178,83,-98
2165,135,13,965,-245,150,-53
2166,131,5,999,-233,162,-51
2167,129,-5,1030,-194,175,-94
2168,117,0,1042,-151,134,-176
2169,112,-7,1029,-170,29,-202
2170,123,-36,1021,-237,-86,-153
2171,128,-40,1004,-252,-161,-102
2172,138,-48,998,-256,-190,-104
2173,132,-63,993,-250,-143,-186
2174,124,-72,1031,-186,-61,-315
2175,123,-63,1065,-94,-16,-446
2176,131,-56,1085,-28,-6,-555
2177,149,-33,1076,19,-22,-661
2178,158,10,1069,50,-71,-745
2179,172,58,1072,54,-131,-741
2180,167,83,1052,3,-221,-622
2181,149,64,1032,-73,-315,-446
2182,129,43,998,-159,-307,-311
2183,117,26,1002,-245,-225,-258
2184,129,15,1021,-309,-143,-249
2185,133,1,993,-313,-42,-309
2186,147,6,1004,-250,42,-420
2187,136,39,1013,-180,101,-512
2188,143,65,1003,-104,123,-518
2189,153,74,998,-38,140,-454
2190,148,73,1038,-22,123,-411
2191,132,62,1035,-26,62,-354
2192,118,58,1049,-34,3,-286
2193,123,41,1027,-83,-14,-264
2194,116,8,1032,-184,-32,-215
2195,119,8,988,-284,-57,-186
2196,122,-4,987,-377,-53,-163
2197,120,-6,964,-438,-10,-180
2198,126,12,969,-407,109,-250
2199,136,18,993,-350,234,-331
2200,130,50,1032,-313,320,-348
2201,145,60,1071,-272,320,-317
2202,154,54,1100,-297,179,-299
2203,154,56,1108,-385,-2,-245
2204,140,51,1071,-461,-202,-149
2205,123,42,1031,-413,-317,-110
2206,108,5,1022,-305,-305,-137
2207,114,-14,995,-196,-211,-196
2208,113,-13,987,-122,-112,-286
2209,110,-16,976,-102,-45,-350
2210,109,-14,980,-96,-22,-374
2211,108,1,988,-88,25,-354
2212,107,-9,977,-79,91,-323
2213,119,-15,988,-73,187,-315
2214,127,-12,1028,-94,218,-325
2215,140,-16,1038,-127,162,-333
2216,135,-14,1045,-149,72,-329
2217,123,-10,1035,-151,-20,-319
2218,134,-39,1011,-151,-71,-329
2219,129,-27,1023,-127,-88,-383
2220,127,-26,1023,-125,-75,-440
2221,129,-17,1027,-118,-67,-516
2222,136,3,1040,-79,-49,-583
2223,128,10,1045,-67,-36,-561
2224,126,5,1039,-108,-73,-483
2225,132,3,1027,-206,-110,-422
2226,119,8,1008,-274,-129,-374
2227,121,-2,991,-262,-110,-389
2228,121,-6,1003,-215,-71,-440
2229,120,-22,1016,-172,-51,-504
2230,145,-23,1017,-163,-81,-583
2231,137,4,1019,-190,-124,-631
2232,125,33,1020,-200,-139,-631
2233,124,42,1034,-172,-120,-592
2234,132,49,1041,-127,-94,-579
2235,143,71,1058,-88,-120,-586
2236,137,65,1040,-81,-194,-547
2237,135,62,1009,-110,-262,-463
2238,136,45,973,-122,-303,-383
2239,121,29,968,-92,-319,-333
2240,118,42,938,-49,-229,-327
2241,106,29,941,-28,-151,-420
2242,103,7,944,64,-18,-495
2243,108,16,947,146,113,-532
2244,123,5,994,107,173,-543
2245,130,37,1006,39,173,-493
2246,140,32,994,-53,126,-452
2247,129,33,1039,-110,105,-385
2248,139,24,1030,-161,54,-329
2249,134,0,1018,-176,-8,-280
2250,134,-17,1017,-120,-53,-264
2251,141,-35,1002,-53,-63,-331
2252,121,-46,1010,-32,-22,-399
2253,133,-44,1029,-42,27,-448
2254,137,-31,1033,-81,64,-477
2255,134,-34,1051,-116,64,-510
2256,147,-25,1043,-161,41,-561
2257,140,-4,1053,-209,15,-581
2258,147,31,1064,-213,-42,-579
2259,149,33,1052,-161,-102,-559
2260,146,30,1053,-94,-155,-522
2261,134,39,1007,-30,-167,-493
2262,132,19,988,-8,-200,-524
2263,128,4,986,-2,-153,-518
2264,132,12,968,-22,-81,-540
2265,136,28,995,-12,-6,-579
2266,137,32,1015,11,23,-620
2267,137,56,1005,29,35,-608
2268,130,50,1022,33,-22,-583
2269,125,60,1040,50,-73,-540
2270,142,59,1034,33,-112,-481
2271,142,47,999,-8,-163,-415
2272,136,35,1000,-45,-209,-358
2273,132,25,969,-38,-192,-323
2274,121,13,984,-32,-131,-362
2275,121,-1,978,-45,-65,-442
2276,118,25,994,-65,3,-463
2277,113,10,1002,-116,7,-506
2278,118,0,1001,-98,37,-518
2279,139,2,990,-43,50,-543
2280,134,16,1014,-12,35,-555
2281,146,23,1024,37,17,-569
2282,140,33,1038,111,-12,-596
2283,143,51,1041,185,0,-594
2284,136,45,1041,156,0,-602
2285,138,40,1038,56,-28,-551
2286,137,37,1029,-67,-92,-485
2287,125,22,1007,-149,-165,-448
2288,129,18,996,-182,-157,-432
2289,133,11,984,-227,-161,-493
2290,121,23,989,-190,-149,-534
2291,117,26,1001,-88,-112,-555
2292,117,36,991,15,-65,-616
2293,132,55,983,15,-20,-637
2294,141,73,989,-71,-6,-616
2295,142,76,966,-131,-34,-538
2296,124,70,947,-157,-51,-459
2297,127,74,961,-129,19,-405
2298,119,62,971,-63,70,-420
2299,128,67,988,7,107,-436
2300,137,67,998,5,97,-469
2301,132,77,1008,-42,78,-481
2302,134,77,999,-112,37,-426
2303,124,78,983,-161,19,-377
2304,122,68,973,-167,33,-379
2305,114,54,993,-145,72,-377
2306,118,50,1021,-43,123,-391
2307,121,62,1027,17,167,-409
2308,129,66,1045,3,162,-415
2309,121,82,1043,-57,105,-381
2310,115,75,1028,-127,56,-346
2311,115,61,1001,-176,21,-323
2312,119,39,971,-147,-18,-313
2313,110,41,953,-81,-32,-362
2314,102,49,952,0,44,-442
2315,116,73,953,31,167,-543
2316,119,103,974,17,246,-610
2317,109,135,1003,-20,283,-553
2318,115,152,1027,-4,304,-420
2319,132,157,1009,35,310,-311
2320,135,138,1007,107,271,-256
2321,129,139,1023,152,253,-247
2322,135,127,1032,164,207,-260
2323,114,128,1035,146,199,-243
2324,109,128,1016,91,179,-167
2325,114,127,1029,29,185,-51
2326,113,108,1028,-114,259,66
2327,115,92,1054,-243,302,125
2328,132,85,1045,-262,359,146
2329,109,90,1064,-268,345,121
2330,130,112,1085,-145,355,117
2331,128,98,1092,33,300,42
2332,140,103,1103,224,240,11
2333,132,100,1099,314,189,13
2334,162,110,1099,322,173,13
2335,148,90,1122,275,130,-65
2336,149,94,1129,250,158,-77
2337,161,97,1189,199,279,-81
2338,183,98,1276,125,357,-153
2339,187,116,1366,29,412,-192
2340,220,121,1493,-2,458,-231
2341,265,169,1620,-36,494,-323
2342,374,200,1817,-147,597,-368
2343,490,286,2021,-184,613,-475
2344,507,316,2048,-135,505,-526
2345,505,340,2048,97,382,-542
2346,496,341,2048,339,195,-518
2347,511,287,2048,355,-256,-305
2348,540,208,2048,166,-1200,44
2349,541,149,2048,-249,-2715,421
2350,465,64,2048,-698,-4543,728
2351,326,-24,2048,-915,-6133,806
2352,202,-132,2048,-762,-7268,710
2353,90,-217,2048,-403,-8057,613
2354,-7,-303,2048,-120,-8555,400
2355,-94,-317,2048,42,-8815,72
2356,-153,-279,2048,31,-8952,-270
2357,-235,-191,2048,-51,-9065,-567
2358,-313,-114,1907,-176,-9325,-711
2359,-391,-43,1661,-309,-9633,-624
2360,-431,40,1376,-415,-9915,-502
2361,-444,124,1068,-493,-10108,-448
2362,-495,205,819,-417,-10114,-385
2363,-537,249,540,-245,-9928,-278
2364,-534,290,272,-106,-9581,-184
2365,-536,290,5,105,-8942,-86
2366,-573,248,-195,445,-8028,-24
2367,-606,203,-331,724,-7006,93
2368,-646,161,-427,859,-6008,224
2369,-635,82,-461,794,-5157,193
2370,-574,102,-573,445,-4760,109
2371,-522,196,-766,-168,-4655,207
2372,-493,300,-1032,-743,-4692,429
2373,-512,374,-1227,-987,-4635,638
2374,-516,441,-1437,-821,-4247,861
2375,-499,447,-1736,-299,-3760,978
2376,-518,403,-1972,609,-2977,660
2377,-575,385,-2008,1642,-1692,-43
2378,-564,409,-1963,2535,-280,-633
2379,-545,460,-1888,2906,919,-844
2380,-524,477,-1790,2595,1783,-563
2381,-462,446,-1736,1841,2433,146
2382,-437,411,-1658,1011,2916,814
2383,-455,349,-1539,378,3460,1167
2384,-487,315,-1411,27,4121,1314
2385,-510,284,-1199,-49,4783,1277
2386,-514,268,-1030,66,5414,1259
2387,-540,229,-842,218,5798,1292
2388,-544,174,-678,271,5996,1404
2389,-547,62,-572,257,5990,1583
2390,-551,-54,-467,246,6070,1730
2391,-570,-138,-371,347,6306,1695
2392,-652,-178,-187,490,6605,1455
2393,-784,-193,18,414,6962,1123
2394,-863,-214,240,158,7544,1083
2395,-810,-171,429,-145,8160,1355
2396,-764,-210,597,-307,8679,1716
2397,-657,-269,916,-290,9017,1865
2398,-582,-345,1184,-102,9164,1855
2399,-642,-552,1564,275,9224,1753
2400,-565,-610,1918,583,9242,1406
2401,-427,-556,2048,601,9205,1097
2402,-247,-507,2048,523,9072,863
2403,-1,-463,2048,412,8605,800
2404,213,-433,2048,189,7931,933
2405,362,-351,2048,125,7035,830
2406,461,-390,2048,-28,6248,630
2407,595,-487,2048,-172,5501,810
2408,746,-546,2048,-473,4501,1142
2409,831,-575,2048,-1102,3308,1289
2410,942,-582,2048,-1389,2257,1240
2411,1055,-448,2048,-1069,1685,695
2412,1127,-233,2048,-231,1501,-208
2413,1156,-18,2048,712,1226,-959
2414,1130,126,2048,1304,564,-1295
2415,1144,220,2048,1492,-225,-1247
2416,1084,239,2048,1183,-1245,-967
2417,985,191,2048,738,-2454,-500
2418,860,175,2048,544,-3592,-278
2419,703,152,2048,466,-4364,-280
2420,605,122,2048,359,-5108,-284
2421,483,133,2048,238,-5817,-192
2422,374,135,2048,175,-6243,-102
2423,253,138,2048,128,-6417,17
2424,163,158,2048,166,-6452,113
2425,66,138,2048,244,-6401,179
2426,-60,102,2048,394,-6547,283
2427,-187,42,2032,351,-6905,417
2428,-291,-42,1839,101,-7344,572
2429,-412,-57,1580,-323,-7743,685
2430,-524,-92,1344,-846,-7987,703
2431,-610,-159,1105,-958,-8213,658
2432,-660,-215,786,-508,-8579,501
2433,-692,-248,438,259,-8793,138
2434,-700,-206,167,847,-8672,-338
2435,-710,-175,0,1039,-8186,-602
2436,-682,-92,-177,904,-7391,-668
2437,-586,97,-344,384,-6610,-668
2438,-480,310,-499,-295,-6053,-483
2439,-418,411,-625,-625,-5575,-133
2440,-383,458,-713,-608,-5084,210
2441,-334,468,-778,-547,-4618,515
2442,-295,427,-877,-526,-4288,847
2443,-281,345,-985,-323,-4053,1048
2444,-339,237,-1071,150,-3815,1062
2445,-281,114,-1196,728,-3411,843
2446,-337,114,-1118,1357,-3155,605
2447,-281,216,-1200,941,-2208,85
2448,-252,234,-1305,562,-1420,97
2449,-202,258,-1337,455,-844,339
2450,-191,293,-1337,283,-215,542
2451,-214,272,-1309,107,472,783
2452,-231,239,-1263,111,1107,976
2453,-238,187,-1217,318,1669,1011
2454,-242,150,-1183,578,2193,925
2455,-257,89,-1107,857,2716,857
2456,-239,42,-1001,994,3230,792
2457,-213,2,-891,906,3707,695
2458,-210,-18,-759,712,4175,578
2459,-238,-14,-618,457,4572,503
2460,-273,26,-521,203,4923,464
2461,-310,11,-400,44,5324,546
2462,-340,2,-256,1,5648,683
2463,-341,36,-170,-34,5978,851
2464,-308,37,-105,125,6324,1033
2465,-329,-24,46,703,6732,1056
2466,-394,-93,334,1515,7214,804
2467,-425,-197,675,2156,7748,386
2468,-340,-281,1054,2425,8425,-26
2469,-151,-247,1447,2166,9115,-374
2470,3,-183,1815,1468,9394,-432
2471,184,-131,2048,845,9185,-190
2472,390,-64,2048,443,8384,93
2473,436,7,2048,292,7166,382
2474,393,16,2048,576,5902,611
2475,436,-53,2048,855,4822,638
2476,541,-98,2048,869,4435,523
2477,576,-110,2048,453,4013,498
2478,596,-108,2048,-125,3585,583
2479,654,-49,2048,-702,3214,757
2480,663,-57,2048,-1047,2792,941
2481,655,-50,2048,-1036,2521,894
2482,559,-45,2048,-745,2386,568
2483,464,21,2048,236,2669,-149
2484,583,114,2048,582,2347,-235
2485,463,0,1883,392,1732,369
2486,455,-103,1806,539,1271,365
2487,446,-45,1753,685,1101,134
2488,416,21,1743,685,994,-32
2489,403,26,1742,562,1042,-77
2490,393,26,1738,464,1050,-4
2491,390,15,1673,322,796,138
2492,363,-21,1554,48,365,283
2493,303,-62,1399,-282,44,421
2494,263,-84,1283,-485,-86,507
2495,237,-73,1216,-502,-110,496
2496,231,-52,1161,-393,-20,343
2497,242,-10,1150,-94,208,78
2498,230,23,1225,300,335,-137
2499,213,5,1250,501,304,-135
2500,222,-12,1197,447,175,-40
2501,204,-42,1164,275,85,107
2502,196,-58,1142,72,15,193
2503,187,-32,1092,-213,-73,261
2504,180,-41,1067,-366,-165,326
2505,163,-48,1046,-280,-307,339
2506,162,-53,997,-73,-358,232
2507,169,-62,995,97,-254,58
2508,180,-55,1013,259,-43,-102
2509,181,-34,1023,306,68,-221
2510,191,-19,1021,201,103,-245
2511,175,-3,1019,85,76,-174
2512,176,16,1028,23,46,-106
2513,165,0,1012,-79,-55,-57
2514,153,-20,993,-163,-170,-14
2515,155,-4,990,-159,-239,7
2516,162,-38,977,-90,-344,46
2517,152,-68,952,7,-418,21
2518,154,-60,917,105,-375,-55
2519,143,-60,915,148,-252,-137
2520,137,-69,932,197,-129,-163
2521,164,-66,938,195,-81,-104
2522,163,-50,949,64,-98,-30
2523,149,-35,947,-178,-92,60
2524,147,-37,942,-393,-84,156
2525,163,-18,931,-542,-53,130
2526,178,-28,926,-639,56,171
2527,187,-27,972,-584,115,130
2528,181,-47,998,-497,97,-36
2529,175,-58,986,-418,56,-190
2530,173,-62,957,-360,74,-295
2531,164,-48,975,-424,105,-350
2532,173,-17,950,-518,169,-336
2533,167,-9,952,-493,191,-307
2534,174,-9,978,-399,230,-327
2535,180,-14,1019,-293,281,-383
2536,181,-11,1033,-237,220,-426
2537,171,6,1029,-192,158,-436
2538,175,4,1014,-127,113,-450
2539,175,23,1027,-90,93,-491
2540,183,35,1037,-120,70,-514
2541,187,58,1021,-202,13,-459
2542,180,55,1012,-276,-40,-381
2543,185,52,1011,-297,-42,-333
2544,161,44,1022,-301,-30,-319
2545,160,31,1005,-292,25,-340
2546,165,14,1004,-209,76,-389
2547,171,36,1023,-129,132,-444
2548,168,43,1027,-157,197,-461
2549,166,36,1045,-268,230,-417
2550,175,47,1045,-387,173,-348
2551,161,52,1038,-452,72,-301
2552,150,37,1012,-387,13,-305
2553,137,33,1007,-206,41,-374
2554,145,33,1018,0,80,-461
2555,158,32,1012,128,87,-516
2556,161,43,1021,146,64,-510
2557,153,32,1027,136,56,-493
2558,172,33,1023,64,31,-540
2559,169,41,1029,9,39,-557
2560,167,38,1030,-24,70,-516
2561,162,29,1034,-88,101,-475
2562,162,10,1036,-141,132,-456
2563,165,26,1012,-170,158,-479
2564,155,46,1012,-184,156,-458
2565,145,38,1002,-71,138,-413
2566,160,27,1016,128,113,-444
2567,167,11,1060,310,85,-510
2568,172,9,1075,392,23,-536
2569,161,-6,1065,326,-30,-530
2570,158,-7,1072,158,-63,-510
2571,170,18,1056,-63,-84,-485
2572,161,25,1019,-245,-155,-383
2573,147,20,1008,-309,-239,-284
2574,129,-6,967,-260,-264,-282
2575,127,-40,945,-153,-239,-358
2576,121,-55,943,-34,-147,-458
2577,130,-45,960,76,5,-573
2578,158,-41,1003,136,93,-645
2579,158,-20,1031,64,80,-651
2580,153,0,1036,-106,7,-581
2581,169,16,1017,-282,-125,-473
2582,161,14,974,-422,-233,-383
2583,142,6,961,-418,-231,-360
2584,148,2,964,-258,-170,-434
2585,159,1,971,-81,-90,-545
2586,156,13,995,31,-30,-624
2587,163,26,1020,9,-6,-637
2588,160,33,1028,-86,-24,-606
2589,161,51,1018,-231,-59,-557
2590,157,48,1010,-352,-84,-514
2591,170,62,980,-395,-75,-502
2592,173,80,988,-338,-102,-514
2593,165,72,986,-237,-143,-522
2594,164,84,982,-114,-151,-573
2595,160,85,954,5,-159,-581
2596,145,87,960,83,-170,-542
2597,134,80,950,66,-102,-459
2598,154,74,966,3,-28,-399
2599,171,56,995,-135,-77,-397
2600,150,72,990,-241,-73,-389
2601,143,79,992,-284,-38,-299
2602,143,62,999,-163,-34,-245
2603,144,39,1009,66,-83,-278
2604,173,35,993,347,-81,-375
2605,168,33,976,466,-116,-522
2606,144,30,983,398,-8,-583
2607,146,36,1007,228,80,-536
2608,146,45,1008,-8,72,-434
2609,149,36,1007,-272,52,-319
2610,140,30,998,-467,37,-233
2611,140,20,988,-504,42,-213
2612,147,24,1003,-354,62,-295
2613,155,17,1012,-157,33,-426
2614,164,19,996,-34,-42,-510
2615,172,32,979,-55,-98,-526
2616,157,36,973,-186,-118,-458
2617,150,23,969,-327,-81,-374
2618,154,32,969,-409,11,-364
2619,164,54,992,-375,78,-395
2620,166,54,1005,-200,97,-444
2621,170,53,1003,-16,76,-514
2622,171,46,1010,35,42,-561
2623,175,60,996,-24,35,-506
2624,162,55,995,-135,0,-389
2625,158,37,989,-206,-2,-334
2626,154,29,986,-200,68,-364
2627,170,41,1037,-157,97,-444
2628,164,60,1047,-159,68,-436
2629,162,55,1054,-206,15,-368
2630,159,45,1038,-301,-47,-290
2631,146,22,994,-393,-79,-223
2632,140,0,972,-385,-61,-221
2633,122,9,981,-288,11,-280
2634,144,39,983,-112,123,-334
2635,158,51,980,-16,152,-422
2636,151,54,1025,21,158,-487
2637,161,68,1024,0,175,-446
2638,177,71,1063,-102,152,-377
2639,164,64,1037,-274,37,-323
2640,158,55,1004,-372,-51,-250
2641,140,33,984,-309,-34,-235
2642,155,18,1003,-178,25,-292
2643,140,14,1006,-81,74,-354
2644,146,17,1040,-57,111,-385
2645,160,25,1048,-114,107,-374
2646,154,30,1036,-217,52,-344
2647,159,23,1024,-307,-12,-295
2648,145,22,1007,-303,5,-282
2649,142,36,1004,-217,54,-311
2650,146,49,983,-145,76,-354
2651,153,74,990,-98,93,-358
2652,168,84,974,-75,113,-325
2653,145,104,977,-40,128,-276
2654,125,91,975,1,167,-206
2655,142,81,964,29,181,-163
2656,141,62,962,44,142,-155
2657,137,48,971,-6,83,-161
2658,130,33,955,-73,41,-180
2659,114,43,948,-73,41,-198
2660,110,44,966,-22,70,-202
2661,104,20,972,21,80,-215
2662,106,11,970,13,85,-213
2663,109,13,955,-18,119,-235
2664,121,16,958,-96,205,-233
2665,115,20,970,-124,251,-217
2666,113,25,987,-84,277,-223
2667,127,27,1003,-32,302,-241
2668,130,8,1029,9,300,-264
2669,132,0,1027,15,265,-292
2670,140,-9,1027,-47,244,-313
2671,161,15,1054,-170,234,-321
2672,149,26,1074,-311,177,-313
2673,139,30,1050,-405,105,-276
2674,130,53,1057,-377,91,-270
2675,146,55,1051,-286,107,-303
2676,149,48,1048,-182,89,-352
2677,150,70,1016,-124,66,-393
2678,146,94,1033,-124,52,-403
2679,136,103,1014,-120,70,-372
2680,129,114,1032,-114,126,-342
2681,130,120,1024,-75,173,-315
2682,142,131,1044,-22,183,-309
2683,143,130,1042,7,130,-309
2684,127,117,1047,64,78,-313
2685,125,121,1022,164,66,-301
2686,121,121,1024,275,107,-317
2687,123,118,1028,386,171,-370
2688,135,128,1049,476,240,-418
2689,140,133,1092,519,332,-491
2690,142,143,1111,533,392,-559
2691,171,158,1186,501,439,-553
2692,172,201,1255,414,417,-500
2693,176,213,1331,318,417,-368
2694,198,205,1434,292,439,-250
2695,242,179,1532,296,392,-172
2696,277,122,1655,326,271,-92
2697,316,97,1797,404,181,-116
2698,400,110,1939,572,218,-333
2699,456,170,2048,738,349,-667
2700,492,274,2048,925,439,-872
2701,524,355,2048,1023,408,-870
2702,533,365,2048,937,54,-708
2703,612,321,2048,445,-573,-471
2704,614,246,2048,83,-1502,-24
2705,526,169,2048,-71,-2758,421
2706,439,110,2048,-243,-4094,625
2707,287,42,2048,-233,-5245,572
2708,148,-44,2048,-145,-6022,486
2709,83,-113,2048,-159,-6635,464
2710,13,-114,2048,-325,-7295,386
2711,-102,-82,2048,-584,-7866,232
2712,-185,4,2048,-811,-8346,85
2713,-267,74,1915,-934,-8799,87
2714,-367,156,1666,-1120,-9276,167
2715,-419,257,1371,-1417,-9866,250
2716,-467,312,1044,-1733,-10372,162
2717,-544,320,701,-1688,-10659,146
2718,-584,292,390,-1237,-10647,304
2719,-657,245,77,-543,-10331,464
2720,-735,162,-147,74,-9680,478
2721,-782,165,-438,394,-8807,546
2722,-819,149,-732,234,-7911,697
2723,-846,165,-1001,-256,-7055,902
2724,-825,161,-1212,-829,-6305,1097
2725,-776,186,-1469,-1188,-5639,1197
2726,-708,262,-1710,-1151,-4936,1048
2727,-676,383,-1899,-897,-4149,853
2728,-701,434,-1976,-354,-3129,878
2729,-726,417,-2008,513,-1852,943
2730,-725,329,-1861,1492,-604,726
2731,-692,205,-1680,2066,677,447
2732,-636,138,-1528,2060,1791,425
2733,-606,69,-1377,1683,2687,517
2734,-550,79,-1253,1103,3267,480
2735,-508,150,-1180,408,3562,490
2736,-517,189,-1107,15,3751,638
2737,-542,254,-1041,-42,3929,775
2738,-606,262,-983,91,4335,1005
2739,-662,196,-863,396,4966,1310
2740,-674,84,-739,708,5642,1580
2741,-740,-50,-563,865,6312,1755
2742,-860,-193,-346,933,6925,1773
2743,-879,-307,-87,1013,7371,1535
2744,-824,-278,128,833,7705,972
2745,-814,-252,288,572,8035,562
2746,-834,-219,469,472,8417,318
2747,-806,-188,704,675,9037,218
2748,-702,-166,992,1187,9707,-71
2749,-595,-113,1366,1791,10308,-497
2750,-492,-37,1780,2431,10785,-926
2751,-410,55,2048,2658,11162,-1178
2752,-335,54,2048,2312,11503,-987
2753,-152,18,2048,1529,11279,-405
2754,170,40,2048,453,10126,292
2755,315,-33,2048,-639,8158,935
2756,329,-142,2048,-846,6271,1150
2757,367,-170,2048,-45,5308,582
2758,529,-110,2048,869,5312,-436
2759,710,-27,2048,1130,5396,-1083
2760,807,85,2048,626,4839,-993
2761,845,126,2048,-231,3601,-370
2762,889,125,2048,-913,2078,253
2763,851,178,2048,-1165,861,371
2764,799,227,2048,-1014,-137,167
2765,791,256,2048,-440,-905,-79
2766,719,280,2048,226,-1495,-459
2767,609,287,2048,703,-2182,-663
2768,528,264,2048,855,-3297,-542
2769,341,222,2048,611,-4512,-313
2770,150,172,2048,337,-5553,-63
2771,65,125,2048,263,-6325,52
2772,-63,104,2048,337,-6885,0
2773,-205,84,2048,302,-7520,23
2774,-365,37,2048,162,-8108,261
2775,-482,-23,2048,-4,-8616,503
2776,-563,-87,1949,-133,-9032,601
2777,-633,-133,1703,-168,-9280,572
2778,-678,-132,1455,-174,-9374,386
2779,-716,-76,1220,-245,-9358,189
2780,-768,-18,945,-374,-9459,173
2781,-824,46,684,-543,-9682,378
2782,-845,64,382,-786,-9844,630
2783,-866,14,98,-917,-9801,826
2784,-897,-26,-153,-860,-9471,849
2785,-925,-22,-414,-891,-8844,621
2786,-910,-28,-669,-981,-7969,257
2787,-853,33,-877,-1110,-7092,0
2788,-768,140,-1119,-1258,-6473,-43
2789,-623,263,-1356,-1292,-5848,-38
2790,-523,355,-1524,-1198,-5163,-131
2791,-477,402,-1587,-817,-4288,-118
2792,-456,393,-1552,-147,-3297,-61
2793,-424,360,-1422,576,-2254,-32
2794,-353,275,-1329,1166,-1258,115
2795,-304,242,-1275,1539,-573,85
2796,-307,201,-1237,1611,-18,39
2797,-293,193,-1252,1492,455,107
2798,-301,183,-1231,1109,880,261
2799,-312,133,-1179,589,1380,498
2800,-327,117,-1166,107,1923,615
2801,-320,112,-1165,-127,2480,609
2802,-334,130,-1128,-110,3144,642
2803,-338,125,-1035,240,3812,599
2804,-339,79,-908,619,4451,523
2805,-390,30,-781,826,5048,464
2806,-460,-36,-604,888,5603,400
2807,-461,-97,-419,832,6068,349
2808,-480,-85,-268,806,6466,310
2809,-545,-93,-121,927,6763,199
2810,-550,-117,-16,1267,7050,-4
2811,-557,-134,181,1837,7552,-247
2812,-508,-118,425,2316,8068,-594
2813,-455,-45,765,2394,8630,-1024
2814,-423,77,1220,2039,9222,-1397
2815,-370,228,1627,1111,9761,-1446
2816,-211,261,1943,-65,9929,-928
2817,28,240,2048,-985,9537,5
2818,209,158,2048,-1542,8789,865
2819,248,84,2048,-1436,7931,1255
2820,292,25,2048,-686,7099,1080
2821,347,41,2048,39,6320,689
2822,350,33,2048,322,5361,468
2823,358,-24,2048,-51,4310,730
2824,383,-82,2048,-731,3478,1042
2825,409,-86,2048,-1258,2968,1095
2826,385,-38,2048,-1325,2707,833
2827,361,50,2048,-965,2656,435
2828,366,126,2048,-481,2541,78
2829,321,167,2048,-116,2283,-133
2830,314,167,2048,97,1912,-122
2831,343,147,2048,125,1416,121
2832,345,126,1921,-79,789,382
2833,260,93,1626,-346,-168,589
2834,306,103,1737,-297,230,537
2835,212,87,1526,-170,-200,576
2836,155,29,1514,152,-10,486
2837,161,-11,1549,326,207,357
2838,181,-40,1585,314,271,261
2839,197,-60,1585,171,132,222
2840,210,-26,1532,-116,-49,283
2841,196,-16,1445,-299,-379,386
2842,152,-2,1355,-297,-702,417
2843,98,-13,1284,-110,-891,375
2844,58,-24,1226,169,-1000,261
2845,42,-61,1137,384,-1008,95
2846,53,-67,1079,523,-981,1
2847,60,-70,1017,501,-924,-38
2848,63,-51,958,320,-831,-34
2849,62,-40,908,19,-690,37
2850,43,-28,906,-247,-532,130
2851,33,-40,921,-403,-405,210
2852,47,-34,911,-465,-387,185
2853,47,-26,907,-389,-428,103
2854,39,-44,922,-155,-432,-18
2855,47,-51,938,150,-368,-163
2856,28,-55,944,412,-317,-321
2857,34,-53,962,541,-288,-442
2858,49,-48,994,664,-235,-540
2859,71,-43,996,833,-211,-641
2860,83,7,1007,863,-307,-741
2861,104,46,1004,687,-440,-725
2862,89,74,975,470,-469,-565
2863,84,63,948,205,-471,-303
2864,69,17,937,-147,-450,-28
2865,61,12,895,-567,-403,210
2866,60,-6,902,-913,-284,433
2867,87,-13,876,-1090,-137,521
2868,92,-18,912,-1094,-32,443
2869,113,-9,967,-836,-20,232
2870,124,34,985,-333,-112,-145
2871,88,41,992,191,-209,-499
2872,99,34,1009,527,-192,-733
2873,124,26,1021,527,-71,-758
2874,133,34,1038,291,-59,-635
2875,134,65,1014,-4,-110,-467
2876,125,71,976,-219,-174,-325
2877,109,76,970,-276,-157,-233
2878,101,58,994,-215,-55,-215
2879,100,45,1011,-165,52,-204
2880,105,22,1025,-127,105,-204
2881,119,2,1059,-116,105,-219
2882,142,5,1059,-174,56,-262
2883,136,13,1052,-346,-38,-282
2884,110,22,1043,-549,-139,-280
2885,124,41,1037,-670,-200,-319
2886,109,48,994,-667,-225,-377
2887,91,41,1003,-514,-225,-405
2888,93,40,967,-342,-151,-487
2889,97,34,965,-272,-42,-584
2890,119,41,990,-219,31,-561
2891,115,36,1014,-167,52,-506
2892,121,34,1008,-172,19,-461
2893,122,18,1018,-182,-36,-407
2894,127,13,1033,-188,-108,-426
2895,133,20,1014,-211,-163,-452
2896,127,26,1006,-266,-213,-446
2897,107,43,1013,-280,-217,-405
2898,109,59,995,-272,-196,-379
2899,104,57,991,-278,-178,-354
2900,108,51,976,-231,-151,-293
2901,120,25,978,-149,-118,-338
2902,110,32,987,-129,-55,-415
2903,112,49,1011,-167,3,-438
2904,108,71,1006,-221,19,-374
2905,103,60,1019,-243,-16,-360
2906,102,41,1014,-278,0,-391
2907,112,2,1008,-295,-18,-377
2908,121,15,1011,-292,-43,-411
2909,118,43,1004,-292,-67,-469
2910,107,63,986,-249,-110,-475
2911,98,73,966,-159,-73,-481
2912,106,68,956,-53,1,-508
2913,110,77,1002,50,72,-497
2914,123,82,1027,111,121,-491
2915,121,93,1048,97,142,-448
2916,136,87,1063,3,109,-329
2917,139,41,1043,-188,5,-202
2918,124,25,1054,-405,-77,-125
2919,112,2,1016,-549,-131,-96
2920,90,-2,1001,-571,-135,-96
2921,80,-8,965,-502,-120,-188
2922,79,1,945,-442,-51,-379
2923,73,13,950,-368,52,-483
2924,79,8,977,-327,148,-510
2925,102,30,980,-370,226,-526
2926,115,37,992,-393,281,-530
2927,106,79,998,-350,316,-481
2928,110,82,1013,-272,273,-420
2929,123,81,1035,-227,191,-395
2930,119,82,1025,-209,95,-387
2931,111,77,1024,-213,15,-325
2932,103,46,999,-202,-26,-282
2933,101,39,977,-182,5,-325
2934,108,26,982,-194,80,-334
2935,111,41,1002,-209,132,-333
2936,103,34,1018,-157,150,-356
2937,116,52,1022,-40,160,-393
2938,109,58,1033,64,185,-434
2939,116,47,1080,109,203,-422
2940,121,57,1086,48,167,-401
2941,120,50,1099,-96,25,-364
2942,116,52,1055,-252,-100,-276
2943,109,51,1031,-313,-168,-192
2944,92,27,986,-266,-157,-137
2945,86,8,977,-165,-79,-125
2946,97,-16,1004,-79,-2,-178
2947,102,-26,1013,-28,50,-288
2948,106,-4,1038,1,85,-391
2949,97,0,1031,11,54,-418
2950,100,4,1031,-28,19,-403
2951,104,20,1041,-155,-2,-389
2952,111,44,1031,-331,-22,-325
2953,112,72,1016,-448,-71,-245
2954,117,66,1000,-442,-137,-163
2955,104,39,973,-313,-174,-165
2956,95,18,985,-106,-155,-235
2957,88,4,981,62,-94,-358
2958,74,-12,996,148,-8,-465
2959,96,-23,1008,113,74,-563
2960,106,6,1027,23,107,-573
2961,105,35,1034,-61,111,-526
2962,96,25,1039,-141,37,-475
2963,112,34,1028,-94,5,-372
2964,100,37,1016,-24,-26,-348
2965,93,18,1019,37,-24,-342
2966,104,-8,1011,48,-61,-350
2967,101,-12,997,-6,-79,-358
2968,99,-12,988,-81,-63,-375
2969,99,-18,994,-139,-32,-381
2970,96,3,1022,-186,31,-385
2971,112,21,1031,-211,54,-417
2972,116,36,1022,-208,27,-430
2973,125,51,1009,-180,-34,-411
2974,108,51,1004,-143,-49,-379
2975,115,33,1009,-81,-18,-360
2976,111,46,1023,-38,3,-381
2977,116,53,1038,-65,27,-381
2978,115,62,1025,-79,27,-342
2979,108,65,1016,-77,-26,-317
2980,114,35,1003,-47,-84,-311
2981,103,33,1011,5,-94,-344
2982,101,14,1010,64,-55,-395
2983,106,38,1027,125,0,-444
2984,104,41,1057,173,5,-473
2985,111,37,1050,166,-18,-446
2986,115,50,1068,111,-51,-401
2987,112,51,1042,3,-98,-348
2988,106,55,1042,-106,-106,-266
2989,106,45,1019,-167,-120,-194
2990,96,25,998,-159,-133,-178
2991,90,27,992,-92,-124,-217
2992,84,6,978,-2,-88,-280
2993,96,7,1011,93,-79,-383
2994,98,11,993,119,-118,-450
2995,109,24,996,76,-141,-448
2996,95,31,982,25,-131,-483
2997,115,60,987,-59,-79,-465
2998,110,69,978,-88,-38,-409
2999,113,97,1007,-122,-24,-368
3000,117,107,1008,-182,-22,-307
3001,113,108,995,-217,-49,-217
3002,113,106,971,-192,-71,-153
3003,105,83,959,-122,-90,-129
3004,104,60,946,-55,-86,-163
3005,90,41,930,-49,-53,-159
3006,85,39,942,-43,35,-170
3007,99,62,975,-18,126,-241
3008,108,80,994,11,185,-274
3009,104,111,1027,37,214,-299
3010,113,130,1023,78,232,-284
3011,126,132,1056,107,210,-196
3012,128,127,1064,111,189,-124
3013,130,112,1069,89,160,-69
3014,129,84,1090,64,125,-47
3015,128,79,1102,50,93,-69
3016,130,81,1131,93,134,-102
3017,123,87,1104,44,87,-55
3018,147,100,1172,119,175,-124
3019,146,94,1235,128,167,-122
3020,146,48,1308,85,107,-106
3021,159,0,1406,-40,48,-129
3022,208,-13,1472,-225,-10,-182
3023,248,21,1621,-465,-26,-198
3024,302,66,1815,-688,-42,-139
3025,338,119,2023,-764,33,-24
3026,396,113,2048,-786,-73,134
3027,474,43,2048,-877,-499,279
3028,557,-56,2048,-952,-1067,265
3029,627,-65,2048,-793,-1456,5
3030,582,-22,2048,-354,-1579,-516
3031,518,24,2048,52,-1596,-907
3032,486,43,2048,179,-1698,-1024
3033,473,57,2048,5,-2325,-936
3034,388,54,2048,-243,-3393,-747
3035,302,90,2048,-395,-4502,-497
3036,226,85,2048,-436,-5459,-219
3037,160,27,2048,-239,-6143,15
3038,101,-19,2048,187,-6590,-28
3039,36,-58,1997,667,-6844,-274
3040,1,-63,1889,1115,-6860,-583
3041,-7,-7,1794,1500,-6788,-809
3042,2,29,1661,1554,-6848,-899
3043,-28,104,1480,1261,-7106,-807
3044,-127,151,1252,855,-7456,-581
3045,-198,190,1012,324,-7774,-184
3046,-251,206,707,-98,-7991,228
3047,-344,180,485,-372,-8151,519
3048,-464,127,212,-485,-8124,826
3049,-563,-9,-71,-444,-7881,966
3050,-666,-55,-325,-368,-7422,810
3051,-746,-88,-583,-391,-6805,699
3052,-761,-83,-823,-553,-6100,708
3053,-747,4,-1057,-667,-5528,699
3054,-719,82,-1255,-688,-5030,621
3055,-595,204,-1560,-608,-4590,453
3056,-553,396,-1838,-555,-4055,433
3057,-586,468,-1985,-444,-3317,593
3058,-605,463,-2045,-225,-2286,841
3059,-633,388,-2019,91,-1006,1019
3060,-638,265,-1881,486,257,1009
3061,-574,218,-1725,724,1240,773
3062,-509,225,-1556,693,2041,572
3063,-465,242,-1426,546,2634,523
3064,-461,307,-1317,335,3154,529
3065,-463,365,-1157,93,3664,660
3066,-480,361,-1022,9,4083,996
3067,-509,349,-914,-6,4470,1398
3068,-572,262,-816,31,4824,1685
3069,-650,75,-681,181,5158,1810
3070,-703,-104,-516,417,5541,1806
3071,-732,-268,-298,667,5945,1605
3072,-747,-337,-70,847,6361,1214
3073,-732,-237,174,771,6855,714
3074,-744,-115,392,625,7453,357
3075,-714,-18,549,611,8033,335
3076,-690,58,679,623,8322,560
3077,-600,98,788,429,8375,847
3078,-510,4,984,103,8429,1138
3079,-566,-108,1349,21,8703,1324
3080,-590,-198,1765,136,9382,1285
3081,-581,-306,2048,404,10021,925
3082,-445,-391,2048,740,10492,640
3083,-241,-421,2048,843,10347,529
3084,2,-347,2048,544,9255,490
3085,101,-283,2048,246,7480,460
3086,98,-286,2048,375,5949,439
3087,185,-303,2048,738,5253,267
3088,338,-335,2048,894,5052,-53
3089,495,-346,2048,955,4722,-182
3090,577,-353,2048,732,4218,-168
3091,690,-325,2048,292,3345,-161
3092,746,-210,2048,-225,2292,-108
3093,744,-90,2048,-532,1236,-75
3094,755,0,2048,-692,105,-186
3095,706,-19,2048,-434,-1006,-254
3096,664,17,2048,50,-1827,-379
3097,595,74,2048,220,-2573,-559
3098,484,80,2048,25,-3321,-489
3099,388,52,2048,-137,-4024,-264
3100,278,13,2048,-274,-4682,-200
3101,152,1,2048,-354,-5163,-260
3102,69,-13,2048,-284,-5422,-362
3103,32,-26,2048,-59,-5565,-493
3104,6,-5,2048,191,-5719,-620
3105,-61,40,2048,359,-5934,-596
3106,-119,21,2048,458,-6270,-422
3107,-189,11,2028,462,-6725,-227
3108,-261,9,1883,406,-7137,-84
3109,-308,-17,1707,248,-7520,66
3110,-382,-21,1506,52,-7866,167
3111,-431,-3,1224,-221,-8211,23
3112,-428,0,902,-379,-8483,0
3113,-485,12,603,-495,-8518,-24
3114,-525,71,340,-622,-8233,-159
3115,-550,108,128,-676,-7739,-149
3116,-576,90,-49,-614,-7204,60
3117,-573,92,-218,-612,-6727,222
3118,-553,64,-426,-733,-6362,349
3119,-542,40,-622,-749,-6018,447
3120,-520,59,-826,-532,-5522,326
3121,-489,102,-997,-204,-4856,121
3122,-411,190,-1064,72,-4069,-55
3123,-325,301,-1072,273,-3188,-268
3124,-249,363,-1028,449,-2417,-276
3125,-225,363,-1001,576,-1981,-174
3126,-208,392,-1008,435,-1584,80
3127,-195,397,-1015,304,-1153,460
3128,-213,343,-1053,238,-756,755
3129,-241,277,-1080,212,-301,931
3130,-299,225,-1111,339,167,988
3131,-344,141,-1131,554,705,943
3132,-353,73,-1152,703,1298,796
3133,-357,96,-1150,642,1982,613
3134,-401,113,-1106,478,2716,572
3135,-403,149,-960,335,3417,664
3136,-363,203,-807,152,4074,744
3137,-326,252,-674,-24,4640,917
3138,-304,242,-492,42,5039,1134
3139,-346,212,-304,275,5212,1275
3140,-437,171,-215,539,5396,1343
3141,-551,80,-118,849,5716,1390
3142,-613,-33,27,1099,6146,1386
3143,-599,-160,231,1359,6660,1226
3144,-604,-260,509,1658,7292,837
3145,-497,-278,904,1957,8138,214
3146,-299,-238,1355,2101,8998,-422
3147,-161,-96,1823,1904,9720,-686
3148,-29,-12,2048,1576,9753,-528
3149,134,-33,2048,1263,9173,-69
3150,262,-86,2048,947,8187,339
3151,332,-153,2048,523,6888,537
3152,414,-183,2048,58,5535,619
3153,436,-214,2048,-331,4296,746
3154,485,-305,2048,-612,3337,951
3155,515,-331,2048,-854,2566,1015
3156,528,-350,2048,-920,2037,878
3157,520,-268,2048,-766,1759,464
3158,485,-131,2048,-530,1673,64
3159,484,-15,2048,-434,1574,-81
3160,470,56,2048,-450,1376,42
3161,439,79,2048,-545,1042,232
3162,426,119,1962,-663,566,404
3163,393,148,1773,-790,42,583
3164,319,98,1611,-782,-313,712
3165,287,92,1463,-524,-354,708
3166,268,7,1351,-83,-323,564
3167,229,-73,1291,302,-295,369
3168,149,-91,1240,458,-340,152
3169,100,-117,1203,406,-286,33
3170,120,-139,1176,287,-110,0
3171,143,-109,1184,175,103,-40
3172,127,-91,1195,66,171,-65
3173,118,-69,1194,35,117,-77
3174,119,-41,1137,50,-69,-86
3175,116,-7,1077,-53,-288,3
3176,99,10,995,-200,-458,203
3177,58,-19,911,-340,-569,386
3178,13,-54,871,-424,-586,490
3179,16,-84,842,-411,-520,533
3180,15,-94,829,-286,-352,408
3181,14,-98,857,-73,-153,74
3182,39,-75,905,195,31,-202
3183,69,-42,935,322,128,-278
3184,92,5,974,214,125,-235
3185,99,42,979,-8,62,-125
3186,94,52,974,-170,-2,48
3187,103,35,978,-215,-61,160
3188,100,2,990,-184,-49,154
3189,84,4,992,-96,-43,111
3190,65,-37,1013,-42,-51,107
3191,71,-73,1015,-4,-30,111
3192,57,-102,990,-49,25,78
3193,65,-137,979,-120,130,44
3194,69,-107,977,-141,251,0
3195,83,-53,998,-167,451,-124
3196,115,35,1057,-206,675,-206
3197,145,74,1094,-235,625,-270
3198,137,98,1120,-278,312,-155
3199,119,85,1068,-141,56,48
3200,109,39,1045,29,-114,136
3201,99,-33,1025,91,-200,111
3202,93,-56,1012,89,-209,99
3203,90,-76,976,-4,-209,134
3204,84,-110,962,-120,-145,113
3205,84,-112,1005,-165,1,-36
3206,109,-79,1028,-215,80,-182
3207,111,-53,1074,-286,56,-174
3208,118,-23,1083,-311,7,-114
3209,112,-5,1064,-280,-88,-61
3210,101,-26,1031,-227,-192,-8
3211,95,-58,992,-165,-266,33
3212,87,-91,981,-127,-254,37
3213,89,-105,960,-131,-219,21
3214,82,-116,977,-88,-139,-53
3215,90,-95,993,-14,-67,-157
3216,105,-79,1012,9,-10,-286
3217,85,-38,1005,-73,13,-346
3218,93,-27,1015,-202,-6,-272
3219,86,-31,996,-284,-43,-190
3220,96,-48,1010,-270,-63,-184
3221,108,-37,1004,-174,-51,-237
3222,98,-37,998,-32,-45,-299
3223,95,-47,1023,80,-34,-342
3224,100,-31,1007,117,3,-370
3225,92,-28,1024,85,-6,-383
3226,100,-33,1022,-16,-2,-387
3227,97,-23,1030,-77,11,-311
3228,96,-45,1032,-88,-2,-252
3229,98,-84,1061,-135,-34,-284
3230,107,-80,1041,-213,-98,-333
3231,113,-46,1035,-293,-155,-342
3232,98,-3,1057,-327,-198,-313
3233,92,15,1029,-309,-202,-260
3234,101,8,999,-245,-170,-198
3235,94,-13,962,-186,-161,-178
3236,87,-44,944,-186,-131,-170
3237,86,-74,955,-149,-83,-209
3238,76,-92,985,-100,15,-305
3239,98,-75,994,-96,70,-403
3240,106,-45,1020,-147,83,-452
3241,92,-45,1038,-147,37,-545
3242,108,-26,1061,-133,11,-583
3243,117,-16,1013,-129,-8,-563
3244,114,-22,1012,-147,-63,-506
3245,110,-29,1015,-151,-122,-500
3246,107,-18,1000,-131,-100,-532
3247,94,-15,1006,-43,-36,-520
3248,106,-23,1011,35,7,-524
3249,100,-22,1035,3,66,-534
3250,103,-21,1040,-124,72,-444
3251,124,-11,1053,-262,37,-325
3252,107,-4,1052,-346,-24,-303
3253,114,4,1070,-295,-75,-325
3254,109,30,1048,-157,-168,-383
3255,94,16,1013,-30,-213,-467
3256,89,2,1013,15,-161,-508
3257,90,21,1007,-55,-106,-459
3258,96,24,1023,-174,-55,-387
3259,84,25,1016,-260,-65,-372
3260,94,9,1011,-276,-42,-403
3261,98,13,1000,-194,-18,-415
3262,98,26,1002,-53,-22,-440
3263,101,21,1007,41,-22,-471
3264,103,25,1001,70,-32,-450
3265,115,34,1017,-26,-43,-399
3266,113,45,1024,-176,-98,-305
3267,104,42,1012,-258,-159,-184
3268,98,17,996,-274,-176,-122
3269,77,7,981,-266,-159,-65
3270,73,-11,963,-250,-110,-34
3271,73,-19,950,-211,-63,-112
3272,70,-43,931,-172,19,-221
3273,62,-58,959,-94,105,-264
3274,72,-61,993,-14,160,-340
3275,90,-47,1009,58,193,-458
3276,105,-37,1023,109,146,-512
3277,113,1,1025,111,82,-491
3278,112,6,1014,58,15,-391
3279,102,-32,991,-2,-47,-307
3280,92,-36,987,-81,-49,-282
3281,87,-38,959,-147,3,-262
3282,71,-38,986,-104,78,-297
3283,102,-27,1009,-38,175,-393
3284,108,1,1014,-12,208,-411
3285,109,3,1038,-43,197,-375
3286,115,-28,1038,-77,158,-319
3287,106,-63,1058,-77,144,-305
3288,116,-56,1053,-47,169,-366
3289,134,-48,1092,-24,136,-458
3290,136,-2,1093,-30,54,-485
3291,121,6,1084,-69,-53,-403
3292,101,-7,1042,-147,-125,-303
3293,104,-3,1012,-190,-122,-196
3294,111,-5,983,-217,-129,-229
3295,95,-4,1000,-190,-114,-288
3296,97,-5,970,-83,-81,-325
3297,101,16,980,9,-43,-391
3298,83,33,993,64,13,-407
3299,87,32,1008,89,46,-391
3300,81,36,1011,89,95,-448
3301,113,36,1026,42,125,-489
3302,105,58,1028,0,107,-434
3303,104,77,1020,-61,27,-358
3304,115,63,1011,-120,-43,-278
3305,95,56,998,-131,-75,-196
3306,92,43,990,-131,-43,-163
3307,102,41,988,-94,-40,-153
3308,89,31,981,-49,-65,-135
3309,72,40,957,-24,0,-145
3310,76,46,975,-49,89,-176
3311,86,51,1003,-133,173,-200
3312,94,87,1016,-213,212,-137
3313,110,88,1030,-209,166,-59
3314,115,93,1047,-114,76,-75
3315,118,93,1035,17,3,-102
3316,98,73,1018,169,-59,-98
3317,82,36,1038,281,-106,-94
3318,77,14,1027,302,-84,-98
3319,87,-2,1014,238,-59,-102
3320,81,-3,998,62,-42,-75
3321,74,-9,995,-133,5,-6
3322,79,7,972,-241,62,25
3323,90,8,1015,-235,105,7
3324,92,30,1021,-127,101,-24
3325,98,65,1006,3,95,-57
3326,98,53,1009,58,21,-34
3327,99,33,990,56,-22,48
3328,81,7,983,29,29,109
3329,82,-24,972,1,93,136
3330,93,-43,1012,0,146,68
3331,96,-38,1036,-4,171,-12
3332,104,-29,1026,-49,160,-40
3333,108,-23,1013,-161,101,-32
3334,100,-26,1028,-262,35,-20
3335,85,-9,1016,-292,0,-6
3336,95,10,1018,-208,-24,5
3337,94,-4,1013,-30,-30,-16
3338,102,-16,1017,111,-20,-116
3339,94,-18,1028,171,46,-131
3340,95,-4,1056,167,138,-102
3341,110,-8,1073,89,138,-83
3342,111,-19,1072,-2,54,-26
3343,102,-21,1070,-63,-30,25
3344,102,-31,1044,-96,-90,-14
3345,81,-27,1038,-86,-94,-53
3346,85,-8,1016,-55,-81,-75
3347,84,-5,1011,-47,-63,-94
3348,79,-14,1025,13,11,-124
3349,95,2,1018,35,58,-143
3350,103,26,1053,-22,74,-110
3351,100,15,1056,-65,66,-20
3352,103,16,1040,-125,13,33
3353,102,5,1036,-190,-26,58
3354,92,6,1022,-186,-55,50
3355,90,23,1000,-133,-96,3
3356,103,21,993,-51,-124,-36
3357,83,13,999,31,-102,-61
3358,96,9,988,62,-84,-63
3359,105,17,1023,41,-104,-42
3360,99,15,1028,31,-151,-34
3361,99,30,1030,7,-182,7
3362,96,16,1035,-34,-188,52
3363,106,-19,1047,-18,-227,70
3364,118,-39,1067,27,-258,11
3365,126,-65,1089,83,-252,-73
3366,161,-50,1116,166,-172,-168
3367,176,-15,1227,181,11,-272
3368,235,26,1386,140,292,-344
3369,313,68,1520,-12,500,-379
3370,383,84,1701,-208,570,-323
3371,401,86,1933,-272,488,-272
3372,464,48,2048,-176,76,-211
3373,470,-55,2048,-79,-741,-118
3374,476,-115,2048,76,-1467,-254
3375,467,-147,2048,341,-1936,-569
3376,487,-169,2048,736,-2161,-866
3377,508,-138,2048,1181,-2295,-1264
3378,515,-52,2048,1339,-2690,-1559
3379,551,16,2048,1121,-3375,-1545
3380,507,120,2048,787,-3969,-1276
3381,468,167,2048,517,-4512,-971
3382,410,203,2048,376,-4989,-833
3383,350,229,2048,390,-5448,-655
3384,279,225,2048,384,-5930,-481
3385,225,199,2048,294,-6399,-264
3386,151,151,2048,281,-6807,-67
3387,56,135,2018,476,-7086,-61
3388,-35,84,1920,634,-7348,-208
3389,-110,68,1772,765,-7553,-290
3390,-198,104,1572,765,-7752,-237
3391,-266,140,1332,566,-8057,-163
3392,-361,190,1030,298,-8409,0
3393,-418,265,700,-20,-8680,253
3394,-514,288,354,-295,-8776,601
3395,-595,275,24,-426,-8647,919
3396,-666,165,-255,-194,-8182,1074
3397,-684,93,-504,304,-7442,800
3398,-704,73,-692,962,-6575,386
3399,-679,121,-899,1582,-5741,97
3400,-674,177,-1098,2027,-5030,-16
3401,-655,158,-1322,2324,-4458,9
3402,-635,104,-1513,2472,-4012,85
3403,-607,52,-1631,2453,-3469,162
3404,-607,-35,-1719,2320,-2657,240
3405,-568,-84,-1704,2210,-1602,154
3406,-518,-75,-1611,2019,-405,-8
3407,-423,-19,-1443,1675,703,-67
3408,-351,70,-1349,1046,1363,64
3409,-331,157,-1279,271,1759,339
3410,-339,194,-1215,-434,1953,705
3411,-370,189,-1194,-948,2152,1115
3412,-411,162,-1153,-1229,2486,1521
3413,-475,94,-1102,-1397,2958,1720
3414,-500,1,-1056,-1397,3533,1695
3415,-535,-70,-993,-1188,4066,1603
3416,-598,-140,-940,-997,4589,1492
3417,-686,-221,-847,-840,5121,1335
3418,-748,-285,-720,-651,5568,1109
3419,-812,-311,-564,-418,6007,871
3420,-869,-334,-418,-266,6462,683
3421,-909,-340,-283,-114,6916,476
3422,-929,-279,-73,70,7496,138
3423,-931,-163,257,207,8326,-237
3424,-925,-148,685,480,9308,-495
3425,-869,-182,1150,550,10158,-473
3426,-703,-256,1538,253,10486,-229
3427,-443,-267,1930,-479,10216,13
3428,-261,-261,2048,-1088,9484,250
3429,-102,-225,2048,-987,8472,279
3430,34,-74,2048,-284,7917,-168
3431,154,-8,2048,361,7761,-776
3432,359,42,2048,503,7726,-852
3433,507,61,2048,-86,7615,-319
3434,608,-43,2048,-1196,6902,664
3435,776,-237,2048,-2118,5820,1515
3436,931,-264,2048,-2081,4681,1464
3437,1073,-104,2048,-1172,3757,542
3438,1120,51,2048,23,2890,-292
3439,1120,130,2048,687,1687,-500
3440,1147,164,2048,468,542,-637
3441,1147,250,2048,-186,-518,-602
3442,1115,370,2048,-629,-1213,-319
3443,1082,429,2048,-463,-1657,-122
3444,975,378,2048,50,-2436,-24
3445,864,293,2048,535,-3444,33
3446,637,176,2048,521,-4602,93
3447,451,113,2048,208,-5612,261
3448,271,54,2048,46,-6301,375
3449,130,1,2048,183,-6774,304
3450,1,-77,2048,466,-7237,175
3451,-101,-142,2048,777,-7577,9
3452,-196,-161,2048,1005,-7778,-249
3453,-280,-167,2048,1058,-7864,-364
3454,-342,-129,2046,988,-7850,-358
3455,-412,-109,1917,871,-7924,-186
3456,-503,-154,1761,751,-8184,-24
3457,-610,-221,1566,640,-8518,54
3458,-665,-276,1330,517,-8780,117
3459,-720,-270,1072,230,-9051,185
3460,-797,-233,792,-12,-9274,246
3461,-860,-236,499,-81,-9356,314
3462,-890,-167,142,-258,-9282,250
3463,-954,-61,-256,-629,-9012,85
3464,-1007,22,-611,-958,-8418,146
3465,-977,134,-924,-956,-7469,310
3466,-919,155,-1160,-454,-6344,267
3467,-820,84,-1178,455,-5209,-49
3468,-720,16,-1176,1484,-4397,-584
3469,-598,78,-1304,2339,-3961,-1151
3470,-550,271,-1527,2609,-3745,-1454
3471,-564,361,-1685,2414,-3430,-1292
3472,-562,401,-1748,1931,-2741,-850
3473,-520,447,-1814,1173,-1817,-336
3474,-453,464,-1758,521,-731,199
3475,-381,483,-1618,421,181,628
3476,-317,484,-1551,558,916,794
3477,-249,414,-1475,615,1474,968
3478,-214,325,-1327,722,1800,1035
3479,-169,228,-1122,542,2142,1085
3480,-163,209,-1079,78,2537,1195
3481,-193,182,-996,-163,2900,1277
3482,-241,95,-859,-196,3384,1285
3483,-245,26,-784,-209,3904,1265
3484,-239,-7,-732,-346,4337,1218
3485,-280,-42,-577,-319,4722,1136
3486,-271,-77,-396,-69,5105,1052
3487,-210,-75,-236,189,5554,890
3488,-190,-72,-87,576,6003,662
3489,-228,-48,113,1009,6357,468
3490,-285,-52,289,1226,6613,421
3491,-324,-35,407,1128,6738,474
3492,-367,-101,497,935,6779,578
3493,-362,-179,625,919,6806,630
3494,-324,-159,813,886,7031,435
3495,-331,-127,1028,964,7472,50
3496,-321,-171,1290,1132,7994,-266
3497,-236,-222,1540,1195,8265,-565
3498,-147,-188,1719,914,8265,-608
3499,-100,-201,1828,439,7916,-397
3500,21,-169,1878,107,7285,-137
3501,206,-89,2048,72,6750,-122
3502,299,94,2048,322,6642,-532
3503,301,264,2048,482,6546,-788
3504,357,293,2048,507,6078,-372
3505,548,244,2048,386,5068,220
3506,657,227,2048,107,4101,447
3507,581,216,2048,-190,3519,408
3508,513,155,2048,-344,3335,292
3509,548,123,2048,-499,3326,306
3510,624,138,2048,-905,3066,417
3511,644,166,2048,-1159,2535,439
3512,640,191,2048,-1092,1878,382
3513,641,229,2048,-815,1113,335
3514,560,211,2048,-706,304,375
3515,455,159,2048,-672,-196,474
3516,416,109,2000,-641,-360,625
3517,381,50,1890,-592,-452,662
3518,303,23,1805,-528,-487,558
3519,289,-27,1652,-483,-520,414
3520,261,-57,1501,-387,-575,328
3521,259,-42,1361,-407,-602,228
3522,225,13,1197,-512,-602,189
3523,179,26,1116,-487,-534,171
3524,138,51,1079,-280,-399,52
3525,116,102,1032,-79,-336,-43
3526,129,122,1007,11,-370,1
3527,159,122,967,-16,-450,85
3528,147,118,915,-122,-518,242
3529,123,40,855,-258,-622,408
3530,81,-27,835,-348,-620,443
3531,78,-55,815,-350,-452,417
3532,72,-89,830,-256,-272,318
3533,84,-97,854,-81,-133,103
3534,95,-76,873,126,-14,-106
3535,127,13,858,214,3,-178
3536,162,102,843,150,21,-131
3537,153,114,892,97,-28,21
3538,126,89,914,56,-190,177
3539,126,32,899,-10,-290,322
3540,117,-7,914,-94,-297,361
3541,112,-34,904,-229,-243,371
3542,144,-24,905,-368,-167,349
3543,138,-9,895,-395,-124,285
3544,121,22,871,-243,-65,167
3545,119,53,867,-116,83,64
3546,120,58,932,17,304,56
3547,138,52,1003,128,482,87
3548,167,25,1073,111,609,87
3549,165,-8,1177,87,642,125
3550,175,-24,1210,0,464,189
3551,197,-47,1185,-155,123,218
3552,176,-37,1128,-254,-196,199
3553,152,1,1049,-243,-405,185
3554,130,-5,977,-163,-479,119
3555,106,-2,939,-53,-418,23
3556,110,-5,921,41,-206,-77
3557,128,2,889,136,11,-157
3558,144,27,902,189,232,-131
3559,154,51,931,154,416,-69
3560,185,46,971,91,464,-32
3561,190,66,992,1,472,1
3562,200,77,1029,-26,330,29
3563,198,67,1064,-22,132,21
3564,196,45,1050,31,-116,-57
3565,174,43,1071,78,-231,-81
3566,174,41,1037,48,-303,-49
3567,149,-2,1008,-40,-307,-8
3568,133,13,971,-98,-227,-77
3569,127,69,930,-168,-143,-131
3570,104,44,940,-180,-2,-73
3571,110,36,955,-69,132,-55
3572,129,22,966,-14,226,-104
3573,128,-3,988,46,300,-120
3574,142,-6,1023,60,322,-114
3575,158,-17,1064,-38,261,-139
3576,169,-25,1068,-188,117,-133
3577,171,11,1056,-272,-59,-133
3578,160,26,1032,-336,-211,-149
3579,125,29,1017,-360,-282,-163
3580,129,46,984,-331,-276,-133
3581,105,26,933,-266,-229,-88
3582,106,-6,942,-174,-81,-120
3583,120,-31,945,-75,105,-237
3584,141,-32,970,-12,226,-305
3585,147,-21,998,-59,291,-352
3586,169,3,1046,-143,277,-411
3587,187,60,1073,-239,205,-417
3588,184,98,1062,-297,83,-366
3589,167,99,1072,-272,-79,-309
3590,160,109,1047,-227,-124,-233
3591,169,77,1019,-252,-161,-196
3592,160,65,1009,-295,-180,-176
3593,140,58,978,-305,-176,-153
3594,138,61,987,-284,-118,-155
3595,133,56,989,-239,-40,-174
3596,138,71,994,-81,56,-254
3597,148,73,992,128,115,-387
3598,160,80,1045,304,146,-467
3599,181,82,1064,326,42,-471
3600,172,96,1048,169,-122,-379
3601,159,83,1039,-83,-215,-206
3602,144,61,1023,-325,-198,0
3603,127,37,960,-512,-125,130
3604,119,15,972,-551,-51,132
3605,121,-1,977,-432,-28,64
3606,123,-18,988,-249,-24,-26
3607,135,-39,978,-77,3,-145
3608,142,-33,988,39,37,-293
3609,136,-18,1003,0,66,-358
3610,147,-11,1025,-96,111,-329
3611,172,31,1040,-217,83,-309
3612,161,16,1048,-352,-36,-256
3613,137,7,1054,-372,-112,-204
3614,165,14,1028,-362,-155,-202
3615,157,0,1009,-338,-186,-223
3616,149,6,1000,-252,-174,-280
3617,157,30,993,-135,-122,-340
3618,151,50,994,-2,-63,-395
3619,153,47,1005,66,-42,-415
3620,149,69,1009,62,-16,-399
3621,141,65,995,-45,-14,-358
3622,153,73,983,-184,29,-270
3623,181,93,1006,-299,-2,-223
3624,163,109,993,-325,-84,-190
3625,135,98,961,-190,-112,-174
3626,138,98,990,27,-40,-174
3627,134,79,1005,162,37,-235
3628,136,83,1008,150,78,-295
3629,134,69,992,74,91,-268
3630,146,58,1015,-24,95,-198
3631,150,40,985,-141,83,-167
3632,142,41,1002,-204,56,-163
3633,122,30,1005,-202,33,-151
3634,135,21,1029,-159,68,-176
3635,142,23,1016,-108,91,-213
3636,145,1,998,-73,35,-223
3637,138,-9,1012,-59,-2,-252
3638,147,-6,1017,-55,-2,-295
3639,144,8,1027,-63,-16,-325
3640,140,1,1008,-45,-43,-303
3641,134,7,1021,-32,-24,-311
3642,144,16,1015,-84,7,-329
3643,145,14,989,-200,0,-288
3644,138,-1,989,-315,-24,-233
3645,152,2,976,-348,-32,-245
3646,151,16,968,-274,-28,-293
3647,141,30,982,-149,-24,-354
3648,132,24,978,-81,-36,-372
3649,134,23,966,-114,-38,-346
3650,136,14,970,-188,-18,-309
3651,142,5,956,-258,19,-274
3652,142,8,982,-338,70,-288
3653,140,27,979,-395,95,-295
3654,141,30,992,-362,93,-288
3655,142,43,992,-245,101,-329
3656,147,52,1015,-110,128,-393
3657,158,41,1024,17,97,-438
3658,146,39,1023,52,39,-426
3659,153,33,1033,-18,-2,-377
3660,143,37,1051,-190,-40,-329
3661,136,36,1025,-360,-84,-241
3662,127,18,986,-424,-110,-194
3663,134,18,970,-358,-53,-247
3664,133,33,981,-206,41,-336
3665,143,45,991,-77,134,-420
3666,139,66,1042,0,218,-454
3667,143,74,1051,-4,191,-413
3668,160,73,1033,-84,109,-350
3669,141,67,1021,-186,42,-295
3670,123,71,1012,-219,15,-252
3671,139,54,987,-239,-16,-221
3672,139,50,981,-227,0,-231
3673,132,49,982,-196,31,-252
3674,139,58,1005,-135,58,-303
3675,128,69,1019,-49,72,-344
3676,142,79,992,23,78,-327
3677,136,77,1014,33,97,-292
3678,137,79,1024,-32,105,-229
3679,148,93,1034,-159,109,-127
3680,141,88,1033,-280,74,15
3681,132,63,1009,-329,1,130
3682,119,33,995,-313,-43,146
3683,113,24,982,-272,-63,119
3684,112,-2,984,-223,-28,48
3685,114,-2,978,-168,-10,-6
3686,115,-9,981,-124,9,-84
3687,122,-12,985,-92,74,-194
3688,128,0,988,-47,144,-268
3689,121,22,1025,0,189,-280
3690,145,40,1020,29,210,-286
3691,137,38,1047,15,175,-256
3692,136,29,1046,-24,138,-204
3693,148,41,1037,-90,83,-153
3694,135,14,1036,-127,27,-92
3695,124,-7,1018,-127,5,-59
3696,110,-27,995,-108,25,-88
3697,109,-42,992,-116,37,-110
3698,107,-61,1009,-170,46,-139
3699,98,-65,1029,-268,44,-163
3700,99,-53,1020,-334,46,-161
3701,123,-41,1012,-336,83,-194
3702,123,-30,1024,-245,85,-284
3703,118,-13,1040,-118,74,-377
3704,124,4,1038,13,64,-409
3705,143,17,1032,85,37,-430
3706,153,25,1044,11,-22,-407
3707,136,31,1043,-143,-65,-286
3708,132,34,1005,-247,-61,-182
3709,135,20,988,-252,-45,-151
3710,137,11,1018,-211,-26,-188
3711,127,17,1002,-161,21,-249
3712,129,26,1020,-122,52,-293
3713,135,29,1039,-137,64,-311
3714,138,50,1043,-174,52,-329
3715,142,84,1035,-188,27,-329
3716,136,77,1033,-168,-36,-280
3717,124,47,1009,-112,-81,-233
3718,116,44,992,-53,-88,-243
3719,114,40,993,-24,-51,-270
3720,110,43,1008,0,21,-286
3721,116,35,996,0,68,-284
3722,115,46,1012,-38,89,-264
3723,111,53,1025,-90,128,-235
3724,134,64,1042,-145,132,-206
3725,137,64,1069,-211,74,-167
3726,137,67,1056,-241,-47,-116
3727,116,59,1011,-198,-194,-90
3728,94,41,972,-122,-241,-84
3729,93,37,946,-24,-182,-108
3730,98,28,944,-2,-61,-106
3731,102,18,927,17,21,-125
3732,110,11,961,-18,101,-159
3733,97,25,996,-63,234,-172
3734,124,38,1021,-110,316,-135
3735,138,29,1030,-192,269,-84
3736,119,32,1036,-241,173,-53
3737,116,34,1031,-221,97,-59
3738,125,46,1000,-190,56,-65
3739,125,34,984,-133,33,-51
3740,113,31,979,-51,35,-42
3741,107,16,978,1,78,-59
3742,107,22,1002,7,146,-69
3743,95,20,1027,-12,205,-69
3744,107,19,1077,-155,347,-12
3745,149,34,1139,-374,466,-12
3746,172,39,1220,-602,537,7
3747,222,51,1306,-772,466,1
3748,242,78,1391,-745,347,5
3749,258,105,1499,-598,423,-36
3750,315,162,1614,-374,472,-86
3751,347,185,1741,-145,457,0
3752,404,113,1843,64,257,136
3753,384,33,2031,257,107,236
3754,424,-6,2048,382,93,189
3755,484,-44,2048,404,253,17
3756,547,-8,2048,458,300,-249
3757,574,48,2048,550,189,-557
3758,552,135,2048,671,-102,-743
3759,580,203,2048,707,-887,-700
3760,530,221,2048,531,-2168,-411
3761,409,207,2048,242,-3764,31
3762,248,135,2048,-129,-5368,435
3763,70,43,2048,-329,-6323,650
3764,-46,-65,2048,-381,-6911,568
3765,-149,-182,2048,-295,-7327,349
3766,-213,-226,2048,-231,-7518,189
3767,-256,-193,1936,-182,-7588,-125
3768,-263,-125,1772,-71,-7639,-413
3769,-283,-32,1678,132,-7663,-573
3770,-325,50,1530,341,-7725,-598
3771,-362,94,1401,521,-7930,-469
3772,-414,79,1207,488,-8250,-208
3773,-465,55,976,351,-8684,107
3774,-557,32,726,54,-9186,457
3775,-613,-3,460,-348,-9547,736
3776,-682,16,169,-809,-9659,964
3777,-690,-14,-151,-1262,-9465,1121
3778,-727,-11,-467,-1635,-8956,1060
3779,-757,88,-823,-1901,-8217,765
3780,-740,241,-1180,-1850,-7329,332
3781,-715,425,-1479,-1456,-6432,-67
3782,-680,628,-1665,-811,-5426,-43
3783,-647,719,-1877,15,-4280,185
3784,-646,699,-2036,701,-3272,560
3785,-654,562,-2048,1152,-2204,876
3786,-654,444,-2048,1437,-1034,1160
3787,-664,276,-2002,1601,85,1328
3788,-663,85,-1896,1578,1031,1273
3789,-620,-11,-1766,1425,1732,1003
3790,-544,-9,-1691,1228,2363,671
3791,-517,53,-1616,1037,2998,357
3792,-529,160,-1494,832,3572,142
3793,-554,282,-1346,751,4218,150
3794,-554,342,-1164,962,4880,392
3795,-567,280,-943,1251,5470,683
3796,-608,126,-705,1423,5871,925
3797,-645,-73,-492,1416,6144,1005
3798,-676,-190,-294,1306,6287,867
3799,-681,-262,-120,1177,6406,675
3800,-670,-250,37,1037,6562,392
3801,-724,-213,248,800,6988,146
3802,-794,-217,469,619,7640,68
3803,-802,-201,723,519,8203,33
3804,-736,-127,974,460,8568,95
3805,-562,-131,1160,339,8875,304
3806,-421,-143,1417,15,9019,435
3807,-378,-250,1714,-334,9123,761
3808,-334,-356,2048,-288,9187,1048
3809,-200,-417,2048,-100,9158,810
3810,-112,-359,2048,207,9029,68
3811,25,-264,2048,275,8726,-583
3812,197,-224,2048,132,8201,-577
3813,338,-171,2048,-30,7453,-381
3814,465,-131,2048,-88,6656,-502
3815,536,-106,2048,162,5833,-522
3816,675,-94,2048,314,4861,-415
3817,746,-63,2048,171,3798,-219
3818,780,-81,2048,-63,2833,72
3819,829,-44,2048,-61,2251,146
3820,897,2,2048,310,1638,-90
3821,918,73,2048,802,941,-499
3822,926,98,2048,1052,-49,-655
3823,894,111,2048,1001,-1219,-641
3824,805,125,2048,410,-2506,-530
3825,693,136,2048,-194,-3608,-84
3826,516,104,2048,-249,-4405,85
3827,407,36,2048,76,-4956,-98
3828,316,-2,2048,539,-5323,-348
3829,233,-37,2048,921,-5709,-536
3830,110,-68,2048,958,-6290,-563
3831,17,-41,2048,746,-6852,-450
3832,-66,-2,2048,326,-7377,-208
3833,-186,-1,2048,-122,-7981,146
3834,-276,-22,2048,-479,-8534,404
3835,-391,-43,2025,-643,-9042,511
3836,-529,-52,1735,-713,-9454,464
3837,-627,-74,1413,-672,-9516,332
3838,-706,-148,1075,-461,-9370,27
3839,-747,-146,829,-188,-9116,-417
3840,-793,-65,587,-112,-8776,-741
3841,-816,15,340,-196,-8493,-678
3842,-828,46,6,-379,-8338,-391
3843,-829,74,-373,-627,-8100,-108
3844,-873,44,-700,-887,-7676,130
3845,-824,65,-1026,-934,-6965,244
3846,-759,183,-1259,-538,-6008,107
3847,-692,290,-1333,72,-5020,-217
3848,-593,421,-1433,583,-4127,-428
3849,-531,477,-1553,886,-3209,-432
3850,-489,479,-1569,1029,-2450,-364
3851,-406,469,-1567,1125,-1708,-237
3852,-357,422,-1537,1095,-1004,3
3853,-331,400,-1481,951,-485,261
3854,-275,396,-1501,837,7,482
3855,-291,365,-1458,919,500,615
3856,-299,306,-1375,1123,906,638
3857,-266,310,-1331,1238,1417,644
3858,-261,265,-1287,1160,1986,712
3859,-290,189,-1198,986,2449,863
3860,-281,111,-1089,626,2912,1019
3861,-297,44,-991,150,3376,1195
3862,-317,-22,-834,-186,3751,1333
3863,-320,-12,-742,-375,4058,1322
3864,-340,3,-660,-368,4486,1230
3865,-364,-20,-515,-159,4884,1113
3866,-401,-86,-292,103,5253,1078
3867,-441,-134,-77,242,5656,1033
3868,-471,-180,196,261,6056,919
3869,-415,-190,420,289,6396,835
3870,-287,-148,564,335,6587,841
3871,-206,-138,707,378,6689,863
3872,-220,-93,835,468,6734,845
3873,-287,-112,1028,638,6789,851
3874,-225,-201,1320,902,7009,828
3875,-68,-238,1669,1123,7244,541
3876,73,-137,2048,1050,7433,-20
3877,251,-48,2048,744,7621,-245
3878,388,-89,2048,296,7511,146
3879,538,-196,2048,-448,6554,753
3880,623,-249,2048,-1258,5330,1246
3881,564,-299,2048,-1356,4511,1425
3882,523,-303,2048,-852,3976,1097
3883,565,-296,2048,-219,3560,607
3884,661,-310,2048,296,3138,265
3885,668,-224,2048,228,2673,-24
3886,588,-113,2048,-305,2302,50
3887,551,-38,2048,-745,1970,386
3888,535,-11,2048,-971,1701,550
3889,503,62,1985,-858,1429,458
3890,470,136,1898,-500,1091,289
3891,392,158,1769,-178,628,162
3892,340,124,1600,5,246,138
3893,280,48,1435,78,29,240
3894,219,12,1269,15,-12,300
3895,154,-62,1165,-61,132,347
3896,134,-151,1144,-61,394,343
3897,108,-186,1146,44,660,240
3898,119,-164,1235,82,800,37
3899,160,-106,1278,1,808,-122
3900,203,-49,1282,-124,767,-84
3901,201,-52,1248,-209,599,27
3902,205,-24,1210,-139,312,23
3903,158,26,1130,23,42,-6
3904,109,34,1034,205,-98,3
3905,89,-18,965,345,-79,-32
3906,81,-61,934,392,56,-59
3907,76,-61,969,228,289,-51
3908,124,-31,1005,9,515,9
3909,154,-11,1022,-211,558,154
3910,162,-18,1077,-325,554,261
3911,180,-33,1136,-264,492,271
3912,195,-61,1161,-57,345,236
3913,201,-89,1208,232,140,117
3914,180,-106,1212,458,-69,-16
3915,167,-76,1217,431,-241,-24
3916,146,-56,1209,42,-317,70
