sequence,AccelerometerX,AccelerometerY,AccelerometerZ,GyroscopeX,GyroscopeY,GyroscopeZ
0,88,29,1026,-30,-18,-18
1,74,28,1030,-22,1,0
2,83,11,1036,-10,27,21
3,67,7,1041,-32,23,31
4,76,-9,1055,-34,19,29
5,77,3,1053,-61,1,15
6,59,-9,1042,-63,-18,-12
7,62,-3,1041,-42,-14,-53
8,75,1,1029,-43,-16,-65
9,76,4,1033,-57,-18,-65
10,80,12,1041,-73,-32,-55
11,79,17,1042,-59,-38,-45
12,81,21,1039,-32,-30,-14
13,83,17,1025,0,-26,-8
14,83,3,1021,-8,-12,7
15,88,-8,1029,-10,9,-8
16,89,-4,1058,-12,19,-40
17,75,5,1044,-26,5,-57
18,74,4,1059,-34,-6,-55
19,73,9,1067,-53,-36,-49
20,73,11,1039,-38,-59,-49
21,68,-6,1043,-4,-53,-26
22,70,-7,1043,11,-18,-22
23,67,-7,1038,-20,1,-42
24,81,-1,1037,-34,23,-67
25,81,10,1051,-65,21,-79
26,70,15,1052,-100,9,-92
27,78,15,1047,-114,-36,-90
28,81,16,1054,-116,-79,-84
29,72,11,1038,-96,-96,-55
30,80,-1,1029,-83,-65,-36
31,73,0,1033,-36,-10,-14
32,79,3,1027,0,25,5
33,63,1,1042,15,39,13
34,76,-6,1035,21,35,11
35,59,-13,1049,9,42,0
36,69,-24,1071,11,23,-20
37,64,-12,1089,0,-14,-49
38,56,3,1071,-12,-61,-71
39,70,-4,1055,-67,-84,-77
40,68,15,1045,-90,-90,-96
41,74,15,1046,-81,-116,-88
42,74,10,1033,-30,-114,-45
43,77,15,1022,5,-81,-22
44,77,12,1025,0,-49,5
45,73,-19,1042,-8,-18,13
46,75,-25,1039,1,9,-14
47,64,-7,1050,7,5,-49
48,69,-1,1067,-14,-22,-57
49,71,0,1067,-36,-63,-53
50,65,8,1053,-40,-108,-55
51,74,5,1052,-69,-114,-61
52,85,10,1037,-88,-104,-73
53,86,8,1025,-88,-92,-57
54,92,8,1031,-49,-75,-42
55,74,5,1015,-16,-61,-26
56,79,-6,1017,5,-36,3
57,86,-3,1051,42,-22,0
58,80,-6,1065,3,-53,-8
59,80,-5,1041,-43,-106,-20
60,84,4,1028,-63,-127,-32
61,81,8,1029,-73,-131,-55
62,92,5,1027,-47,-120,-55
63,101,13,1024,-10,-127,-34
64,86,15,1007,52,-125,-18
65,82,14,1007,68,-94,-22
66,91,16,1010,50,-55,-40
67,100,32,1031,11,-18,-45
68,90,21,1039,19,-26,-10
69,85,15,1036,62,-49,29
70,86,12,1047,56,-75,42
71,95,11,1016,-4,-83,31
72,87,2,1009,-84,-79,39
73,97,6,984,-75,-90,42
74,94,10,987,-40,-110,29
75,84,0,969,11,-118,9
76,101,6,965,-10,-104,0
77,107,15,940,-81,-96,-22
78,104,17,936,-153,-100,13
79,115,22,920,-159,-118,29
80,113,16,902,-168,-112,42
81,121,16,867,-202,-100,42
82,119,6,802,-231,-114,42
83,128,16,797,-208,-98,35
84,151,5,751,-157,-30,42
85,153,2,713,-170,41,23
86,145,0,729,-198,154,-20
87,138,9,703,-204,291,-40
88,140,1,694,-206,394,-24
89,139,-24,693,-157,431,-8
90,137,-21,681,-139,427,-36
91,134,-26,636,-196,453,-59
92,110,-13,615,-239,498,-65
93,123,-23,583,-282,548,-53
94,111,-37,544,-295,609,-36
95,94,-43,493,-258,650,-63
96,88,-40,439,-178,703,-104
97,108,-44,420,21,810,-67
98,128,-7,408,242,912,-26
99,92,23,423,482,1064,35
100,85,38,478,673,1306,46
101,86,85,546,662,1517,7
102,58,90,563,429,1640,-8
103,41,106,562,197,1703,23
104,0,82,544,128,1746,25
105,-40,83,567,222,1789,-10
106,-55,114,572,408,1839,-77
107,-70,191,597,677,1935,-88
108,-90,266,640,966,2156,-75
109,-118,319,729,1218,2443,13
110,-144,332,815,1216,2675,125
111,-175,324,889,976,2787,171
112,-213,316,937,675,2767,197
113,-239,307,973,511,2685,244
114,-273,295,986,507,2574,326
115,-358,275,1009,755,2564,357
116,-389,214,1040,1095,2623,435
117,-452,193,1079,1300,2726,347
118,-454,183,1147,1261,2970,173
119,-449,231,1253,970,3103,-14
120,-427,295,1344,468,2998,-157
121,-433,342,1308,-102,2666,-192
122,-472,344,1240,-551,2351,-22
123,-453,312,1174,-647,2187,146
124,-461,319,1142,-344,2160,261
125,-440,309,1205,154,2277,332
126,-467,320,1326,578,2400,404
127,-460,355,1434,742,2445,425
128,-461,427,1527,654,2369,408
129,-466,485,1600,310,2152,460
130,-500,523,1606,-65,1904,623
131,-497,496,1604,-323,1710,843
132,-501,457,1611,-444,1478,1013
133,-528,434,1601,-417,1273,1164
134,-552,389,1588,-237,1154,1339
135,-586,344,1601,58,1101,1439
136,-609,305,1661,240,1070,1437
137,-612,288,1725,236,917,1455
138,-629,245,1758,23,703,1515
139,-642,185,1785,-325,488,1582
140,-657,133,1794,-622,263,1603
141,-669,99,1794,-708,7,1683
142,-681,40,1795,-618,-233,1792
143,-688,-53,1799,-438,-469,1818
144,-698,-114,1778,-370,-625,1718
145,-714,-156,1791,-307,-663,1603
146,-702,-189,1840,-282,-672,1486
147,-700,-204,1889,-288,-750,1292
148,-686,-230,1939,-315,-952,1207
149,-684,-294,1947,-465,-1217,1152
150,-710,-383,1925,-608,-1612,996
151,-716,-433,1853,-661,-2012,697
152,-677,-415,1776,-676,-2313,408
153,-640,-412,1698,-717,-2543,253
154,-625,-391,1569,-737,-2731,78
155,-598,-345,1452,-670,-2809,-125
156,-525,-242,1372,-653,-2774,-297
157,-476,-154,1342,-641,-2696,-276
158,-455,-88,1301,-647,-2692,-157
159,-441,-110,1228,-655,-2745,-96
160,-426,-111,1160,-542,-2758,-141
161,-426,-132,1120,-508,-2692,-239
162,-411,-142,1111,-530,-2665,-399
163,-375,-126,1073,-569,-2739,-594
164,-346,-94,1018,-614,-2799,-795
165,-333,-72,983,-545,-2805,-856
166,-310,-40,937,-426,-2735,-833
167,-282,-33,926,-413,-2655,-752
168,-267,-2,888,-354,-2567,-680
169,-257,39,862,-350,-2458,-586
170,-198,49,826,-362,-2338,-440
171,-199,26,789,-444,-2233,-295
172,-214,8,715,-497,-2090,-219
173,-216,-19,688,-377,-1885,-192
174,-192,-58,664,-110,-1715,-211
175,-170,-80,698,111,-1538,-358
176,-145,-80,706,109,-1297,-536
177,-143,-60,745,7,-1098,-692
178,-105,-20,763,-204,-1059,-795
179,-88,-24,791,-333,-1112,-858
180,-57,9,832,-313,-1274,-942
181,-33,46,851,-313,-1538,-889
182,-8,46,804,-331,-1799,-698
183,-8,58,763,-196,-2040,-543
184,10,46,698,-43,-2120,-463
185,33,31,683,-124,-2008,-424
186,50,41,671,-280,-1893,-422
187,63,58,672,-319,-1786,-459
188,82,73,710,-358,-1647,-469
189,98,74,741,-432,-1538,-407
190,120,72,776,-417,-1446,-290
191,133,52,795,-333,-1481,-182
192,127,30,766,-192,-1594,-149
193,122,9,747,9,-1670,-98
194,133,0,699,126,-1629,-133
195,151,-2,653,111,-1522,-165
196,160,-16,630,62,-1354,-180
197,205,-4,606,19,-1145,-237
198,228,4,600,-10,-901,-276
199,255,14,643,-96,-709,-319
200,267,34,675,-135,-659,-352
201,272,47,693,-116,-698,-325
202,288,67,668,-32,-749,-274
203,295,72,645,123,-766,-278
204,299,99,619,144,-700,-229
205,310,93,573,83,-543,-145
206,292,79,565,64,-278,-86
207,312,78,610,150,33,-28
208,317,94,650,279,253,33
209,272,84,733,433,421,109
210,267,76,844,501,554,158
211,252,81,936,460,562,121
212,256,78,981,250,482,39
213,244,93,984,-10,302,-47
214,237,111,966,-174,169,-96
215,239,100,927,-223,89,-100
216,226,101,910,-163,83,-92
217,225,101,905,-106,193,-67
218,209,90,909,-36,337,-43
219,211,97,954,56,468,0
220,195,89,968,97,546,11
221,186,89,1011,111,578,27
222,178,68,1047,80,537,-20
223,177,98,1072,25,443,-112
224,179,110,1064,-114,333,-131
225,171,122,1069,-186,240,-51
226,145,88,1046,-110,195,37
227,136,88,1034,33,220,111
228,121,48,1032,99,304,150
229,116,44,1043,160,416,134
230,122,53,1074,138,517,95
231,111,50,1113,17,537,48
232,121,59,1161,-102,488,1
233,109,76,1160,-190,337,-16
234,115,76,1159,-225,187,48
235,117,56,1148,-252,33,95
236,113,42,1089,-213,-84,132
237,100,13,1071,-122,-104,160
238,97,10,1038,-2,-49,138
239,105,5,1053,58,54,85
240,120,10,1039,9,146,42
241,115,14,1087,-69,175,7
242,124,16,1093,-86,152,-22
243,126,17,1141,-86,76,-61
244,123,15,1111,-143,-28,-94
245,131,28,1095,-208,-118,-98
246,137,27,1069,-233,-196,-63
247,130,22,1034,-170,-241,-24
248,129,15,1003,-120,-223,39
249,135,6,979,-86,-157,89
250,131,-7,975,-26,-51,87
251,131,-20,978,3,64,56
252,137,-7,982,0,154,7
253,149,-6,1039,-69,183,-36
254,152,11,1030,-151,169,-77
255,152,13,1065,-196,119,-81
256,145,12,1043,-200,48,-83
257,149,8,1036,-163,-18,-49
258,149,6,1015,-125,-73,-32
259,147,6,1022,-102,-90,-32
260,154,10,999,-116,-108,-6
261,128,4,985,-69,-84,23
262,133,-2,983,-4,11,42
263,143,-17,1013,-2,83,25
264,134,-6,1033,-18,126,-18
265,144,7,1020,-96,154,-34
266,145,14,1037,-184,140,-57
267,145,14,1044,-178,93,-63
268,148,1,1043,-137,11,-75
269,148,11,1032,-116,-28,-53
270,152,12,1022,-149,-20,-53
271,125,13,1002,-104,13,-43
272,128,10,1013,-8,62,0
273,120,4,1033,54,89,15
274,114,-3,1032,52,107,0
275,128,2,1040,-22,128,-36
276,126,0,1036,-98,119,-96
277,130,-9,1042,-114,119,-122
278,135,1,1049,-75,85,-143
279,124,1,1056,-45,54,-139
280,128,22,1064,-61,54,-139
281,137,27,1050,-100,33,-122
282,132,51,1059,-106,3,-88
283,132,37,1030,-92,21,-42
284,135,32,1052,-55,42,1
285,124,10,1050,-45,50,35
286,119,-14,1065,-51,37,21
287,113,-22,1035,-73,23,-20
288,112,-24,1037,-108,33,-79
289,117,-20,1046,-94,44,-110
290,121,-22,1049,-38,58,-137
291,131,-9,1046,-18,56,-161
292,125,18,1046,-34,48,-147
293,125,6,1023,-42,56,-131
294,127,13,1039,-18,41,-92
295,131,14,1042,9,11,-53
296,131,-2,1035,11,-10,-24
297,124,-32,1021,-26,-36,-8
298,132,-38,1004,-26,-43,-34
299,115,-50,999,-69,-30,-69
300,128,-68,1001,-92,-2,-127
301,121,-63,979,-69,33,-190
302,129,-48,971,-26,101,-227
303,134,-41,986,-49,160,-249
304,134,-39,1010,-79,199,-239
305,136,-23,1026,-92,212,-208
306,144,-24,1024,-100,175,-141
307,133,-44,1022,-125,128,-75
308,135,-61,1033,-165,105,-38
309,122,-85,1015,-149,80,-47
310,112,-91,1025,-122,87,-110
311,100,-100,1020,-90,105,-219
312,96,-74,1007,-69,152,-336
313,111,-48,1023,-61,205,-403
314,104,-34,1031,-26,263,-428
315,109,-13,1037,-8,287,-415
316,120,14,1050,1,257,-368
317,116,22,1042,-18,208,-297
318,105,8,1054,-49,144,-215
319,98,-19,1042,-92,113,-163
320,93,-42,1030,-86,109,-159
321,87,-41,1027,-63,132,-190
322,82,-57,1021,-51,166,-243
323,83,-46,1036,-59,238,-301
324,79,-39,1032,-69,273,-356
325,77,-13,1056,-98,298,-389
326,88,-8,1074,-100,287,-383
327,85,9,1076,-63,216,-358
328,79,-1,1062,-8,156,-317
329,81,-6,1062,48,107,-274
330,80,-16,1039,58,80,-260
331,79,-28,1048,44,107,-284
332,76,-26,1031,35,164,-303
333,67,-19,1041,46,189,-325
334,68,-24,1066,37,197,-342
335,75,-9,1065,-8,193,-374
336,79,-14,1057,-69,187,-372
337,90,-1,1079,-108,140,-344
338,89,-13,1057,-108,136,-323
339,76,-12,1038,-61,107,-305
340,63,-39,1042,1,80,-282
341,68,-44,1036,31,68,-254
342,54,-53,1047,74,35,-260
343,71,-59,1045,97,54,-321
344,47,-65,1048,9,44,-391
345,58,-53,1047,-61,76,-434
346,44,-35,1052,-73,162,-500
347,91,-24,1066,-75,154,-483
348,79,-12,1062,-32,107,-477
349,68,-17,1071,-34,54,-424
350,80,-9,1063,-55,19,-360
351,68,-26,1046,-55,-18,-313
352,61,-33,1041,-16,-32,-293
353,61,-43,1041,-20,-67,-325
354,42,-48,1008,-43,-38,-358
355,40,-46,1041,-65,9,-434
356,52,-47,1017,-61,95,-545
357,46,-21,1038,-36,140,-614
358,67,-18,1044,-28,191,-639
359,69,4,1061,-18,193,-625
360,66,4,1048,0,146,-579
361,64,6,1056,5,111,-528
362,55,16,1061,1,78,-489
363,56,1,1081,-57,11,-422
364,51,2,1078,-26,25,-395
365,50,-24,1055,-42,-16,-397
366,30,-47,1046,-75,-40,-454
367,29,-51,1031,-73,-14,-549
368,22,-40,1021,-59,58,-674
369,51,-21,1034,-92,132,-721
370,55,-5,1069,-102,130,-708
371,52,14,1073,-94,87,-672
372,63,13,1076,-61,13,-624
373,45,2,1081,-61,-51,-575
374,41,-13,1070,-49,-108,-542
375,38,-33,1057,-14,-135,-549
376,20,-40,1030,5,-137,-579
377,22,-45,1041,7,-90,-694
378,30,-19,1050,-47,-59,-772
379,43,-7,1070,-102,-30,-823
380,49,17,1067,-112,-28,-792
381,49,39,1082,-20,-40,-731
382,39,27,1081,72,-61,-688
383,35,24,1093,123,-79,-657
384,36,34,1079,87,-84,-661
385,34,34,1092,-30,-116,-665
386,46,38,1106,-106,-145,-665
387,50,52,1114,-157,-176,-670
388,51,71,1119,-194,-215,-663
389,46,64,1100,-180,-250,-696
390,53,77,1075,-141,-276,-692
391,59,87,1080,-67,-311,-667
392,57,78,1038,-36,-334,-620
393,51,77,1020,-14,-286,-565
394,56,64,1040,-2,-206,-553
395,63,71,1044,-26,-165,-584
396,61,78,1041,-104,-157,-594
397,79,86,1057,-186,-133,-602
398,87,97,1050,-268,-147,-618
399,94,109,1055,-280,-184,-612
400,82,115,1038,-268,-209,-586
401,83,114,1023,-221,-250,-514
402,90,105,1029,-108,-313,-444
403,91,99,1007,5,-319,-426
404,104,101,1002,33,-272,-411
405,104,109,1014,1,-221,-383
406,106,117,1009,-38,-159,-338
407,111,119,1010,-55,-129,-307
408,103,115,1006,-49,-90,-297
409,116,103,1014,-36,-49,-286
410,105,108,1041,25,-51,-272
411,105,108,1040,58,-98,-245
412,99,102,1031,109,-168,-168
413,103,88,1015,183,-243,-114
414,82,66,1034,205,-266,-100
415,97,73,1034,156,-254,-116
416,113,74,1034,35,-237,-145
417,100,73,1013,-49,-225,-145
418,106,78,1015,-47,-172,-145
419,116,81,1004,-38,-139,-153
420,118,77,1007,41,-153,-112
421,113,71,1011,117,-165,-67
422,124,76,1057,138,-184,-12
423,112,74,1069,117,-237,25
424,122,60,1050,62,-290,35
425,110,49,1041,23,-360,35
426,101,36,1010,25,-381,17
427,112,37,1002,29,-323,-34
428,107,38,997,15,-235,-47
429,115,47,1019,21,-172,-75
430,132,53,1015,23,-172,-57
431,137,68,1014,19,-231,-14
432,123,52,988,-4,-303,17
433,122,34,971,-57,-346,39
434,122,28,956,-104,-346,17
435,141,38,937,-133,-336,-18
436,149,42,912,-120,-350,-16
437,149,51,887,-22,-350,21
438,155,51,871,87,-299,76
439,172,70,857,169,-237,121
440,181,62,826,115,-174,138
441,175,72,807,-40,-135,138
442,166,78,793,-204,-118,138
443,181,76,748,-383,-133,103
444,180,82,670,-461,-211,91
445,181,77,587,-463,-303,103
446,181,57,482,-432,-364,128
447,173,25,361,-331,-297,189
448,190,5,297,-51,-86,210
449,216,11,283,210,210,244
450,199,18,308,382,498,304
451,184,48,355,478,796,361
452,171,35,381,472,996,382
453,155,42,438,375,1087,304
454,151,47,443,160,1078,222
455,116,54,433,-34,992,240
456,98,48,384,-8,865,357
457,1,7,278,349,802,396
458,-70,-45,251,888,1015,343
459,-99,-79,302,1234,1494,199
460,-124,-82,370,1230,1898,44
461,-148,-80,457,976,2091,-147
462,-143,40,549,576,2244,-452
463,-84,148,588,15,2287,-627
464,-94,258,552,-383,2144,-549
465,-135,337,561,-319,2089,-297
466,-208,283,555,87,2183,52
467,-265,158,582,699,2400,156
468,-303,117,678,1072,2703,21
469,-347,83,809,962,3052,-141
470,-361,111,926,439,3283,-284
471,-412,131,1010,-208,3318,-385
472,-424,184,1106,-647,3216,-477
473,-402,229,1134,-903,2953,-489
474,-412,227,1076,-948,2625,-366
475,-411,188,1025,-668,2511,-250
476,-454,229,1032,-217,2671,-247
477,-373,250,1095,236,3013,-168
478,-468,276,1193,443,3263,-118
479,-507,278,1326,378,3470,-67
480,-527,275,1463,21,3490,-96
481,-531,248,1568,-459,3220,-86
482,-522,196,1607,-1004,2867,-49
483,-512,142,1570,-1440,2517,70
484,-463,158,1545,-1473,2373,52
485,-453,203,1550,-1030,2261,103
486,-423,240,1636,-393,2232,210
487,-426,315,1789,-108,2238,314
488,-437,301,1891,-252,2119,619
489,-414,292,1961,-614,1943,748
490,-443,298,2001,-983,1689,859
491,-445,260,1998,-1127,1431,1121
492,-459,228,1947,-997,1167,1296
493,-483,184,1923,-711,1021,1441
494,-491,159,1953,-442,972,1564
495,-505,151,2005,-303,869,1582
496,-524,142,2011,-336,683,1628
497,-547,77,1996,-417,398,1759
498,-539,40,1974,-372,72,1771
499,-556,25,1950,-282,-286,1753
500,-551,-14,1913,-266,-639,1800
501,-552,-44,1831,-278,-938,1787
502,-540,-64,1769,-321,-1137,1726
503,-531,-87,1703,-309,-1329,1673
504,-531,-106,1624,-174,-1473,1591
505,-526,-121,1575,-229,-1504,1425
506,-511,-109,1533,-282,-1512,1269
507,-486,-83,1511,-217,-1557,1095
508,-444,-26,1537,-81,-1588,1101
509,-429,-47,1547,41,-1633,1289
510,-443,-74,1556,117,-1784,1396
511,-452,-132,1530,216,-1959,1482
512,-504,-229,1472,248,-2063,1501
513,-508,-280,1483,238,-2042,1363
514,-513,-315,1438,187,-2073,1138
515,-518,-352,1400,261,-2137,804
516,-506,-340,1357,347,-2125,447
517,-465,-316,1378,330,-2061,271
518,-442,-271,1407,240,-2088,289
519,-444,-275,1431,287,-2243,408
520,-436,-311,1397,242,-2461,494
521,-434,-336,1345,-16,-2719,494
522,-435,-337,1255,-200,-2907,404
523,-408,-315,1198,-227,-3014,300
524,-385,-286,1102,-206,-3086,199
525,-366,-290,1017,-104,-2995,82
526,-379,-284,962,-28,-2846,-63
527,-342,-256,913,37,-2559,-239
528,-348,-229,923,132,-2245,-350
529,-306,-215,936,66,-1969,-321
530,-296,-184,960,-98,-1786,-325
531,-239,-164,1003,-444,-1790,-219
532,-247,-151,1049,-733,-1854,-178
533,-237,-169,996,-899,-2098,-161
534,-221,-195,888,-1167,-2329,-215
535,-199,-193,723,-1163,-2385,-264
536,-197,-194,616,-895,-2233,-366
537,-171,-193,561,-584,-1917,-407
538,-146,-156,541,-290,-1543,-360
539,-138,-155,584,-190,-1153,-360
540,-97,-129,654,-192,-897,-459
541,-22,-69,735,-334,-946,-616
542,37,-26,801,-540,-1237,-676
543,56,22,819,-551,-1616,-588
544,58,41,752,-610,-2131,-540
545,55,41,671,-616,-2418,-534
546,79,38,544,-569,-2465,-526
547,62,6,422,-534,-2180,-506
548,81,27,361,-532,-1610,-477
549,109,46,357,-491,-1018,-499
550,142,81,415,-292,-487,-467
551,144,87,524,58,-133,-434
552,177,94,619,369,-28,-401
553,213,118,712,431,-190,-374
554,201,142,752,277,-456,-377
555,211,142,787,-4,-647,-293
556,207,140,785,-262,-829,-243
557,183,123,728,-465,-993,-252
558,201,124,671,-571,-948,-295
559,207,113,625,-540,-764,-319
560,215,130,612,-305,-487,-264
561,219,131,646,-6,-225,-168
562,221,128,686,234,-4,-26
563,228,134,765,361,154,85
564,238,139,866,361,218,142
565,229,118,920,232,115,154
566,219,126,979,83,-49,115
567,218,108,963,-88,-225,56
568,203,117,934,-194,-368,23
569,190,97,886,-149,-434,-6
570,185,57,869,1,-364,-26
571,174,39,852,148,-233,-6
572,181,29,863,166,-24,-26
573,182,47,906,103,150,-24
574,182,61,950,128,240,-6
575,188,76,987,76,261,25
576,208,80,988,-42,171,48
577,189,77,1007,-127,56,87
578,200,60,982,-137,-53,167
579,164,22,962,-32,-151,199
580,161,-2,919,109,-145,140
581,163,-33,920,140,-67,72
582,157,-15,936,154,44,-20
583,162,15,976,138,185,-90
584,176,25,1018,109,253,-45
585,175,29,1029,56,242,7
586,173,30,1055,-6,183,33
587,175,19,1045,-92,113,23
588,173,6,1043,-174,37,3
589,168,13,1038,-209,-59,9
590,168,-3,1028,-112,-135,42
591,152,-10,1018,19,-182,64
592,148,-22,999,87,-143,27
593,155,-11,980,42,-73,11
594,153,6,988,52,60,-53
595,169,29,997,78,201,-63
596,164,28,1007,42,261,-55
597,154,36,1048,7,244,9
598,146,21,1077,-24,226,42
599,145,10,1064,-96,166,64
600,139,6,1070,-149,62,66
601,135,-23,1044,-163,-20,42
602,121,-26,1037,-155,-83,17
603,142,-21,1009,-73,-61,-24
604,140,-12,1000,-57,0,-92
605,143,-3,1015,-18,76,-84
606,151,12,1043,-6,144,-98
607,166,29,1060,-51,154,-69
608,166,21,1041,-110,134,-18
609,156,7,1036,-127,115,11
610,147,1,1042,-75,83,35
611,138,-14,1038,-32,33,74
612,133,-38,1032,31,15,70
613,131,-57,1027,52,11,27
614,139,-57,1045,68,3,-26
615,138,-38,1030,58,1,-96
616,129,-25,1034,21,-4,-137
617,144,-12,1033,13,0,-147
618,157,-5,1041,-16,9,-133
619,157,-17,1036,-63,3,-79
620,147,-21,1017,-69,-8,-45
621,141,-37,1033,-53,21,-49
622,144,-40,1014,-71,41,-36
623,145,-53,1024,-43,41,-42
624,145,-60,1020,-30,62,-67
625,150,-68,1012,-34,44,-133
626,142,-59,1013,-47,50,-192
627,148,-53,1020,-71,78,-209
628,153,-45,1033,-100,78,-206
629,154,-33,1037,-120,54,-213
630,154,-16,1044,-149,25,-204
631,143,-23,1032,-198,-8,-141
632,144,-25,1013,-188,-16,-83
633,140,-39,1025,-116,-8,-75
634,135,-65,1027,-45,33,-94
635,132,-74,1016,0,78,-110
636,132,-65,1040,17,91,-127
637,121,-76,1034,21,117,-168
638,113,-84,1055,9,107,-225
639,131,-68,1067,-6,97,-272
640,122,-50,1064,-47,58,-293
641,126,-43,1072,-86,42,-286
642,135,-49,1043,-104,52,-280
643,129,-57,1029,-176,78,-268
644,138,-53,1024,-215,97,-268
645,130,-63,1017,-198,119,-309
646,128,-64,1005,-170,140,-307
647,126,-74,996,-77,158,-317
648,132,-65,1025,-40,169,-358
649,123,-65,1045,-49,150,-393
650,134,-65,1052,-71,123,-450
651,134,-44,1041,-112,80,-485
652,141,-38,1025,-168,68,-487
653,146,-44,1000,-196,62,-469
654,145,-25,996,-167,83,-448
655,140,-30,1001,-149,148,-434
656,130,-43,990,-167,187,-397
657,128,-46,1001,-170,240,-360
658,124,-46,1024,-135,263,-346
659,108,-63,1045,-65,259,-372
660,120,-70,1050,-38,234,-438
661,100,-69,1060,-34,191,-489
662,103,-58,1051,-98,152,-559
663,114,-38,1025,-141,91,-604
664,111,-28,1018,-112,50,-612
665,122,-17,1006,-94,56,-571
666,121,-3,1011,-75,105,-538
667,112,-2,1022,-63,160,-475
668,115,1,1014,-42,208,-446
669,104,1,1024,-36,259,-417
670,102,-25,1043,-84,320,-407
671,96,-26,1055,-67,312,-397
672,101,-46,1060,-8,269,-424
673,89,-41,1081,3,240,-491
674,85,-40,1086,-38,208,-532
675,91,-37,1084,-96,123,-551
676,87,-21,1051,-118,48,-563
677,90,-25,1028,-125,15,-588
678,97,-11,1014,-145,48,-588
679,85,-6,1005,-153,101,-567
680,98,-8,996,-102,169,-557
681,100,-14,1030,-51,238,-547
682,83,-14,1035,-24,269,-520
683,90,-9,1067,-36,265,-516
684,97,-15,1083,-38,199,-506
685,82,-8,1077,-77,115,-516
686,88,1,1066,-84,56,-500
687,86,-10,1042,-83,33,-456
688,67,-26,1029,-59,7,-452
689,78,-15,995,-26,66,-469
690,75,-23,1007,-30,132,-446
691,75,-18,1018,-47,216,-411
692,75,-32,1041,-40,255,-375
693,74,-32,1057,-81,269,-381
694,71,-22,1065,-167,238,-426
695,77,-26,1060,-206,175,-487
696,65,-16,1050,-165,95,-514
697,75,-16,1049,-96,46,-481
698,69,-27,1027,-22,41,-477
699,62,-27,1039,42,37,-469
700,51,-30,1063,46,50,-467
701,46,-35,1051,48,74,-493
702,50,-35,1033,23,85,-461
703,40,-37,1045,-69,130,-477
704,56,-19,1070,-209,169,-522
705,44,-20,1067,-346,191,-514
706,58,-6,1063,-442,166,-540
707,44,0,1067,-465,115,-542
708,69,-8,1052,-456,85,-506
709,67,6,1037,-381,41,-463
710,82,6,1030,-159,3,-446
711,74,7,1028,-4,-53,-463
712,60,7,1005,115,-65,-485
713,68,8,1029,183,-34,-514
714,70,27,1057,128,35,-567
715,68,45,1064,-40,87,-542
716,72,40,1060,-202,130,-520
717,86,49,1047,-254,154,-489
718,83,53,1035,-225,152,-434
719,73,52,1053,-180,119,-379
720,83,44,1065,-73,93,-350
721,64,20,1074,3,42,-331
722,64,34,1074,33,3,-336
723,50,14,1056,21,-30,-381
724,53,34,1029,41,-49,-432
725,59,36,1031,21,25,-448
726,77,38,1038,-4,97,-420
727,77,57,1055,7,111,-381
728,69,59,1039,37,76,-329
729,70,54,1045,68,58,-297
730,73,52,1048,82,35,-268
731,72,69,1065,82,9,-233
732,68,73,1046,62,-16,-182
733,74,59,1050,44,-32,-133
734,63,57,1066,23,-14,-143
735,64,62,1058,-8,-6,-151
736,57,56,1043,-2,-20,-147
737,50,55,1037,41,-20,-151
738,63,59,1043,85,9,-120
739,51,47,1041,37,25,-69
740,52,48,1059,42,11,-47
741,45,44,1057,83,-40,-18
742,36,32,1062,113,-108,15
743,25,17,1068,113,-143,3
744,16,12,1050,80,-153,-10
745,15,24,1034,52,-125,-51
746,29,32,1030,3,-53,-114
747,28,40,1030,-24,-20,-57
748,24,30,1036,-38,21,-30
749,32,42,1039,-2,25,5
750,34,34,1051,68,-12,64
751,28,27,1058,123,-77,70
752,13,34,1074,158,-157,89
753,12,14,1062,126,-161,125
754,-2,3,1039,74,-149,136
755,10,2,1033,48,-131,107
756,3,-7,1023,5,-88,107
757,7,-22,1024,-4,-55,103
758,6,-20,1007,0,1,76
759,29,5,1022,44,74,72
760,24,3,1004,103,113,111
761,30,1,1034,150,121,146
762,16,-12,1061,140,103,177
763,28,-25,1051,103,72,179
764,23,-40,1041,97,39,138
765,29,-36,1025,60,60,97
766,40,-45,1011,21,89,85
767,50,-37,1009,0,130,66
768,71,-38,1006,23,162,42
769,76,-22,1021,68,171,33
770,83,-16,1044,72,189,5
771,76,-6,1051,29,173,-12
772,47,5,1042,0,152,-22
773,36,14,1042,-10,113,1
774,-3,2,1042,-38,64,23
775,-34,-1,1033,-57,50,21
776,-37,-11,1010,-40,62,3
777,-49,8,1014,-81,126,0
778,-50,10,1038,-94,208,29
779,-42,34,1047,-69,240,42
780,-50,14,1035,-26,205,103
781,-54,27,1070,72,164,171
782,-34,23,1081,128,140,201
783,-34,17,1097,107,85,210
784,-39,5,1052,89,15,189
785,-51,-5,1058,115,-32,150
786,-32,-8,1057,154,-30,128
787,-32,-3,1057,169,-43,70
788,-22,22,1060,126,-34,44
789,-2,20,1071,42,-28,115
790,-3,21,1047,-16,-59,152
791,0,33,1032,-61,-75,136
792,13,44,1029,-90,-57,167
793,9,40,1011,-104,-43,197
794,8,46,1030,-53,-38,224
795,4,20,1019,1,-28,279
796,-12,-16,1000,70,-34,296
797,4,-48,1039,95,-10,228
798,10,-38,1018,9,44,171
799,19,-35,1042,-69,83,156
800,35,-38,998,-94,87,156
801,32,-33,1005,-59,128,130
802,67,-45,1011,23,167,128
803,75,-41,1027,64,181,134
804,78,-29,1017,103,185,125
805,86,-11,1039,97,220,107
806,92,-11,1070,76,222,140
807,74,-16,1074,64,195,85
808,71,1,1071,66,179,31
809,71,15,1100,17,201,-10
810,58,10,1082,0,164,3
811,56,3,1083,64,146,31
812,46,6,1094,107,162,25
813,66,-5,1108,85,150,17
814,63,3,1118,-8,123,7
815,68,14,1124,-86,111,50
816,76,7,1089,-118,101,99
817,74,-5,1101,-118,91,125
818,85,-3,1075,-67,48,146
819,81,-24,1074,-24,-26,150
820,66,-45,1024,54,-43,152
821,73,-52,1058,144,-26,95
822,75,-49,1077,171,-26,58
823,70,-42,1071,148,-73,-6
824,75,-36,1053,85,-129,-45
825,82,-26,1036,-22,-167,-57
826,65,-14,1009,-129,-174,-69
827,81,-6,1002,-114,-135,-63
828,83,-5,994,-26,-71,-14
829,85,-14,1025,111,-47,42
830,66,-39,1044,230,-45,85
831,73,-44,1071,244,1,54
832,70,-39,1093,169,-10,-10
833,78,-36,1112,19,-36,-53
834,88,-8,1095,-118,-83,-96
835,85,-4,1067,-206,-133,-84
836,82,-3,1031,-206,-141,-98
837,86,0,1003,-129,-104,-96
838,82,12,1007,-16,-53,-84
839,78,25,1017,87,-20,-63
840,71,28,1039,150,0,-42
841,59,27,1048,138,1,-16
842,53,21,1036,138,-4,7
843,50,9,1045,128,-20,46
844,39,-8,1051,140,-32,35
845,48,-10,1064,138,-55,-14
846,53,5,1079,74,-90,-43
847,64,14,1071,-2,-94,-83
848,68,16,1050,-12,-153,-71
849,71,3,1029,11,-213,-53
850,64,4,1016,0,-168,-65
851,85,10,1016,-36,-86,-88
852,83,24,1023,-100,-32,-71
853,74,26,1034,-90,-6,-69
854,88,13,1040,-36,-34,-38
855,74,-6,1036,23,-94,-30
856,80,-13,1025,35,-108,-51
857,83,-16,1037,15,-98,-88
858,80,3,1066,-30,-92,-129
859,89,16,1049,-88,-149,-131
860,77,15,1030,-86,-202,-104
861,83,0,997,-40,-188,-88
862,83,2,979,-20,-145,-94
863,82,-8,991,-28,-47,-104
864,92,12,1029,-24,23,-81
865,100,23,1040,-45,35,-53
866,102,24,1049,-49,-8,1
867,89,11,1050,-10,-75,46
868,82,-15,1038,11,-112,25
869,66,-29,1047,25,-118,-22
870,63,-31,1046,-12,-108,-69
871,65,-20,1046,-49,-108,-135
872,70,1,1017,-73,-116,-165
873,69,-2,1031,-16,-122,-168
874,73,-1,1027,46,-112,-157
875,86,2,1049,48,-84,-122
876,86,-3,1059,7,-69,-133
877,96,6,1072,-32,-100,-131
878,94,8,1044,-104,-131,-112
879,103,18,1047,-84,-174,-81
880,90,10,1016,-18,-221,-47
881,84,5,1020,44,-221,-49
882,85,-12,1025,31,-168,-100
883,91,-1,1025,-10,-122,-137
884,95,4,1022,-30,-86,-157
885,97,-5,1027,-42,-69,-165
886,96,2,1024,-2,-81,-157
887,100,-1,1034,25,-83,-149
888,100,4,1027,9,-98,-135
889,99,9,1033,-36,-102,-139
890,104,26,1040,-88,-84,-116
891,93,22,1039,-118,-88,-67
892,91,14,1010,-83,-81,-14
893,84,-4,1042,-36,-42,13
894,84,-28,1044,-8,-45,-8
895,74,-36,1031,35,-40,-84
896,81,-17,1051,35,-16,-157
897,92,-11,1052,19,-32,-186
898,90,-6,1051,7,-55,-188
899,100,13,1033,-14,-88,-188
900,109,30,1031,-51,-98,-159
901,120,43,1033,-67,-55,-124
902,95,40,1015,-73,-2,-86
903,86,24,1028,-24,42,1
904,74,11,1037,42,93,31
905,62,-2,1078,42,121,44
906,55,-10,1078,0,103,29
907,37,-24,1088,-63,37,-24
908,35,-23,1075,-114,-14,-79
909,40,-17,1078,-127,-77,-114
910,55,-3,1066,-98,-127,-143
911,65,19,1058,-63,-180,-120
912,63,20,1021,-34,-200,-90
913,58,10,1001,1,-192,-53
914,57,0,1006,31,-129,-63
915,53,-1,1000,33,-42,-79
916,52,-5,1018,7,35,-94
917,56,-1,1049,-43,64,-102
918,52,-5,1063,-98,54,-94
919,48,-11,1058,-102,-24,-90
920,54,11,1039,-96,-83,-94
921,49,4,1030,-88,-122,-98
922,40,-3,1014,-47,-127,-77
923,34,1,1020,-18,-81,-81
924,50,4,1019,-8,-34,-61
925,42,5,1029,-4,-14,-67
926,51,0,1018,-4,11,-86
927,51,-3,1045,-8,33,-92
928,45,-10,1026,-22,52,-94
929,43,-21,1039,-38,62,-92
930,43,-20,1065,-42,27,-129
931,48,-9,1068,-36,-12,-151
932,47,-1,1042,-32,-61,-161
933,67,15,1026,-42,-100,-163
934,58,17,1019,-53,-108,-141
935,65,15,1025,-51,-73,-110
936,63,22,1017,-20,-12,-114
937,65,13,1029,-20,27,-112
938,71,21,1050,-34,58,-106
939,86,34,1049,-75,78,-120
940,68,35,1043,-100,56,-110
941,61,27,1053,-73,33,-67
942,59,20,1039,-43,29,-47
943,67,11,1041,17,17,-18
944,50,9,1048,78,0,-6
945,43,0,1059,97,1,5
946,49,5,1043,74,-10,-30
947,48,-3,1063,1,-28,-57
948,65,16,1053,-61,-47,-88
949,65,21,1015,-96,-84,-102
950,75,24,1036,-102,-127,-86
951,77,27,1014,-86,-167,-47
952,89,18,978,-71,-184,-6
953,86,-4,953,-57,-196,9
954,74,-12,896,-59,-172,-28
955,74,-4,898,-61,-67,-34
956,88,-19,879,-24,19,-4
957,80,-13,885,46,74,5
958,87,6,871,60,107,29
959,94,9,857,-34,74,66
960,88,13,814,-135,5,103
961,86,-6,763,-176,-118,160
962,74,-36,645,-161,-284,185
963,67,-67,529,-106,-407,158
964,46,-108,385,-120,-471,128
965,41,-137,242,-90,-430,42
966,48,-140,143,-2,-237,-106
967,58,-129,53,89,31,-196
968,95,-82,2,292,349,-311
969,137,6,-3,421,609,-446
970,140,69,15,468,759,-442
971,166,105,8,496,1015,-372
972,162,135,68,521,1244,-286
973,148,182,137,521,1431,-272
974,101,193,203,382,1656,-159
975,74,154,240,199,1890,23
976,29,114,264,189,2126,93
977,-47,87,328,416,2382,-10
978,-107,107,498,808,2658,-75
979,-162,140,650,1087,2814,-135
980,-248,109,786,1095,2841,-53
981,-267,108,883,890,2890,-16
982,-273,151,981,480,2886,-114
983,-291,221,1046,48,2763,-104
984,-306,255,1056,-213,2638,-34
985,-364,193,1021,-200,2507,171
986,-401,131,1000,218,2529,175
987,-443,127,1080,296,2763,-49
988,-452,132,1155,99,3023,-114
989,-423,133,1225,-104,3156,-249
990,-493,186,1329,-194,3117,-405
991,-500,183,1391,-141,3048,-374
992,-487,197,1438,-4,2890,-280
993,-472,209,1480,113,2607,-333
994,-480,257,1525,113,2308,-334
995,-465,304,1518,91,1970,-258
996,-456,340,1462,46,1755,-182
997,-499,375,1430,-71,1736,-55
998,-475,361,1423,-336,1916,193
999,-495,345,1413,-678,2111,392
1000,-502,265,1406,-907,2224,615
1001,-543,178,1438,-909,2240,763
1002,-514,168,1498,-698,2185,789
1003,-567,180,1538,-348,1941,748
1004,-566,172,1574,-30,1601,794
1005,-547,160,1601,132,1193,806
1006,-526,191,1589,177,835,642
1007,-473,250,1551,60,511,603
1008,-470,254,1465,-295,576,724
1009,-476,227,1427,-678,833,876
1010,-484,236,1418,-1024,1080,947
1011,-482,272,1428,-1092,1140,1001
1012,-481,268,1405,-866,1039,1175
1013,-493,265,1420,-557,808,1244
1014,-486,251,1405,-344,542,1275
1015,-519,235,1446,-276,312,1314
1016,-495,250,1409,-360,109,1318
1017,-508,252,1382,-401,-45,1376
1018,-517,250,1368,-491,-34,1570
1019,-516,212,1347,-698,41,1660
1020,-525,189,1327,-833,56,1736
1021,-511,195,1337,-899,76,1816
1022,-516,161,1330,-907,48,1859
1023,-532,122,1307,-866,-81,1873
1024,-547,62,1304,-813,-225,1824
1025,-551,27,1304,-672,-340,1724
1026,-548,-9,1334,-592,-417,1582
1027,-530,-19,1417,-614,-444,1544
1028,-502,-15,1511,-586,-458,1572
1029,-481,-15,1575,-567,-538,1666
1030,-480,-25,1626,-514,-674,1763
1031,-496,-64,1647,-342,-795,1787
1032,-517,-103,1693,-198,-854,1689
1033,-547,-157,1697,-69,-1067,1662
1034,-593,-247,1698,58,-1313,1593
1035,-590,-327,1668,76,-1532,1371
1036,-631,-378,1694,-22,-1668,1136
1037,-593,-406,1680,-229,-1616,902
1038,-580,-371,1708,-467,-1588,642
1039,-564,-357,1682,-688,-1698,507
1040,-572,-284,1684,-801,-1829,408
1041,-550,-254,1689,-854,-2034,435
1042,-540,-258,1654,-930,-2301,498
1043,-562,-270,1588,-887,-2604,400
1044,-580,-288,1485,-827,-2827,310
1045,-541,-310,1396,-731,-2899,210
1046,-565,-315,1311,-706,-2905,0
1047,-561,-329,1222,-721,-2823,-219
1048,-554,-310,1209,-868,-2604,-485
1049,-500,-249,1174,-856,-2346,-694
1050,-491,-170,1224,-694,-2219,-750
1051,-490,-141,1271,-495,-2235,-522
1052,-459,-132,1283,-274,-2405,-342
1053,-443,-140,1266,-174,-2713,-280
1054,-444,-163,1199,-249,-3026,-295
1055,-450,-165,1109,-477,-3202,-293
1056,-437,-179,995,-700,-3209,-342
1057,-411,-176,890,-840,-3018,-436
1058,-407,-143,797,-874,-2733,-504
1059,-389,-105,730,-803,-2417,-651
1060,-332,-37,709,-483,-2051,-700
1061,-261,0,717,-270,-1883,-631
1062,-208,37,682,-120,-1831,-579
1063,-202,53,685,-20,-1829,-555
1064,-179,70,660,-22,-1924,-459
1065,-155,43,611,46,-1963,-217
1066,-123,17,525,158,-1928,-86
1067,-133,-43,477,427,-1776,-102
1068,-139,-98,486,656,-1682,-153
1069,-132,-111,524,720,-1487,-338
1070,-90,-104,503,515,-1252,-555
1071,-64,-89,511,320,-1206,-768
1072,-5,-47,491,119,-1192,-852
1073,50,-17,521,-14,-1307,-850
1074,110,13,493,-155,-1493,-729
1075,127,24,469,-88,-1672,-622
1076,145,61,496,50,-1782,-516
1077,192,86,478,156,-1868,-411
1078,207,67,434,326,-1985,-254
1079,200,43,370,605,-2079,-137
1080,199,28,347,853,-1936,-137
1081,213,38,349,873,-1667,-186
1082,247,72,365,685,-1288,-258
1083,278,97,426,517,-930,-329
1084,320,131,452,347,-665,-348
1085,320,138,555,216,-500,-276
1086,337,131,636,238,-422,-182
1087,325,107,700,394,-469,-100
1088,298,110,743,419,-602,-20
1089,287,95,774,333,-741,68
1090,275,107,784,160,-719,89
1091,263,122,798,-40,-643,107
1092,268,121,793,-180,-534,125
1093,287,108,748,-231,-430,103
1094,254,108,759,-112,-311,58
1095,282,94,757,-2,-34,136
1096,276,94,809,-14,183,218
1097,264,73,856,-4,298,250
1098,272,79,903,70,343,257
1099,260,86,959,95,335,275
1100,251,81,991,33,300,296
1101,253,78,1004,-53,222,296
1102,240,68,996,-106,160,318
1103,215,32,987,-141,109,357
1104,228,12,931,-83,76,326
1105,214,2,902,-34,126,224
1106,214,5,921,9,289,173
1107,214,15,934,85,468,150
1108,205,29,996,95,609,152
1109,204,52,1033,44,625,207
1110,205,17,1051,-22,548,218
1111,187,23,1076,-110,480,185
1112,208,9,1075,-168,355,167
1113,190,4,1064,-167,205,150
1114,197,-9,1049,-165,70,113
1115,179,-12,1031,-149,0,97
1116,175,-17,989,-133,56,58
1117,158,-40,989,-120,166,7
1118,156,-23,989,-125,298,-67
1119,174,-7,1036,-176,398,-149
1120,180,8,1048,-258,416,-186
1121,181,32,1055,-303,359,-174
1122,181,49,1070,-268,277,-124
1123,167,24,1063,-217,187,-32
1124,174,28,1046,-167,101,42
1125,161,-4,1027,-79,9,119
1126,140,-21,1039,29,-36,193
1127,142,-25,1040,72,-34,150
1128,119,-37,1010,37,31,52
1129,134,-33,987,-67,162,-10
1130,132,-19,1004,-190,302,-45
1131,143,-11,1017,-194,373,-71
1132,136,-4,1030,-120,416,-88
1133,156,-7,1065,-73,402,-81
1134,146,-2,1091,-67,308,-30
1135,151,1,1106,-20,179,25
1136,141,-3,1083,0,31,50
1137,121,-43,1071,-16,-57,58
1138,121,-68,1041,-18,-84,31
1139,106,-82,1022,-43,-69,-71
1140,112,-80,989,-88,25,-225
1141,125,-56,992,-178,173,-319
1142,134,-23,1019,-268,291,-297
1143,142,-4,1042,-290,341,-262
1144,143,-5,1048,-303,294,-200
1145,131,-16,1046,-315,205,-100
1146,141,-45,1050,-286,126,0
1147,132,-56,1062,-206,64,13
1148,116,-65,1048,-135,25,-22
1149,104,-70,1038,-79,-10,-59
1150,103,-87,1024,-75,-2,-125
1151,76,-77,995,-53,33,-182
1152,104,-86,1010,-59,171,-163
1153,131,-69,1006,-94,324,-229
1154,118,-68,1029,-118,324,-293
1155,108,-55,1044,-194,324,-286
1156,123,-29,1060,-217,359,-239
1157,114,-45,1069,-217,326,-184
1158,130,-35,1083,-139,277,-114
1159,124,-74,1057,-65,154,-84
1160,97,-106,1012,-10,87,-57
1161,78,-143,990,0,167,-84
1162,68,-159,977,-38,312,-211
1163,79,-144,992,-131,427,-405
1164,89,-108,1007,-209,542,-547
1165,99,-88,1049,-252,591,-545
1166,92,-72,1086,-262,587,-512
1167,101,-61,1092,-217,494,-477
1168,92,-74,1079,-108,326,-432
1169,91,-79,1089,-10,201,-393
1170,101,-99,1084,17,107,-368
1171,69,-108,1075,-51,42,-399
1172,73,-122,1041,-127,85,-479
1173,78,-124,1020,-215,158,-604
1174,64,-119,987,-188,222,-668
1175,82,-113,982,-120,312,-686
1176,56,-101,1028,-47,390,-745
1177,67,-85,1027,-42,437,-762
1178,68,-84,1073,-124,419,-727
1179,52,-75,1087,-196,380,-704
1180,99,-76,1092,-243,320,-690
1181,94,-52,1097,-217,130,-688
1182,82,-57,1074,-225,-86,-649
1183,58,-51,1041,-249,-129,-610
1184,45,-91,981,-172,-77,-651
1185,48,-88,975,-120,31,-739
1186,58,-85,949,-127,242,-862
1187,54,-53,977,-141,402,-809
1188,64,-53,993,-114,498,-792
1189,68,-31,1061,-92,548,-846
1190,55,-24,1087,-79,462,-850
1191,82,-12,1100,-137,326,-803
1192,63,-12,1109,-88,166,-764
1193,68,-15,1088,-28,19,-745
1194,51,2,1048,-45,-49,-731
1195,49,-13,1040,5,0,-717
1196,35,-9,1014,21,125,-733
1197,43,-7,1042,33,275,-686
1198,54,-4,1055,29,347,-655
1199,37,-11,1056,-6,369,-713
1200,44,-19,1059,-114,359,-717
1201,47,-20,1090,-237,376,-745
1202,34,-30,1113,-256,373,-793
1203,43,-17,1095,-264,230,-817
1204,27,-17,1072,-301,138,-836
1205,18,-33,1038,-297,128,-801
1206,16,-17,1045,-157,130,-793
1207,9,-7,1059,27,197,-801
1208,28,-6,1062,210,240,-766
1209,9,-10,1101,265,210,-750
1210,9,-13,1109,181,201,-756
1211,21,-28,1097,21,177,-778
1212,27,-1,1109,-104,123,-854
1213,15,14,1093,-114,78,-920
1214,36,27,1115,-69,58,-917
1215,47,46,1108,-18,-40,-879
1216,30,58,1097,19,-153,-842
1217,20,38,1067,33,-209,-811
1218,6,38,1062,50,-174,-811
1219,11,44,1052,5,-84,-786
1220,44,74,1060,-86,-22,-747
1221,52,70,1061,-182,-16,-747
1222,51,86,1075,-208,-12,-676
1223,61,86,1058,-153,19,-624
1224,76,96,1049,-84,-28,-600
1225,59,109,1032,-49,-84,-563
1226,45,113,1033,19,-96,-510
1227,57,120,1013,5,-69,-442
1228,44,92,1032,21,5,-438
1229,45,96,1021,15,42,-372
1230,54,83,1032,-16,-16,-352
1231,49,88,1024,48,29,-354
1232,36,90,1044,111,171,-290
1233,53,93,1050,107,189,-219
1234,57,97,1071,68,171,-202
1235,57,83,1064,0,160,-208
1236,66,89,1058,-108,70,-215
1237,31,56,1018,-129,54,-168
1238,23,60,1002,-92,-10,-149
1239,26,36,1010,-4,23,-118
1240,44,52,1000,35,171,-49
1241,72,46,1025,5,199,-79
1242,59,52,1028,-65,226,-170
1243,64,59,1020,-63,273,-204
1244,42,64,1042,48,275,-217
1245,62,63,1052,189,246,-202
1246,46,46,1065,236,167,-161
1247,24,18,1059,240,119,-127
1248,15,30,1049,128,152,-75
1249,15,10,1029,-16,255,-92
1250,19,0,1016,-122,324,-133
1251,36,40,1018,-204,355,-141
1252,60,61,1032,-151,345,-96
1253,52,54,1074,-16,251,-49
1254,32,51,1061,119,130,-16
1255,27,33,1066,201,35,23
1256,31,22,1075,248,-30,33
1257,20,0,1063,230,-47,-24
1258,10,7,1064,173,-77,-43
1259,9,1,1050,150,-90,-102
1260,19,9,1020,132,-71,-163
1261,11,28,1047,72,-20,-141
1262,19,27,1041,37,5,-63
1263,36,20,1034,33,3,0
1264,22,14,1076,52,-57,54
1265,20,12,1078,78,-124,82
1266,22,-1,1092,58,-217,80
1267,15,2,1086,-8,-321,48
1268,12,0,1069,-40,-387,3
1269,20,6,1024,-20,-405,-69
1270,17,-2,988,-2,-331,-131
1271,40,26,1010,58,-247,-176
1272,44,50,1007,105,-112,-139
1273,51,54,1029,169,-55,-43
1274,53,45,1071,216,-75,39
1275,42,24,1063,212,-147,82
1276,49,9,1048,140,-256,132
1277,42,13,1054,66,-334,113
1278,51,13,1051,3,-422,82
1279,70,34,1035,-67,-514,52
1280,58,27,972,-127,-577,29
1281,74,46,932,-145,-555,21
1282,61,24,860,-112,-428,33
1283,105,25,849,-10,-307,37
1284,101,28,835,123,-235,31
1285,128,45,826,248,-180,111
1286,131,54,855,291,-198,232
1287,145,50,834,244,-338,318
1288,151,51,766,162,-551,328
1289,144,48,650,46,-739,326
1290,139,33,517,-65,-817,326
1291,153,47,389,-104,-848,296
1292,141,47,238,-159,-799,257
1293,137,29,98,-73,-557,240
1294,137,22,36,302,-167,283
1295,162,39,16,744,222,357
1296,141,-3,42,1167,589,460
1297,139,-36,93,1443,820,482
1298,119,-57,166,1468,923,353
1299,105,-27,240,1214,1003,146
1300,120,28,298,900,1037,60
1301,109,97,313,564,958,-8
1302,73,135,285,328,943,-98
1303,47,150,202,271,1056,-4
1304,-19,125,158,378,1271,42
1305,-60,97,142,615,1560,58
1306,-92,109,198,910,1876,-59
1307,-109,207,362,1062,2279,-266
1308,-131,275,472,830,2541,-229
1309,-178,283,561,482,2583,-67
1310,-245,268,616,207,2468,68
1311,-332,254,649,125,2277,189
1312,-349,192,644,244,2144,207
1313,-361,180,622,421,2205,167
1314,-391,196,675,722,2556,113
1315,-383,255,863,964,3035,119
1316,-387,303,1012,966,3281,70
1317,-356,337,1146,816,3191,-57
1318,-381,418,1214,371,2980,-276
1319,-448,437,1291,-225,2697,-301
1320,-469,471,1300,-584,2361,-159
1321,-540,494,1324,-762,2101,-10
1322,-555,445,1255,-684,1982,283
1323,-587,349,1165,-430,2181,486
1324,-677,290,1173,-241,2394,494
1325,-717,274,1270,-159,2851,425
1326,-689,355,1436,-92,3201,218
1327,-619,461,1588,-45,3240,167
1328,-563,536,1766,21,3103,357
1329,-548,578,1906,-108,2814,576
1330,-548,536,1970,-411,2298,789
1331,-602,478,1977,-725,1763,974
1332,-621,395,1870,-1116,1376,1203
1333,-608,240,1727,-1110,1515,1458
1334,-638,117,1755,-848,1996,1457
1335,-663,67,1907,-542,2400,1326
1336,-613,54,2048,-288,2480,1078
1337,-559,156,2048,-276,2298,794
1338,-519,213,2048,-176,1878,761
1339,-517,257,2048,-241,1248,845
1340,-494,247,2048,-616,611,1164
1341,-477,198,2048,-821,87,1382
1342,-487,135,2048,-792,-295,1376
1343,-507,58,1919,-776,-528,1304
1344,-490,-4,1785,-598,-354,1253
1345,-497,-50,1724,-401,-143,1146
1346,-506,-63,1690,-34,91,935
1347,-527,-58,1760,460,236,712
1348,-506,16,1839,615,21,537
1349,-473,111,1910,605,-327,533
1350,-446,144,1888,505,-881,738
1351,-464,101,1807,248,-1424,925
1352,-505,36,1653,-233,-1844,1044
1353,-515,-13,1512,-670,-2075,1105
1354,-547,-82,1393,-795,-2108,1029
1355,-562,-161,1326,-620,-1981,890
1356,-592,-238,1259,-432,-1743,693
1357,-651,-304,1263,-411,-1420,408
1358,-660,-315,1308,-500,-1110,128
1359,-645,-268,1379,-500,-967,-94
1360,-568,-183,1469,-354,-1108,-196
1361,-530,-122,1472,-157,-1512,-100
1362,-510,-116,1436,-40,-1944,31
1363,-529,-126,1343,-151,-2346,228
1364,-531,-128,1244,-387,-2592,443
1365,-531,-146,1139,-502,-2663,525
1366,-540,-157,1038,-542,-2485,517
1367,-547,-167,999,-680,-2090,486
1368,-488,-154,986,-934,-1667,417
1369,-446,-116,1031,-1188,-1458,408
1370,-444,-134,1089,-1174,-1477,369
1371,-426,-101,1147,-922,-1668,314
1372,-385,-108,1134,-549,-1938,236
1373,-400,-94,1145,-370,-2231,222
1374,-408,-134,1098,-450,-2372,289
1375,-413,-155,1020,-719,-2338,371
1376,-434,-161,953,-1057,-2131,386
1377,-437,-202,876,-1315,-1790,296
1378,-411,-207,810,-1374,-1407,283
1379,-367,-206,794,-1249,-1038,253
1380,-345,-190,864,-1049,-813,210
1381,-297,-177,947,-881,-838,107
1382,-292,-155,1019,-803,-1094,21
1383,-276,-114,1024,-788,-1508,52
1384,-270,-114,991,-858,-1874,103
1385,-277,-121,908,-891,-2063,171
1386,-271,-114,832,-838,-2112,189
1387,-275,-117,729,-764,-1956,113
1388,-281,-118,656,-702,-1672,27
1389,-240,-128,636,-604,-1249,-149
1390,-188,-122,650,-403,-883,-206
1391,-101,-145,694,-325,-858,-219
1392,-99,-157,765,-467,-1040,-327
1393,-76,-133,813,-567,-1303,-633
1394,-60,-118,819,-565,-1676,-922
1395,-51,-71,825,-674,-2063,-1071
1396,-38,-6,779,-848,-2284,-1141
1397,0,3,707,-1086,-2280,-1073
1398,20,-15,585,-1364,-2188,-987
1399,18,-23,471,-1538,-1928,-842
1400,32,-48,405,-1639,-1577,-622
1401,63,-60,341,-1438,-1186,-489
1402,93,-88,357,-959,-877,-430
1403,136,-103,387,-383,-708,-415
1404,190,-98,424,62,-715,-508
1405,240,-60,492,158,-827,-596
1406,258,10,505,3,-959,-657
1407,300,78,483,-139,-961,-688
1408,256,101,450,-8,-877,-702
1409,245,88,458,222,-713,-592
1410,258,68,493,316,-432,-397
1411,228,42,543,337,-71,-252
1412,275,37,565,228,250,-252
1413,279,32,638,271,507,-340
1414,283,45,690,310,634,-317
1415,264,54,741,439,621,-213
1416,230,51,820,794,568,-108
1417,206,64,897,1072,458,-47
1418,198,71,981,1119,361,-125
1419,166,51,1020,884,214,-186
1420,161,48,1042,482,39,-229
1421,165,39,1016,-22,-92,-266
1422,149,52,964,-456,-118,-223
1423,155,41,927,-534,-84,-114
1424,148,19,875,-276,37,25
1425,114,2,885,132,222,138
1426,97,-24,918,482,392,193
1427,86,-41,968,662,480,150
1428,96,-31,1034,664,537,25
1429,103,-18,1063,628,433,-59
1430,79,-3,1116,507,220,-102
1431,89,14,1107,353,103,-108
1432,81,21,1101,167,1,-124
1433,88,23,1069,9,-118,-71
1434,73,1,1036,-43,-129,-38
1435,69,-12,1019,-24,-40,-38
1436,79,-26,1006,-42,62,-10
1437,79,-23,996,-28,187,-36
1438,84,-25,1008,44,296,-77
1439,71,-34,1051,128,326,-118
1440,75,-8,1085,171,310,-131
1441,65,2,1101,167,263,-118
1442,68,1,1115,107,218,-75
1443,79,1,1114,17,156,-49
1444,68,9,1101,-73,41,-26
1445,67,-5,1092,-110,-47,-18
1446,65,-14,1055,-28,-88,-40
1447,62,-38,1052,58,-63,-63
1448,50,-43,1047,78,21,-84
1449,44,-29,1052,95,109,-79
1450,64,-39,1071,82,136,-96
1451,61,-39,1072,64,167,-170
1452,56,-26,1084,25,158,-239
1453,60,-4,1099,-14,113,-256
1454,54,4,1092,-6,80,-200
1455,64,5,1088,-20,41,-157
1456,65,6,1086,-122,-40,-114
1457,50,-17,1057,-196,-51,-94
1458,47,-10,1054,-196,-67,-84
1459,45,-19,1051,-178,-69,-79
1460,35,-13,1052,-159,-8,-69
1461,43,-28,1036,-145,68,-59
1462,29,-45,1050,-120,74,-57
1463,48,-47,1045,-51,-14,-92
1464,39,-46,1043,-10,-28,-182
1465,41,-24,1063,-20,-2,-180
1466,56,-21,1070,-36,13,-143
1467,50,-16,1054,-34,-20,-118
1468,52,-15,1063,29,-51,-73
1469,53,-22,1049,62,-75,-22
1470,53,-33,1050,9,-88,9
1471,58,-32,1061,-36,-96,25
1472,61,-42,1063,-61,-116,33
1473,57,-41,1054,-71,-104,13
1474,59,-33,1037,-79,-102,-38
1475,45,-36,1034,-124,-100,-57
1476,68,-40,1037,-147,-90,-24
1477,71,-40,1039,-125,-59,15
1478,69,-39,1009,-86,-38,21
1479,57,-58,1031,-57,-40,7
1480,56,-72,1048,-28,-26,-26
1481,65,-65,1044,-18,-26,-59
1482,59,-69,1061,-42,-67,-108
1483,66,-69,1050,-75,-108,-135
1484,57,-53,1069,-125,-139,-137
1485,54,-55,1043,-147,-145,-125
1486,74,-45,1045,-157,-106,-63
1487,82,-46,1031,-137,-96,-86
1488,77,-38,1024,-168,-161,-86
1489,78,-40,1020,-204,-163,-42
1490,78,-52,1004,-194,-114,-4
1491,71,-47,1009,-131,-49,11
1492,51,-76,975,21,78,33
1493,57,-88,998,173,107,42
1494,53,-108,1028,242,140,15
1495,62,-126,1033,210,171,-8
1496,54,-129,1058,142,152,-84
1497,40,-129,1065,52,125,-174
1498,47,-139,1072,-67,107,-231
1499,64,-140,1061,-149,74,-297
1500,58,-125,1054,-172,11,-364
1501,67,-123,1041,-233,-38,-395
1502,59,-131,1002,-254,-47,-418
1503,62,-123,998,-190,-42,-375
1504,54,-138,989,-98,13,-334
1505,69,-145,993,-6,74,-317
1506,62,-167,1022,82,85,-356
1507,68,-146,1033,76,115,-432
1508,71,-127,1059,-22,123,-499
1509,64,-99,1071,-176,76,-518
1510,72,-82,1053,-268,62,-528
1511,76,-85,1055,-254,50,-502
1512,67,-75,1038,-208,15,-458
1513,68,-91,1034,-114,-2,-452
1514,66,-98,1017,17,9,-440
1515,50,-97,1021,99,21,-450
1516,54,-102,1013,152,78,-506
1517,50,-92,1014,128,160,-569
1518,64,-88,1035,5,199,-616
1519,53,-91,1050,-131,220,-663
1520,54,-67,1033,-252,234,-688
1521,61,-47,1030,-299,191,-688
1522,46,-62,1048,-249,166,-625
1523,47,-73,1049,-153,126,-583
1524,53,-80,1046,-63,72,-551
1525,50,-86,1053,15,27,-512
1526,27,-98,1029,78,-20,-504
1527,41,-105,1030,70,0,-514
1528,17,-116,1000,0,66,-545
1529,28,-124,959,-61,166,-612
1530,22,-121,976,-77,261,-690
1531,28,-106,992,-145,324,-768
1532,32,-103,1019,-200,406,-792
1533,35,-85,1045,-227,419,-774
1534,36,-62,1077,-200,359,-766
1535,36,-51,1064,-163,273,-711
1536,35,-48,1066,-96,205,-624
1537,29,-64,1058,-42,105,-551
1538,15,-64,1041,54,48,-510
1539,5,-103,1031,136,64,-493
1540,0,-113,1016,121,142,-518
1541,-7,-132,1016,107,203,-645
1542,7,-112,1040,42,279,-750
1543,1,-98,1056,-108,330,-815
1544,10,-95,1078,-250,287,-850
1545,8,-82,1070,-346,269,-895
1546,11,-72,1051,-452,281,-905
1547,4,-70,1047,-461,261,-872
1548,16,-55,1063,-387,212,-866
1549,16,-41,1079,-217,183,-836
1550,0,-61,1085,31,130,-750
1551,5,-70,1076,236,37,-704
1552,-8,-82,1084,333,-24,-743
1553,-6,-86,1075,294,-63,-790
1554,-5,-79,1070,132,-84,-805
1555,-14,-88,1057,11,-45,-840
1556,3,-71,1046,-106,44,-866
1557,4,-64,1039,-209,105,-887
1558,-4,-39,1045,-241,144,-920
1559,1,-36,1072,-182,197,-928
1560,-6,-13,1066,-137,212,-868
1561,18,1,1115,-67,140,-856
1562,27,18,1125,-34,54,-870
1563,18,28,1094,-20,-53,-875
1564,9,23,1079,27,-141,-840
1565,9,13,1048,72,-176,-768
1566,5,-9,1031,111,-149,-708
1567,4,-13,1045,138,-127,-717
1568,10,9,1028,123,-57,-750
1569,17,23,1057,109,33,-706
1570,15,28,1079,152,58,-653
1571,47,38,1111,195,15,-606
1572,27,45,1092,162,-79,-586
1573,31,49,1091,119,-176,-579
1574,32,57,1083,95,-258,-575
1575,33,45,1060,72,-276,-545
1576,30,49,1055,80,-280,-520
1577,27,56,1033,144,-256,-504
1578,39,38,1039,195,-190,-510
1579,34,51,1033,148,-116,-497
1580,40,50,1037,113,-36,-475
1581,55,62,1055,42,-34,-477
1582,56,75,1080,42,-77,-450
1583,46,83,1079,97,-161,-411
1584,56,87,1074,169,-272,-338
1585,55,69,1066,177,-403,-241
1586,56,57,1051,162,-495,-182
1587,52,52,1024,136,-557,-180
1588,57,43,997,117,-561,-217
1589,57,55,999,91,-491,-239
1590,65,71,972,54,-401,-223
1591,79,70,978,5,-321,-194
1592,88,85,969,-57,-270,-161
1593,91,86,958,-98,-256,-122
1594,80,79,953,-75,-233,-63
1595,97,71,954,-26,-209,-8
1596,102,51,944,80,-217,31
1597,105,44,952,126,-237,29
1598,109,40,958,132,-256,23
1599,111,52,949,52,-307,27
1600,111,54,909,-57,-366,31
1601,128,66,865,-159,-395,42
1602,133,74,854,-237,-395,76
1603,142,67,787,-258,-368,99
1604,143,63,750,-176,-301,132
1605,153,49,722,-34,-282,218
1606,155,19,691,144,-276,289
1607,156,13,654,333,-346,300
1608,161,4,603,431,-473,275
1609,144,-9,545,355,-567,228
1610,139,-22,486,134,-567,164
1611,130,-40,400,-151,-448,132
1612,123,-44,298,-417,-202,95
1613,117,-62,263,-510,173,103
1614,120,-59,248,-399,539,207
1615,123,-75,225,-110,771,314
1616,107,-93,243,310,906,343
1617,127,-85,280,750,1027,300
1618,98,-67,303,1046,1126,156
1619,74,-15,344,1066,1279,42
1620,58,27,379,830,1501,3
1621,40,60,404,550,1710,-8
1622,23,63,400,265,1865,103
1623,8,43,365,64,1933,214
1624,-5,50,346,64,1896,289
1625,-11,45,293,210,1839,310
1626,-71,59,295,482,1941,261
1627,-111,112,324,746,2212,125
1628,-132,200,450,955,2601,70
1629,-147,236,529,904,2923,42
1630,-181,227,610,683,3044,42
1631,-204,250,669,480,2990,177
1632,-258,251,746,421,3035,335
1633,-325,257,840,603,3152,478
1634,-391,275,973,916,3228,599
1635,-465,217,1075,1210,3316,603
1636,-512,187,1197,1335,3347,458
1637,-515,210,1316,1076,3232,218
1638,-500,203,1324,550,3103,5
1639,-522,312,1354,152,2873,-155
1640,-541,417,1411,-16,2658,-186
1641,-526,433,1452,93,2480,93
1642,-555,451,1468,361,2382,347
1643,-543,420,1466,507,2240,343
1644,-584,431,1480,361,2050,289
1645,-600,461,1479,-98,1943,253
1646,-603,463,1452,-709,1861,392
1647,-619,452,1399,-1159,1824,589
1648,-617,476,1359,-1196,1806,785
1649,-616,454,1410,-872,1847,1068
1650,-634,422,1515,-278,1859,1333
1651,-635,366,1618,222,1730,1466
1652,-601,343,1678,332,1513,1484
1653,-599,314,1680,146,1216,1503
1654,-600,318,1648,-206,996,1402
1655,-629,338,1599,-612,917,1335
1656,-628,334,1545,-725,968,1378
1657,-637,306,1516,-500,1095,1550
1658,-630,248,1533,-194,1347,1748
1659,-606,210,1629,21,1625,1837
1660,-587,177,1730,66,1843,1882
1661,-588,114,1856,-22,1779,1941
1662,-580,70,1896,-284,1595,1929
1663,-601,9,1951,-485,1113,1800
1664,-619,1,1919,-557,628,1623
1665,-624,-43,1852,-559,166,1392
1666,-622,-57,1770,-471,-157,1144
1667,-610,-52,1700,-405,-352,917
1668,-600,-36,1644,-342,-379,750
1669,-621,0,1618,-231,-305,728
1670,-597,-11,1638,-106,-223,906
1671,-575,-43,1679,-20,-129,1060
1672,-569,-84,1710,-18,-204,1064
1673,-578,-110,1750,-159,-405,998
1674,-597,-145,1730,-426,-715,958
1675,-589,-184,1680,-706,-1077,853
1676,-598,-191,1625,-856,-1387,703
1677,-610,-204,1528,-844,-1653,496
1678,-626,-179,1451,-713,-1844,328
1679,-621,-149,1409,-549,-1870,375
1680,-597,-117,1365,-549,-1805,603
1681,-562,-85,1316,-510,-1700,755
1682,-531,-89,1301,-374,-1758,882
1683,-530,-83,1273,-282,-1883,1015
1684,-563,-137,1248,-204,-1956,1062
1685,-572,-178,1222,-215,-1952,1015
1686,-568,-205,1205,-331,-1967,826
1687,-565,-243,1168,-520,-1956,636
1688,-556,-272,1156,-532,-1936,404
1689,-548,-265,1133,-391,-1899,160
1690,-525,-236,1134,-174,-1850,1
1691,-535,-239,1152,101,-1811,-98
1692,-535,-218,1172,160,-1733,-14
1693,-501,-228,1159,-34,-1651,121
1694,-502,-250,1142,-315,-1618,267
1695,-516,-318,1111,-639,-1665,339
1696,-507,-347,1076,-920,-1719,185
1697,-494,-356,1045,-1067,-1795,-92
1698,-472,-342,1015,-993,-1901,-317
1699,-473,-325,982,-786,-1928,-483
1700,-481,-302,964,-569,-1833,-620
1701,-452,-296,1013,-424,-1670,-663
1702,-400,-243,1076,-350,-1620,-629
1703,-418,-247,1146,-258,-1782,-600
1704,-396,-251,1192,-208,-2186,-686
1705,-368,-234,1189,-247,-2752,-961
1706,-353,-169,1147,-614,-3401,-1178
1707,-320,-105,1009,-1141,-3938,-1245
1708,-298,-68,801,-1491,-4163,-1204
1709,-296,-45,606,-1657,-4065,-1163
1710,-280,-50,451,-1661,-3819,-1213
1711,-239,15,399,-1381,-3290,-1454
1712,-155,145,432,-1061,-2713,-1571
1713,-37,251,456,-850,-2356,-1502
1714,54,336,487,-684,-2243,-1317
1715,110,346,473,-684,-2379,-975
1716,135,331,402,-713,-2567,-610
1717,155,284,347,-579,-2684,-309
1718,138,254,298,-381,-2629,-159
1719,163,238,273,-168,-2362,-47
1720,172,212,228,42,-2016,-22
1721,160,149,199,341,-1682,-75
1722,159,87,223,625,-1276,-92
1723,199,35,277,707,-856,-86
1724,230,37,360,697,-575,-167
1725,254,86,460,730,-418,-297
1726,291,134,579,724,-334,-311
1727,324,161,633,613,-393,-270
1728,314,202,659,556,-584,-184
1729,287,215,676,552,-737,-73
1730,273,201,664,603,-782,60
1731,255,163,667,664,-706,185
1732,239,122,678,708,-540,250
1733,239,103,734,628,-309,197
1734,242,81,764,451,-67,35
1735,229,93,823,292,87,-75
1736,219,99,885,189,171,-213
1737,204,124,912,78,189,-241
1738,208,125,945,-57,156,-141
1739,196,127,982,-79,107,25
1740,185,109,999,0,74,173
1741,189,73,1007,107,42,318
1742,185,32,1003,166,-38,375
1743,161,18,989,152,-94,349
1744,196,6,961,56,-45,279
1745,179,6,945,-112,11,109
1746,197,47,945,-260,87,3
1747,186,90,939,-333,191,-40
1748,194,83,935,-209,259,21
1749,177,77,975,64,314,99
1750,183,81,1034,310,382,167
1751,179,58,1098,408,417,246
1752,164,47,1142,371,353,283
1753,156,48,1173,271,220,242
1754,184,53,1150,68,95,193
1755,166,67,1103,-153,-42,150
1756,162,68,1066,-297,-125,171
1757,145,41,1015,-262,-98,167
1758,130,34,1004,-170,23,175
1759,127,32,1030,-108,191,193
1760,150,49,1060,-106,312,193
1761,143,42,1077,-145,337,214
1762,144,33,1077,-176,326,232
1763,150,14,1085,-167,263,224
1764,147,-3,1097,-155,158,164
1765,146,-6,1081,-165,23,99
1766,147,-5,1060,-219,-98,29
1767,150,13,1048,-217,-174,-30
1768,144,24,1020,-176,-211,-32
1769,151,22,1005,-133,-186,-38
1770,150,27,989,-98,-141,-28
1771,155,34,990,-79,-49,7
1772,169,39,989,-86,33,50
1773,159,33,1017,-100,58,130
1774,147,15,1013,-86,72,193
1775,137,2,1030,-40,109,193
1776,130,-21,1050,-40,109,201
1777,137,-15,1063,-45,78,201
1778,131,-31,1062,-4,35,140
1779,118,-34,1075,54,3,93
1780,138,-29,1079,19,-16,48
1781,137,-8,1073,-104,-69,0
1782,151,-2,1075,-211,-112,-22
1783,145,7,1039,-204,-127,1
1784,134,0,1041,-120,-112,42
1785,140,-9,1024,-53,-59,117
1786,141,-20,1030,-73,-22,150
1787,145,-32,1055,-118,1,128
1788,134,-31,1035,-194,-12,103
1789,146,-20,1041,-260,-28,97
1790,147,-23,1014,-338,-42,78
1791,139,-24,1016,-309,-49,58
1792,148,-21,1003,-157,-61,82
1793,143,-41,995,33,-45,103
1794,149,-50,1007,140,-36,78
1795,144,-56,1010,130,-6,31
1796,152,-44,1023,33,39,-6
1797,166,-35,1047,-94,41,-30
1798,159,-22,1024,-147,0,-28
1799,156,-8,1002,-159,-57,-43
1800,154,-14,1008,-127,-75,-36
1801,155,-23,994,-83,-28,13
1802,145,-21,1008,-43,13,42
1803,147,-29,1014,-30,27,27
1804,148,-32,1003,-53,41,9
1805,146,-45,1009,-84,70,13
1806,138,-55,1019,-112,97,29
1807,150,-48,1018,-102,101,25
1808,150,-66,1034,-43,68,-8
1809,146,-62,1053,-16,25,-49
1810,139,-63,1042,-28,-6,-84
1811,149,-56,1036,-43,-36,-81
1812,146,-29,1029,-88,-43,-51
1813,141,-46,1033,-106,-45,23
1814,141,-67,1008,-32,-32,76
1815,124,-96,1011,80,35,93
1816,124,-122,1025,142,125,56
1817,123,-132,1051,136,185,-24
1818,128,-138,1071,23,222,-153
1819,136,-134,1083,-98,177,-280
1820,129,-111,1081,-196,107,-372
1821,118,-104,1056,-266,72,-411
1822,132,-100,1065,-211,5,-368
1823,121,-103,1033,-86,-42,-334
1824,116,-118,1025,-10,-24,-303
1825,124,-118,1028,15,5,-301
1826,124,-123,1036,-12,23,-313
1827,123,-134,1030,-79,48,-336
1828,133,-148,1017,-96,74,-364
1829,117,-161,1043,-137,85,-407
1830,115,-169,1037,-163,140,-497
1831,120,-159,1053,-200,156,-577
1832,121,-147,1048,-235,140,-649
1833,113,-154,1030,-239,119,-690
1834,115,-141,1044,-256,123,-721
1835,115,-124,1037,-290,126,-747
1836,127,-120,1030,-303,119,-680
1837,123,-109,1029,-252,83,-614
1838,113,-114,1023,-188,62,-618
1839,114,-120,1017,-116,66,-651
1840,101,-136,993,-100,123,-684
1841,102,-143,1011,-42,107,-747
1842,71,-137,1028,-24,126,-831
1843,114,-144,1032,-40,197,-819
1844,105,-136,1052,0,203,-922
1845,97,-116,1073,-32,117,-987
1846,102,-94,1069,-96,113,-1004
1847,96,-89,1065,-153,136,-981
1848,75,-107,1071,-176,101,-940
1849,103,-110,1071,-194,97,-956
1850,75,-112,1071,-176,117,-997
1851,76,-85,1082,-147,54,-1057
1852,102,-77,1075,-84,41,-1114
1853,86,-67,1080,-2,41,-1143
1854,89,-59,1077,105,-45,-1180
1855,60,-28,1072,144,-98,-1190
1856,66,-36,1057,175,-84,-1135
1857,62,-35,1067,226,-57,-1108
1858,64,-16,1066,205,-26,-1092
1859,80,-20,1084,91,-10,-1057
1860,96,-23,1084,1,11,-1042
1861,98,-8,1087,-38,-88,-1110
1862,94,16,1106,-90,-172,-1174
1863,79,41,1102,-172,-227,-1165
1864,106,64,1056,-254,-241,-1118
1865,117,100,1073,-266,-284,-1096
1866,135,130,1035,-313,-327,-1040
1867,120,142,1017,-309,-305,-963
1868,128,117,960,-143,-229,-887
1869,141,122,972,31,-200,-831
1870,143,132,987,154,-110,-815
1871,152,144,1012,218,-20,-741
1872,146,144,1025,242,-18,-702
1873,152,147,1060,248,-10,-719
1874,169,180,1069,226,-77,-780
1875,182,217,1103,130,-182,-782
1876,176,246,1070,42,-290,-792
1877,173,276,1051,5,-379,-711
1878,174,276,1013,-2,-442,-561
1879,168,229,961,68,-397,-403
1880,146,206,967,183,-307,-292
1881,146,178,968,273,-182,-204
1882,148,151,983,302,-40,-170
1883,143,144,1019,261,46,-186
1884,156,155,1036,162,48,-221
1885,158,144,1065,78,5,-209
1886,140,148,1070,37,-79,-182
1887,169,159,1074,37,-192,-120
1888,159,135,1054,41,-305,-53
1889,151,134,1053,78,-379,21
1890,147,115,1020,91,-409,82
1891,138,100,1011,66,-401,91
1892,145,80,998,52,-344,68
1893,146,69,978,44,-266,7
1894,157,69,987,85,-254,-38
1895,165,90,1006,87,-247,-42
1896,179,108,992,54,-252,21
1897,185,94,988,-8,-299,70
1898,190,93,970,-98,-344,93
1899,191,93,941,-145,-383,85
1900,204,90,920,-131,-374,121
1901,215,88,905,-114,-358,175
1902,213,88,868,-88,-344,214
1903,218,79,820,-86,-303,195
1904,208,84,756,-43,-196,142
1905,219,83,712,1,-75,158
1906,241,97,703,25,-4,142
1907,241,119,692,15,-28,111
1908,238,120,652,-73,-104,72
1909,217,110,575,-184,-256,99
1910,213,74,481,-231,-401,138
1911,197,26,278,-161,-448,140
1912,187,2,140,11,-264,107
1913,179,-22,45,167,146,142
1914,211,-49,14,369,542,142
1915,194,-64,-2,666,986,175
1916,163,-82,20,898,1294,125
1917,146,-61,107,1025,1603,66
1918,158,-48,219,960,1837,7
1919,156,-27,282,693,1839,-45
1920,131,-16,303,250,1812,-16
1921,84,-26,262,-206,1806,11
1922,46,-47,224,-430,1806,11
1923,-7,-106,126,-417,1839,23
1924,-90,-114,95,-47,2039,-36
1925,-131,-125,162,654,2419,-49
1926,-159,-103,311,1242,2833,-194
1927,-192,-23,538,1375,3076,-450
1928,-177,70,675,935,3101,-651
1929,-186,134,708,136,2958,-741
1930,-194,173,671,-524,2730,-696
1931,-214,267,662,-725,2628,-618
1932,-264,363,714,-340,2619,-514
1933,-287,330,764,328,2726,-241
1934,-339,327,841,914,2949,-114
1935,-379,337,1005,1007,3216,-297
1936,-368,382,1220,787,3466,-522
1937,-398,460,1354,332,3378,-788
1938,-430,556,1442,-104,2982,-823
1939,-471,627,1502,-307,2621,-667
1940,-481,641,1508,-157,2333,-352
1941,-518,598,1532,113,2044,13
1942,-547,547,1511,107,1871,271
1943,-571,483,1438,-133,1886,464
1944,-595,449,1447,-569,2269,589
1945,-582,458,1567,-881,2677,550
1946,-545,552,1688,-1043,2666,478
1947,-558,630,1794,-1038,2289,587
1948,-553,654,1775,-788,1708,919
1949,-570,655,1741,-448,1218,1277
1950,-576,588,1697,-170,1011,1566
1951,-573,517,1677,-73,978,1802
1952,-554,490,1689,-163,1044,2011
1953,-541,391,1675,-297,1228,2197
1954,-556,272,1775,-569,1443,2429
1955,-560,143,1838,-1096,1587,2490
1956,-537,37,1880,-1491,1488,2466
1957,-520,-23,1888,-1674,1250,2394
1958,-536,-59,1911,-1547,976,2265
1959,-507,-133,1904,-1038,753,2210
1960,-513,-202,1901,-454,570,2128
1961,-499,-268,1928,-137,419,1964
1962,-487,-278,1910,-227,238,1822
1963,-469,-306,1893,-471,136,1685
1964,-446,-340,1834,-713,-96,1574
1965,-423,-369,1761,-840,-395,1445
1966,-427,-352,1675,-909,-635,1273
1967,-397,-320,1633,-877,-780,1220
1968,-343,-273,1553,-684,-797,1203
1969,-343,-221,1497,-434,-858,1125
1970,-352,-177,1481,-135,-866,1099
1971,-345,-154,1460,29,-795,1166
1972,-375,-211,1508,107,-887,1220
1973,-373,-251,1538,126,-983,1144
1974,-372,-267,1595,44,-1221,1085
1975,-349,-298,1606,-96,-1417,1109
1976,-359,-335,1594,-299,-1594,976
1977,-363,-330,1581,-542,-1653,804
1978,-357,-301,1553,-686,-1672,658
1979,-365,-275,1517,-653,-1729,457
1980,-376,-239,1480,-512,-1741,289
1981,-359,-207,1426,-413,-1721,179
1982,-367,-157,1380,-313,-1620,87
1983,-401,-137,1400,-153,-1489,82
1984,-433,-171,1446,101,-1379,91
1985,-414,-138,1488,263,-1502,-36
1986,-384,-107,1494,316,-1825,-129
1987,-397,-76,1466,201,-2182,-108
1988,-386,-67,1395,-81,-2391,-59
1989,-388,-82,1276,-366,-2512,-18
1990,-408,-99,1179,-471,-2467,-24
1991,-409,-108,1116,-477,-2262,-73
1992,-404,-101,1065,-479,-1930,-122
1993,-379,-41,1038,-436,-1534,-149
1994,-366,-34,1035,-354,-1217,-180
1995,-350,-4,1051,-202,-977,-122
1996,-306,16,1146,-100,-1028,-28
1997,-278,13,1197,89,-1360,87
1998,-324,-10,1190,419,-1854,-45
1999,-325,-43,1207,564,-2086,-120
2000,-357,-70,1199,312,-2040,-20
2001,-372,-107,1168,-254,-1747,3
2002,-375,-126,1119,-885,-1417,-51
2003,-367,-144,1046,-1352,-961,-79
2004,-402,-138,1035,-1620,-567,-122
2005,-345,-107,1085,-1424,-534,-204
2006,-297,-88,1149,-1051,-1100,-303
2007,-229,-27,1156,-737,-2090,-436
2008,-182,-47,1004,-743,-3167,-471
2009,-198,-44,767,-926,-3924,-426
2010,-197,-61,489,-1129,-4135,-420
2011,-158,-91,206,-1221,-3875,-467
2012,-88,-38,66,-1223,-3186,-614
2013,-10,5,5,-1100,-2340,-762
2014,47,95,22,-772,-1659,-778
2015,128,144,62,-446,-1180,-684
2016,218,167,154,-217,-975,-356
2017,273,147,199,-213,-1032,85
2018,292,74,184,-256,-1270,458
2019,296,-6,125,-155,-1461,537
2020,253,-92,109,238,-1417,529
2021,251,-164,125,691,-1168,435
2022,282,-178,171,875,-799,207
2023,285,-138,225,695,-442,-88
2024,303,-77,254,277,-127,-325
2025,327,41,310,-73,199,-399
2026,373,142,377,-198,509,-280
2027,389,186,452,-114,746,-51
2028,387,173,515,-38,750,253
2029,365,102,578,201,720,525
2030,321,-14,620,583,560,640
2031,290,-54,724,966,472,490
2032,240,-71,850,1216,494,210
2033,213,-40,955,1097,478,13
2034,194,36,1019,685,400,-180
2035,210,59,981,103,322,-401
2036,193,101,940,-360,333,-442
2037,219,117,883,-555,363,-348
2038,203,135,896,-407,462,-167
2039,198,121,921,-153,564,87
2040,189,91,960,89,546,332
2041,147,29,1016,318,562,474
2042,121,4,1060,474,523,511
2043,89,-12,1094,435,408,425
2044,81,-24,1089,318,357,257
2045,99,-17,1093,214,300,42
2046,87,23,1102,87,326,-122
2047,95,41,1104,-83,394,-184
2048,105,67,1074,-192,433,-104
2049,113,70,1062,-88,435,29
2050,103,44,1042,160,468,156
2051,80,34,1058,335,542,257
2052,72,4,1117,375,582,328
2053,52,-17,1157,332,587,318
2054,66,-26,1202,279,482,193
2055,73,-30,1173,158,314,25
2056,45,-33,1146,5,115,-53
2057,43,-20,1138,-81,66,-92
2058,69,-9,1099,-96,46,-90
2059,64,17,1090,-57,3,-81
2060,72,14,1060,-34,-6,-47
2061,81,10,1052,-45,37,-53
2062,88,18,1034,-61,123,-83
2063,97,38,1050,-141,208,-96
2064,100,38,1034,-188,234,-49
2065,102,20,1047,-106,201,13
2066,94,10,1054,42,158,52
2067,83,-1,1046,121,115,44
2068,81,-16,1054,93,56,42
2069,71,-16,1058,35,11,56
2070,71,-26,1024,-16,5,21
2071,72,2,1012,-34,19,0
2072,80,6,1009,-59,54,-14
2073,71,18,1012,-67,115,0
2074,68,14,1001,-55,160,39
2075,63,12,1043,-20,212,72
2076,61,-10,1063,-24,259,64
2077,65,-22,1096,-59,251,15
2078,57,-38,1104,-100,160,-57
2079,74,-33,1085,-178,58,-106
2080,56,-19,1079,-276,-12,-116
2081,55,-11,1053,-237,-53,-81
2082,62,-4,1045,-116,-94,-36
2083,38,-14,1013,-24,-88,5
2084,49,-29,1013,3,25,5
2085,48,-29,1027,-47,191,0
2086,57,-45,1035,-110,269,3
2087,64,-44,1048,-77,281,-36
2088,50,-40,1060,-24,230,-73
2089,56,-46,1106,21,152,-59
2090,53,-44,1105,9,80,-61
2091,58,-49,1091,-71,-16,-75
2092,54,-48,1045,-124,-100,-63
2093,43,-52,1032,-102,-112,-90
2094,56,-48,1048,-104,-55,-104
2095,53,-44,1029,-155,19,-98
2096,49,-44,1039,-147,64,-81
2097,54,-49,1037,-67,126,-108
2098,53,-55,1030,-20,183,-135
2099,73,-46,1042,-36,183,-133
2100,64,-57,1070,-69,156,-137
2101,68,-53,1091,-110,89,-141
2102,67,-49,1086,-153,-14,-127
2103,47,-52,1065,-135,-92,-131
2104,50,-53,1048,-86,-116,-116
2105,47,-65,1024,-71,-96,-92
2106,48,-84,1019,-79,-57,-90
2107,47,-93,1020,-79,-14,-75
2108,38,-108,1018,-22,21,-67
2109,47,-119,1061,-8,72,-90
2110,43,-158,1052,-51,105,-122
2111,49,-165,1092,-42,29,-168
2112,23,-161,1104,-65,-47,-256
2113,16,-173,1105,-59,-127,-315
2114,0,-208,1073,-71,-180,-327
2115,10,-224,1077,-165,-198,-319
2116,11,-243,1050,-260,-178,-319
2117,-23,-280,1024,-319,-120,-336
2118,36,-292,1006,-446,58,-342
2119,54,-307,1029,-444,138,-493
2120,15,-307,1041,-379,42,-616
2121,11,-318,1025,-305,31,-659
2122,9,-341,1035,-120,11,-715
2123,21,-337,1033,-55,-16,-807
2124,27,-339,1031,-110,-22,-883
2125,22,-338,1040,-241,-36,-987
2126,24,-326,1001,-348,7,-1137
2127,17,-296,1009,-368,5,-1266
2128,26,-268,999,-420,44,-1350
2129,21,-218,1020,-411,93,-1370
2130,55,-185,1008,-317,144,-1319
2131,53,-172,1018,-63,105,-1344
2132,36,-155,1030,97,60,-1391
2133,35,-137,1014,87,23,-1413
2134,23,-100,1039,37,11,-1417
2135,51,-88,1042,-30,11,-1450
2136,52,-64,1025,-161,0,-1510
2137,51,-29,1022,-284,-16,-1553
2138,52,13,1019,-329,41,-1540
2139,56,33,1035,-260,91,-1473
2140,58,44,1015,-149,74,-1358
2141,42,40,1027,-14,66,-1258
2142,31,41,1006,52,70,-1180
2143,30,55,1002,42,146,-1157
2144,22,53,1003,-12,218,-1116
2145,23,55,1003,-32,269,-1034
2146,31,65,1019,66,296,-1012
2147,29,60,1036,207,242,-1018
2148,25,66,1045,246,214,-1075
2149,19,69,1046,283,218,-1133
2150,19,84,1052,339,220,-1143
2151,15,99,1078,353,236,-1141
2152,36,110,1075,304,185,-1110
2153,18,116,1078,314,56,-1098
2154,19,132,1065,302,-42,-1059
2155,-2,130,1058,298,-57,-995
2156,12,114,1043,412,-42,-959
2157,8,121,1053,539,-20,-1010
2158,22,125,1073,537,27,-1010
2159,28,161,1081,417,80,-938
2160,45,170,1123,244,128,-891
2161,46,182,1107,85,115,-833
2162,58,205,1107,9,42,-735
2163,58,204,1094,23,-63,-647
2164,58,197,1083,91,-167,-547
2165,57,183,1072,154,-239,-497
2166,48,160,1050,251,-229,-473
2167,31,138,1060,308,-208,-499
2168,36,129,1052,333,-170,-549
2169,28,143,1067,291,-106,-547
2170,38,145,1065,183,-42,-553
2171,44,153,1078,54,-43,-563
2172,43,155,1072,-65,-90,-534
2173,47,174,1060,-116,-141,-479
2174,57,174,1082,-75,-192,-350
2175,68,172,1077,23,-256,-182
2176,64,161,1063,156,-325,-100
2177,79,155,1035,248,-409,-61
2178,59,154,1037,212,-465,-104
2179,61,149,1007,33,-438,-106
2180,63,161,989,-118,-401,-141
2181,65,164,957,-176,-377,-165
2182,89,171,945,-211,-346,-124
2183,88,176,932,-209,-344,-38
2184,99,162,883,-116,-391,78
2185,101,160,868,-10,-444,193
2186,106,121,776,29,-456,304
2187,80,83,723,31,-329,429
2188,90,52,653,-43,-151,494
2189,109,23,619,-6,-12,460
2190,121,11,584,173,21,285
2191,113,32,603,314,15,150
2192,124,53,611,339,64,74
2193,122,44,603,218,115,107
2194,115,17,559,-4,93,171
2195,110,-19,500,-227,48,207
2196,85,-61,404,-344,25,162
2197,64,-113,335,-401,95,138
2198,41,-143,228,-288,351,95
2199,25,-134,226,-24,714,-26
2200,10,-113,271,365,1080,-98
2201,11,-74,339,722,1429,-120
2202,14,-50,407,833,1580,-108
2203,3,-35,466,824,1560,-73
2204,1,-21,471,730,1494,-84
2205,-13,-15,475,490,1478,-252
2206,-24,18,477,119,1484,-340
2207,-17,54,426,-178,1527,-454
2208,-11,97,410,-143,1722,-713
2209,-28,134,404,-8,2093,-901
2210,-50,206,419,125,2496,-952
2211,-87,225,468,326,2896,-901
2212,-129,248,554,519,3128,-752
2213,-184,268,684,572,3232,-688
2214,-183,308,794,386,3308,-600
2215,-216,309,846,111,3400,-518
2216,-219,316,867,21,3480,-358
2217,-277,338,919,275,3490,-424
2218,-369,351,1027,648,3472,-500
2219,-421,367,1125,830,3517,-618
2220,-452,387,1192,748,3585,-627
2221,-504,401,1261,392,3574,-479
2222,-514,431,1310,46,3458,-333
2223,-504,482,1335,-141,3328,-239
2224,-507,506,1345,-153,3130,-4
2225,-480,546,1338,-61,2917,306
2226,-518,561,1382,128,2646,550
2227,-569,573,1399,150,2464,845
2228,-622,532,1440,60,2474,1173
2229,-640,478,1513,-104,2519,1363
2230,-644,449,1589,-293,2453,1433
2231,-640,437,1642,-456,2205,1531
2232,-683,423,1640,-586,1904,1558
2233,-659,393,1616,-622,1630,1587
2234,-680,378,1592,-477,1478,1626
2235,-695,387,1613,-286,1464,1679
2236,-716,380,1679,-131,1632,1775
2237,-737,319,1791,-247,1912,1923
2238,-736,270,1886,-532,2015,1994
2239,-754,240,1997,-848,1892,2019
2240,-755,197,2023,-1073,1607,2101
2241,-747,156,1985,-975,1115,2126
2242,-770,137,1991,-639,597,2037
2243,-769,144,2009,-301,208,1951
2244,-746,137,2031,-83,-120,1939
2245,-745,102,1997,-63,-358,1849
2246,-749,97,1961,-20,-557,1683
2247,-771,87,1966,-77,-612,1554
2248,-779,58,1934,-409,-584,1550
2249,-763,21,1925,-590,-719,1615
2250,-779,-19,1914,-602,-963,1595
2251,-790,-86,1849,-571,-1333,1546
2252,-809,-167,1718,-270,-1774,1384
2253,-810,-184,1607,126,-2106,1025
2254,-771,-199,1540,406,-2266,824
2255,-766,-159,1476,587,-2278,589
2256,-783,-94,1497,634,-2272,572
2257,-756,-107,1498,851,-2239,855
2258,-688,-122,1458,888,-2231,1058
2259,-691,-186,1434,697,-2411,1134
2260,-687,-207,1401,505,-2608,1021
2261,-663,-223,1377,394,-2807,832
2262,-650,-160,1372,269,-3042,716
2263,-624,-121,1382,212,-3293,806
2264,-625,-124,1316,70,-3467,916
2265,-627,-95,1268,-192,-3684,970
2266,-669,-149,1214,-549,-3743,1074
2267,-651,-202,1163,-887,-3579,1232
2268,-612,-261,1067,-1018,-3391,1171
2269,-597,-277,1036,-930,-3303,945
2270,-580,-302,993,-815,-3272,794
2271,-549,-303,968,-743,-3297,636
2272,-502,-275,958,-659,-3465,414
2273,-447,-197,901,-682,-3735,189
2274,-400,-141,850,-825,-3928,72
2275,-342,-103,777,-1079,-4043,93
2276,-317,-166,617,-1362,-4153,181
2277,-311,-206,452,-1487,-4118,95
2278,-216,-144,317,-1633,-3823,-249
2279,-107,-87,207,-1952,-3432,-393
2280,-44,-19,116,-2135,-3047,-461
2281,35,39,43,-1770,-2672,-543
2282,118,89,49,-1106,-2360,-532
2283,186,122,63,-434,-2137,-450
2284,244,117,91,70,-1989,-217
2285,280,85,116,398,-1940,52
2286,298,72,153,488,-1911,156
2287,261,37,168,423,-1764,195
2288,285,44,194,294,-1489,167
2289,321,44,250,11,-1125,48
2290,324,82,289,-278,-715,-22
2291,311,105,347,-301,-313,-102
2292,313,115,434,-42,27,-118
2293,299,123,573,332,189,-63
2294,325,144,673,642,236,0
2295,317,159,756,714,158,25
2296,314,154,792,474,-49,115
2297,274,120,795,248,-180,152
2298,247,119,796,105,-237,99
2299,209,104,770,-28,-227,66
2300,196,73,763,-165,-77,64
2301,179,52,787,-262,187,5
2302,161,42,819,-313,441,-67
2303,157,30,881,-303,607,-77
2304,185,61,906,-250,638,-98
2305,185,69,943,-143,556,-118
2306,161,69,986,-49,398,-133
2307,176,106,1032,21,318,-153
2308,194,122,1043,-45,273,-137
2309,190,142,1056,-209,244,-96
2310,153,122,1010,-370,302,-20
2311,174,90,1004,-366,337,58
2312,151,84,999,-221,359,70
2313,155,59,998,15,429,35
2314,136,78,1040,162,517,9
2315,139,57,1066,253,599,39
2316,139,72,1113,304,587,25
2317,141,89,1135,240,486,-30
2318,144,106,1141,80,343,-14
2319,139,100,1130,-53,177,37
2320,132,97,1102,-116,41,46
2321,133,90,1054,-125,-2,9
2322,131,77,1035,-178,29,-10
2323,127,61,1011,-192,123,-45
2324,114,52,988,-168,177,-43
2325,121,68,972,-188,269,-73
2326,142,86,988,-211,398,-81
2327,154,117,995,-250,466,0
2328,136,127,977,-229,500,128
2329,128,120,1012,-86,488,242
2330,134,87,1048,15,447,322
2331,154,71,1067,111,296,322
2332,120,58,1043,138,82,275
2333,91,34,1024,144,-38,218
2334,80,19,1006,169,-12,97
2335,89,25,1006,154,68,-65
2336,97,38,981,-20,109,-167
2337,98,54,991,-192,171,-213
2338,91,75,982,-280,244,-208
2339,91,96,981,-292,324,-165
2340,96,106,1020,-268,363,-73
2341,87,101,1041,-235,373,39
2342,75,73,1081,-194,330,138
2343,65,48,1059,-165,263,164
2344,69,33,1057,-186,201,164
2345,65,32,1067,-172,144,93
2346,62,22,1048,-114,93,48
2347,42,25,1059,-43,62,3
2348,40,21,1029,-47,117,-16
2349,65,33,1043,-102,117,-45
2350,68,45,1042,-249,183,-71
2351,78,51,1043,-342,263,-53
2352,84,63,1042,-383,273,-6
2353,77,46,1048,-385,269,21
2354,91,29,1033,-342,230,52
2355,69,27,1042,-239,205,35
2356,68,9,1051,-110,136,0
2357,67,-4,1051,-4,101,-8
2358,76,1,1040,-10,62,-55
2359,74,0,1050,-49,52,-110
2360,79,5,1030,-88,44,-98
2361,73,17,1029,-83,58,-125
2362,75,22,1019,-57,76,-108
2363,73,19,1013,-57,123,-65
2364,79,6,1018,-63,177,-75
2365,78,1,1013,-57,212,-86
2366,77,5,1034,-84,212,-100
2367,80,-2,1028,-112,216,-94
2368,69,1,1044,-108,212,-84
2369,74,-8,1046,-98,197,-71
2370,82,-26,1044,-98,183,-75
2371,70,-36,1039,-57,132,-100
2372,65,-44,1038,-4,85,-147
2373,64,-59,1019,-2,74,-157
2374,54,-74,1003,-43,101,-153
2375,53,-70,1015,-98,144,-176
2376,57,-83,990,-178,191,-182
2377,63,-93,997,-284,259,-184
2378,65,-110,980,-374,302,-178
2379,57,-126,998,-391,341,-211
2380,49,-152,1000,-346,402,-297
2381,55,-143,1008,-235,402,-366
2382,64,-138,1018,-102,369,-463
2383,66,-133,1032,-40,316,-532
2384,63,-112,1035,-4,234,-540
2385,55,-128,1007,0,181,-471
2386,44,-143,1016,-98,208,-436
2387,35,-146,978,-182,273,-532
2388,29,-154,976,-227,341,-645
2389,25,-135,977,-348,515,-696
2390,19,-125,1014,-354,642,-745
2391,26,-113,1061,-319,630,-752
2392,7,-120,1070,-329,623,-735
2393,-11,-119,1094,-254,494,-801
2394,-11,-116,1101,-266,423,-915
2395,-11,-110,1086,-288,302,-971
2396,-12,-92,1069,-329,218,-983
2397,-24,-94,1059,-405,230,-975
2398,-57,-113,1049,-444,263,-963
2399,-16,-73,1027,-465,406,-868
2400,0,-75,1030,-344,476,-1018
2401,-28,-65,1052,-180,466,-1067
2402,-41,-47,1087,-20,494,-1077
2403,-35,-33,1123,80,511,-1032
2404,-40,-49,1120,125,451,-1012
2405,-60,-39,1146,95,361,-1010
2406,-59,-50,1155,21,318,-1010
2407,-78,-41,1139,-108,269,-1016
2408,-85,-46,1120,-223,218,-989
2409,-69,-40,1129,-254,169,-1038
2410,-87,-40,1123,-389,191,-1065
2411,-99,-50,1088,-500,269,-1045
2412,-96,-63,1085,-514,294,-1053
2413,-107,-61,1071,-432,283,-1061
2414,-89,-64,1087,-288,273,-1122
2415,-97,-52,1095,-204,277,-1143
2416,-73,-45,1102,-127,216,-1167
2417,-75,-24,1112,-137,171,-1168
2418,-69,0,1117,-215,123,-1112
2419,-80,-4,1100,-241,62,-1018
2420,-63,6,1090,-307,-14,-1002
2421,-59,13,1065,-368,13,-997
2422,-53,-5,1068,-411,-45,-1018
2423,-72,0,1037,-422,-24,-987
2424,-78,-17,1017,-393,11,-983
2425,-58,20,1023,-290,62,-1028
2426,-68,38,1014,-241,105,-1022
2427,-47,56,1029,-147,105,-938
2428,-38,80,1047,46,80,-899
2429,-32,92,1062,261,76,-877
2430,-21,119,1080,396,0,-772
2431,-15,136,1087,394,-116,-676
2432,-20,119,1062,333,-192,-606
2433,-37,87,1025,316,-235,-571
2434,-35,78,1022,259,-184,-584
2435,-48,64,1015,173,-81,-641
2436,-54,67,1022,121,23,-657
2437,-34,84,1042,128,97,-711
2438,-39,113,1052,134,109,-743
2439,-14,132,1076,119,85,-704
2440,-19,147,1070,103,9,-624
2441,-15,146,1071,179,-102,-534
2442,-14,167,1050,291,-176,-491
2443,-7,161,1061,345,-268,-430
2444,-31,145,1038,308,-243,-346
2445,-35,110,1040,259,-198,-301
2446,-34,93,1028,218,-125,-344
2447,-35,112,1041,128,-24,-440
2448,-28,108,1030,1,60,-454
2449,-22,111,1059,-69,70,-428
2450,-24,113,1070,-40,54,-426
2451,-31,112,1074,33,17,-405
2452,-24,129,1090,105,-69,-350
2453,-18,135,1088,160,-198,-282
2454,-8,124,1075,199,-297,-213
2455,-20,114,1062,166,-370,-159
2456,-46,100,1031,93,-366,-133
2457,-32,95,1006,19,-305,-165
2458,-30,82,1010,-12,-196,-176
2459,-19,76,1011,-6,-102,-172
2460,-24,69,1029,29,-61,-188
2461,-22,79,1041,83,-63,-172
2462,-37,56,1060,126,-71,-159
2463,-17,64,1075,156,-145,-161
2464,-14,73,1068,169,-252,-168
2465,8,85,1065,123,-372,-135
2466,3,90,1041,62,-459,-79
2467,12,90,1019,-18,-512,-8
2468,7,64,972,-75,-502,27
2469,15,49,938,-94,-456,21
2470,10,34,916,-118,-352,-22
2471,20,35,921,-96,-229,-47
2472,29,44,932,-2,-114,-73
2473,43,53,947,58,-67,-84
2474,61,59,940,89,-92,-96
2475,57,77,944,35,-196,-92
2476,71,88,946,-61,-350,-59
2477,83,79,882,-118,-473,-45
2478,83,48,818,-112,-559,0
2479,89,18,750,-42,-629,21
2480,75,-8,706,54,-657,21
2481,97,-30,689,154,-649,27
2482,93,-38,637,183,-655,-22
2483,87,-46,595,101,-690,-143
2484,100,-32,519,-59,-723,-229
2485,135,6,457,-307,-799,-334
2486,168,78,358,-543,-987,-440
2487,144,131,256,-555,-1192,-426
2488,142,145,162,-206,-1252,-231
2489,141,142,94,384,-1229,64
2490,106,95,31,1089,-1081,240
2491,58,47,15,1755,-731,353
2492,36,20,44,2064,-139,322
2493,41,24,85,1912,451,292
2494,13,3,109,1498,925,246
2495,-17,-3,133,1111,1226,91
2496,-16,24,173,962,1429,-100
2497,-29,129,194,902,1619,-170
2498,-45,150,207,941,1824,-22
2499,-64,194,224,1255,2091,121
2500,-105,246,282,1535,2402,232
2501,-142,261,408,1630,2968,396
2502,-196,231,516,1515,3498,480
2503,-252,222,650,1291,3767,318
2504,-298,226,762,894,3826,179
2505,-360,255,897,578,3851,70
2506,-397,259,1046,554,3847,70
2507,-419,311,1155,824,3681,117
2508,-457,341,1253,1171,3468,220
2509,-500,335,1341,1414,3449,335
2510,-547,291,1406,1345,3552,390
2511,-596,231,1482,970,3712,250
2512,-593,219,1527,365,3832,54
2513,-577,228,1600,-229,3814,-161
2514,-558,284,1659,-667,3613,-346
2515,-548,363,1653,-768,3318,-415
2516,-550,431,1656,-469,2871,-377
2517,-568,460,1624,-151,2404,-223
2518,-565,462,1590,42,2009,-73
2519,-544,443,1536,21,1779,64
2520,-551,430,1507,-61,1683,95
2521,-529,440,1480,-299,1660,150
2522,-539,478,1511,-678,1695,224
2523,-545,540,1518,-930,1736,378
2524,-524,551,1509,-971,1718,597
2525,-526,551,1501,-973,1662,716
2526,-526,535,1489,-903,1576,769
2527,-514,533,1464,-737,1439,794
2528,-513,536,1423,-440,1289,796
2529,-541,549,1383,-84,1171,873
2530,-566,552,1406,257,1146,925
2531,-584,533,1447,396,1224,890
2532,-593,534,1517,349,1353,1039
2533,-617,537,1668,93,1503,1468
2534,-593,465,1754,-227,1533,1972
2535,-594,362,1778,-622,1427,2218
2536,-631,257,1804,-1034,1175,2324
2537,-649,156,1787,-1305,910,2271
2538,-668,83,1723,-1350,636,2062
2539,-695,15,1647,-1145,320,1677
2540,-706,-19,1590,-813,58,1132
2541,-721,-59,1539,-545,-55,597
2542,-735,-79,1518,-438,48,150
2543,-725,-37,1531,-512,265,-26
2544,-691,16,1615,-555,458,130
2545,-638,68,1709,-436,462,408
2546,-640,66,1796,-167,183,699
2547,-656,41,1848,-51,-301,949
2548,-695,-14,1841,-77,-694,1072
2549,-693,-73,1775,-264,-1221,1132
2550,-724,-117,1712,-549,-1581,1013
2551,-748,-156,1605,-749,-1735,775
2552,-768,-192,1526,-799,-1749,404
2553,-766,-212,1486,-803,-1633,35
2554,-761,-169,1479,-807,-1565,-235
2555,-738,-102,1497,-678,-1645,-280
2556,-712,-52,1493,-518,-1850,-165
2557,-682,9,1494,-534,-2249,107
2558,-682,3,1450,-661,-2684,443
2559,-702,-38,1361,-829,-3042,689
2560,-702,-81,1211,-1114,-3208,843
2561,-709,-125,1080,-1438,-3120,875
2562,-692,-119,954,-1741,-2782,787
2563,-675,-126,842,-1805,-2247,611
2564,-628,-110,813,-1559,-1659,525
2565,-626,-116,874,-991,-1252,437
2566,-598,-103,968,-303,-1026,507
2567,-535,-119,1043,195,-1161,458
2568,-507,-99,1091,355,-1561,310
2569,-502,-99,1117,208,-2106,283
2570,-517,-102,1074,-186,-2491,289
2571,-541,-116,1020,-586,-2571,214
2572,-500,-136,905,-944,-2584,150
2573,-511,-142,814,-1346,-2493,52
2574,-468,-135,743,-1684,-2282,-12
2575,-410,-110,711,-1872,-2061,-116
2576,-337,-55,711,-1750,-1993,-233
2577,-288,-32,777,-1299,-2170,-317
2578,-222,12,799,-739,-2625,-325
2579,-170,36,788,-340,-3239,-266
2580,-196,23,693,-217,-3786,-98
2581,-211,5,574,-350,-4055,-42
2582,-172,-50,422,-651,-3934,-61
2583,-125,-47,276,-1061,-3538,-118
2584,-54,-53,200,-1551,-3129,-149
2585,-5,-24,136,-1840,-2625,-219
2586,73,26,124,-1575,-2137,-165
2587,158,34,137,-850,-1749,31
2588,215,46,164,-71,-1569,289
2589,218,13,229,480,-1473,482
2590,213,-8,303,832,-1342,615
2591,225,-49,349,804,-1155,679
2592,211,-64,367,666,-944,613
2593,225,-95,388,505,-854,382
2594,253,-122,399,480,-700,31
2595,252,-69,426,478,-567,-293
2596,266,-12,484,341,-561,-532
2597,270,59,509,119,-323,-532
2598,273,113,551,-45,-63,-319
2599,289,113,575,-30,62,1
2600,271,115,616,134,128,332
2601,236,74,629,375,207,562
2602,197,53,697,650,365,587
2603,176,-2,707,701,533,435
2604,198,13,767,625,593,189
2605,196,42,836,365,683,-55
2606,175,65,875,85,781,-284
2607,162,102,925,-57,830,-334
2608,137,120,960,-98,812,-182
2609,139,126,985,-55,779,11
2610,96,89,1010,9,718,181
2611,95,53,1013,50,580,343
2612,67,11,1004,17,482,437
2613,47,-26,1011,-4,470,371
2614,54,-58,1033,58,375,304
2615,45,-63,1015,80,300,201
2616,26,-42,1025,50,326,93
2617,45,-28,1037,3,412,-14
2618,39,0,1039,-51,441,-67
2619,32,18,1048,-79,449,-51
2620,34,20,1063,-71,470,-51
2621,45,64,1068,-69,478,-6
2622,34,63,1096,-51,470,82
2623,42,61,1086,-86,412,218
2624,33,5,1063,-83,330,304
2625,21,-3,1046,33,244,285
2626,7,-38,1051,156,214,193
2627,-3,-45,1037,240,232,107
2628,-13,-46,1048,275,267,29
2629,-3,-35,1060,283,310,-59
2630,8,3,1097,197,314,-161
2631,-11,20,1095,60,292,-184
2632,5,27,1105,-24,216,-157
2633,11,39,1075,-96,140,-124
2634,12,35,1065,-112,105,-92
2635,4,52,1052,-96,87,-42
2636,-3,58,1046,-67,105,13
2637,2,47,1030,-57,123,23
2638,-10,31,1017,-34,148,-6
2639,-33,19,1004,-16,169,-8
2640,-27,4,1010,64,197,-34
2641,-39,-3,1033,109,218,-73
2642,-46,-9,1058,115,240,-98
2643,-45,-14,1081,103,265,-108
2644,-45,1,1104,54,240,-145
2645,-50,10,1121,15,140,-182
2646,-54,29,1138,-12,31,-192
2647,-43,53,1118,-57,-32,-157
2648,-38,54,1087,-145,-38,-133
2649,-38,51,1065,-157,-14,-79
2650,-45,55,1056,-100,15,-32
2651,-45,32,1048,-67,113,-8
2652,-52,28,1045,-36,238,21
2653,-63,-12,1065,50,292,-24
2654,-56,-10,1112,136,279,-96
2655,-65,-11,1140,89,207,-161
2656,-63,-1,1156,9,44,-237
2657,-60,36,1146,-118,-75,-256
2658,-52,46,1133,-194,-161,-176
2659,-46,52,1091,-225,-256,-86
2660,-38,42,1059,-151,-290,-32
2661,-34,42,1047,-75,-272,89
2662,-39,23,1047,-55,-215,175
2663,-51,-16,994,7,-73,156
2664,-45,-49,1016,97,80,70
2665,-63,-54,1056,107,167,17
2666,-40,-43,1080,85,210,-49
2667,-38,-55,1091,54,150,-92
2668,-47,-61,1111,21,31,-149
2669,-46,-58,1115,-8,-92,-186
2670,-32,-68,1092,-51,-206,-204
2671,-39,-66,1062,-84,-292,-217
2672,-26,-76,1060,-135,-329,-215
2673,-14,-64,1014,-178,-333,-225
2674,-19,-83,983,-223,-292,-231
2675,-27,-106,945,-266,-135,-249
2676,4,-101,960,-143,-42,-334
2677,-6,-75,971,-43,42,-442
2678,11,-54,1022,-8,115,-436
2679,7,-50,1033,1,109,-418
2680,19,-19,1033,1,37,-413
2681,29,-10,991,-4,-34,-407
2682,7,-5,1003,54,-98,-352
2683,5,-18,999,171,-129,-284
2684,0,-20,1007,273,-108,-252
2685,-8,-38,1013,277,-75,-225
2686,-23,-64,1009,183,-28,-270
2687,-32,-56,1021,60,54,-327
2688,-31,-73,1011,-43,119,-436
2689,-37,-66,1017,-98,191,-573
2690,-28,-57,1042,-155,251,-655
2691,-39,-37,1046,-153,240,-661
2692,-40,-21,1074,-145,205,-667
2693,-34,-14,1102,-133,156,-606
2694,-25,-8,1089,-79,54,-524
2695,-34,-4,1080,-12,-83,-434
2696,-24,-12,1066,23,-161,-364
2697,-30,-25,1048,19,-223,-366
2698,-43,-25,1025,7,-194,-444
2699,-37,-21,1013,58,-143,-530
2700,-36,-11,1011,62,-34,-602
2701,-40,-2,1033,-6,83,-690
2702,-39,13,1044,-84,197,-690
2703,-27,9,1047,-151,242,-672
2704,-31,21,1076,-141,238,-686
2705,-25,22,1076,-81,183,-661
2706,-36,22,1094,33,111,-594
2707,-23,19,1094,134,46,-522
2708,-36,12,1095,150,-42,-463
2709,-42,-4,1081,74,-106,-448
2710,-54,-18,1052,-79,-110,-448
2711,-49,-25,1049,-178,-131,-471
2712,-41,-15,1025,-235,-114,-557
2713,-42,-16,1006,-264,-42,-618
2714,-36,-11,1001,-309,27,-655
2715,-30,-4,996,-344,134,-706
2716,-23,1,1002,-313,195,-745
2717,-17,16,1030,-192,197,-752
2718,-25,32,1049,-92,171,-741
2719,-13,45,1074,1,130,-665
2720,-15,47,1064,23,39,-592
2721,-36,40,1067,37,-45,-518
2722,-43,15,1036,21,-79,-430
2723,-55,3,1025,41,-77,-389
2724,-67,-23,1017,50,-28,-418
2725,-54,-22,1014,46,109,-516
2726,-54,-23,1046,17,218,-629
2727,-53,-6,1061,-34,269,-688
2728,-52,-1,1084,-79,255,-694
2729,-53,28,1100,-92,191,-657
2730,-40,29,1115,-75,95,-606
2731,-39,28,1096,-163,-18,-524
2732,-46,13,1092,-241,-94,-475
2733,-48,-1,1045,-284,-131,-456
2734,-49,-24,1018,-258,-149,-477
2735,-60,-27,988,-157,-151,-510
2736,-52,-26,987,-92,-88,-555
2737,-57,-27,992,-79,35,-596
2738,-51,-6,1019,-67,156,-641
2739,-50,1,1019,-20,205,-635
2740,-37,6,1052,46,210,-584
2741,-37,20,1097,46,181,-543
2742,-38,23,1090,-26,83,-506
2743,-37,17,1084,-106,3,-465
2744,-51,13,1070,-125,-77,-418
2745,-50,-11,1063,-75,-108,-381
2746,-60,-26,1033,41,-161,-395
2747,-75,-45,1021,107,-147,-454
2748,-66,-28,1010,173,-67,-543
2749,-70,-19,1022,228,17,-629
2750,-77,-13,1064,189,107,-663
2751,-69,13,1082,134,152,-663
2752,-53,35,1112,91,107,-647
2753,-60,35,1114,68,-4,-604
2754,-57,32,1132,35,-114,-561
2755,-52,26,1123,11,-241,-551
2756,-64,0,1102,27,-325,-528
2757,-71,5,1052,66,-334,-575
2758,-77,-14,1062,111,-272,-667
2759,-77,18,1049,93,-176,-727
2760,-56,32,1045,56,-51,-780
2761,-41,55,1064,37,46,-829
2762,-30,96,1062,9,74,-807
2763,-26,95,1065,-26,9,-709
2764,-27,100,1066,-14,-75,-579
2765,-22,90,1069,74,-118,-491
2766,-43,76,1076,169,-194,-417
2767,-33,59,1057,244,-237,-385
2768,-42,66,1047,251,-239,-405
2769,-37,63,1055,212,-215,-465
2770,-41,89,1047,136,-167,-530
2771,-25,102,1034,66,-106,-536
2772,-23,106,1058,70,-75,-500
2773,-5,124,1075,148,-102,-450
2774,-12,126,1075,187,-151,-374
2775,-26,124,1080,216,-196,-286
2776,-17,113,1077,216,-202,-225
2777,-18,114,1099,156,-258,-208
2778,-26,99,1061,76,-315,-211
2779,-22,93,1045,42,-334,-221
2780,-14,102,1024,70,-352,-225
2781,-17,98,1019,101,-348,-219
2782,-8,104,1009,123,-348,-192
2783,-4,115,1022,144,-317,-159
2784,-7,108,1024,183,-297,-88
2785,6,109,1044,183,-280,-28
2786,9,104,1053,166,-311,3
2787,7,111,1033,101,-356,21
2788,14,94,1034,33,-413,35
2789,16,84,1014,-16,-506,37
2790,36,86,1006,-69,-598,44
2791,35,89,989,-174,-651,50
2792,54,79,946,-325,-670,74
2793,67,88,892,-409,-686,72
2794,73,94,843,-477,-653,109
2795,83,73,774,-512,-588,128
2796,112,85,724,-333,-547,97
2797,122,102,682,-124,-577,3
2798,149,132,629,-161,-665,-38
2799,156,139,574,-227,-717,-36
2800,164,176,528,-295,-881,13
2801,157,173,439,-391,-1063,107
2802,174,160,354,-522,-1170,279
2803,189,148,253,-698,-1202,503
2804,169,75,102,-803,-1129,656
2805,160,-32,-37,-655,-987,826
2806,141,-86,-131,-182,-829,783
2807,145,-124,-167,419,-536,486
2808,151,-83,-148,687,-18,93
2809,145,2,-91,529,601,-241
2810,154,94,-24,150,1109,-331
2811,151,158,65,-59,1347,-225
2812,118,204,97,33,1304,13
2813,61,208,102,343,1222,386
2814,-1,188,117,667,1281,636
2815,-107,158,148,904,1521,652
2816,-169,119,171,1087,1867,572
2817,-264,79,242,1097,2390,464
2818,-328,77,349,1025,3062,304
2819,-357,131,525,1054,3595,134
2820,-404,202,711,1025,3691,113
2821,-486,198,842,1103,3515,220
2822,-538,147,931,1191,3236,404
2823,-537,91,1011,1236,3015,421
2824,-566,136,1130,1195,3167,125
2825,-555,146,1253,1048,3474,-43
2826,-559,140,1354,818,3632,-131
2827,-571,144,1368,556,3654,-336
2828,-597,170,1380,263,3673,-463
2829,-597,203,1518,111,3738,-600
2830,-592,290,1635,-2,3736,-583
2831,-584,326,1767,-114,3599,-391
2832,-578,287,1786,-286,3316,-200
2833,-571,279,1824,-475,2951,-149
2834,-595,312,1806,-608,2654,-198
2835,-596,391,1819,-555,2363,-104
2836,-586,426,1783,-321,2218,-63
2837,-564,458,1760,-12,2111,-45
2838,-564,500,1711,-8,2039,0
2839,-575,575,1708,-243,2005,97
2840,-576,626,1665,-516,1863,240
2841,-600,652,1605,-522,1646,433
2842,-608,637,1621,-313,1560,667
2843,-602,565,1609,-297,1642,984
2844,-627,442,1643,-428,1632,1248
2845,-608,371,1684,-668,1638,1310
2846,-628,256,1687,-930,1541,1322
2847,-632,199,1684,-965,1400,1257
2848,-633,192,1717,-795,1212,1173
2849,-644,179,1687,-264,980,1205
2850,-668,141,1647,332,751,1164
2851,-669,121,1607,625,564,1074
2852,-668,89,1557,533,667,933
2853,-636,58,1574,173,873,867
2854,-596,23,1581,-174,1044,781
2855,-586,-23,1638,-301,1033,716
2856,-619,-101,1673,-43,771,703
2857,-636,-169,1705,464,382,669
2858,-620,-189,1740,1089,1,529
2859,-599,-153,1783,1509,-268,314
2860,-634,-96,1828,1744,-575,132
2861,-632,-12,1878,1470,-805,103
2862,-633,12,1852,994,-1028,240
2863,-640,-29,1792,537,-1200,597
2864,-651,-95,1756,248,-1342,906
2865,-645,-144,1736,-30,-1458,1095
2866,-641,-187,1714,-200,-1512,1128
2867,-654,-200,1725,-237,-1647,1064
2868,-707,-193,1730,-229,-1834,988
2869,-720,-208,1686,-215,-1985,927
2870,-695,-162,1612,-233,-2127,902
2871,-673,-134,1547,-323,-2333,892
2872,-673,-106,1480,-336,-2536,917
2873,-680,-80,1462,-235,-2680,912
2874,-689,-56,1422,-188,-2786,943
2875,-692,-26,1384,-250,-2782,998
2876,-664,-1,1345,-487,-2764,1109
2877,-639,-14,1285,-721,-2760,1218
2878,-634,-48,1214,-969,-2813,1253
2879,-640,-94,1121,-1225,-2770,1119
2880,-620,-100,1062,-1458,-2672,906
2881,-596,-91,1017,-1508,-2586,734
2882,-557,-88,1005,-1245,-2581,542
2883,-538,-63,992,-1032,-2639,464
2884,-518,-79,982,-852,-2793,425
2885,-469,-61,961,-768,-3081,361
2886,-427,-60,875,-821,-3401,314
2887,-420,-121,718,-1163,-3553,392
2888,-436,-160,571,-1733,-3301,339
2889,-397,-169,445,-2340,-2733,156
2890,-319,-143,360,-2538,-2131,-53
2891,-256,-56,338,-2053,-1725,-354
2892,-167,-13,347,-1225,-1543,-553
2893,-81,21,378,-418,-1534,-547
2894,-16,44,385,-22,-1795,-440
2895,4,17,389,-192,-2151,-323
2896,32,9,323,-483,-2338,-247
2897,55,5,242,-803,-2317,-233
2898,57,15,157,-1018,-2100,-231
2899,92,39,167,-1081,-1688,-102
2900,126,52,184,-823,-1325,66
2901,147,47,237,-284,-1059,292
2902,167,10,317,277,-956,425
2903,186,2,376,640,-999,378
2904,199,-7,433,628,-1108,189
2905,193,2,465,255,-1118,3
2906,189,-10,433,-167,-1008,-71
2907,178,-36,395,-502,-872,-129
2908,194,-48,355,-625,-711,-243
2909,196,-19,392,-694,-333,-377
2910,198,25,452,-610,76,-401
2911,211,69,530,-282,277,-389
2912,225,104,622,119,347,-356
2913,208,98,714,453,292,-286
2914,175,117,787,597,228,-229
2915,154,91,848,507,207,-137
2916,119,83,853,347,210,-47
2917,125,52,877,177,185,35
2918,111,24,865,0,197,-26
2919,81,13,884,-98,242,-125
2920,92,25,899,-122,263,-243
2921,96,32,901,-149,308,-284
2922,55,32,909,-18,269,-235
2923,47,15,947,347,253,-133
2924,31,1,990,644,283,-18
2925,36,-13,1034,720,292,35
2926,11,-39,1050,628,253,-51
2927,-14,-34,1051,404,207,-186
2928,-10,-4,1058,54,224,-377
2929,-3,17,1066,-278,304,-520
2930,16,53,1085,-430,351,-620
2931,22,89,1082,-520,351,-633
2932,40,116,1069,-604,326,-522
2933,46,128,1045,-542,287,-364
2934,25,116,1044,-233,234,-227
2935,9,94,1077,107,228,-84
2936,-8,53,1073,296,228,5
2937,-20,32,1102,310,207,7
2938,-28,26,1123,146,201,-53
2939,-5,32,1142,-55,191,-120
2940,-1,51,1119,-229,191,-200
2941,7,68,1111,-333,205,-202
2942,11,63,1088,-377,230,-147
2943,3,48,1091,-387,230,-96
2944,-3,37,1089,-387,191,-55
2945,12,12,1084,-415,138,-32
2946,13,1,1062,-387,105,-28
2947,4,-17,1052,-284,66,-14
2948,-13,-27,1081,-125,56,-36
2949,-15,-9,1095,-14,72,-51
2950,-25,-8,1115,-6,123,-124
2951,-21,-1,1122,-61,115,-190
2952,-12,8,1133,-147,66,-256
2953,-6,8,1119,-264,-6,-288
2954,-5,33,1122,-407,-69,-290
2955,-4,46,1117,-506,-90,-262
2956,0,33,1094,-520,-145,-204
2957,4,45,1067,-383,-225,-145
2958,1,38,1059,-186,-266,-110
2959,-18,32,1029,-18,-243,-79
2960,-9,45,1018,105,-202,-30
2961,-8,33,1027,144,-112,11
2962,-7,36,1044,171,9,17
2963,-16,51,1096,154,87,17
2964,-1,70,1109,78,99,52
2965,-12,68,1118,13,54,87
2966,-20,74,1140,-36,-36,117
2967,-19,60,1113,-127,-172,158
2968,-25,45,1078,-223,-249,185
2969,-37,33,1046,-215,-252,181
2970,-29,10,1030,-149,-282,164
2971,-13,15,1025,-92,-247,156
2972,-14,11,975,-36,-217,177
2973,-6,3,981,41,-145,171
2974,-11,11,1011,136,-40,214
2975,-1,35,1049,207,37,207
2976,5,32,1060,242,1,214
2977,1,41,1076,216,-106,228
2978,11,21,1067,156,-139,193
2979,4,12,1056,54,-145,199
2980,5,6,1047,-32,-180,207
2981,20,8,1036,-84,-165,181
2982,15,21,1025,-79,-161,189
2983,-3,4,1018,-10,-145,193
2984,18,13,1007,78,-118,218
2985,18,8,1022,97,-59,246
2986,32,12,1037,113,-6,232
2987,43,27,1050,144,-63,199
2988,32,41,1056,173,-106,189
2989,31,25,1056,158,-102,210
2990,39,27,1052,140,-116,218
2991,33,35,1046,132,-127,210
2992,32,15,1019,91,-163,220
2993,32,5,994,56,-168,210
2994,26,31,981,68,-112,140
2995,35,38,995,58,-14,125
2996,29,63,1006,97,70,154
2997,39,86,1042,179,97,228
2998,29,86,1052,236,85,390
2999,36,62,1038,244,85,490
3000,39,35,1029,265,35,486
3001,36,30,1040,238,-40,447
3002,33,34,1023,148,-57,439
3003,18,17,1043,78,-4,437
3004,15,14,1021,37,46,408
3005,12,1,1051,5,89,361
3006,15,3,1035,-22,70,310
3007,12,11,1043,-32,48,267
3008,30,10,1028,17,44,267
3009,28,21,1038,158,-6,292
3010,17,23,1037,302,-49,318
3011,18,21,1063,380,-84,328
3012,27,25,1072,412,-116,314
3013,29,39,1079,341,-139,304
3014,28,24,1052,238,-143,296
3015,19,22,1028,123,-120,296
3016,7,7,1011,41,-75,271
3017,20,7,997,5,0,250
3018,46,13,1003,9,107,195
3019,36,11,1018,15,152,167
3020,37,10,1048,39,107,207
3021,41,11,1043,103,37,207
3022,41,22,1047,177,-28,214
3023,40,37,1059,208,-102,240
3024,26,40,1051,205,-112,267
3025,43,30,1033,154,-61,322
3026,41,6,1010,85,-71,300
3027,19,-2,990,27,-75,261
3028,9,-13,972,-6,52,218
3029,29,1,991,3,185,162
3030,35,4,1017,60,214,132
3031,35,20,1044,125,171,107
3032,22,33,1044,156,128,128
3033,21,41,1057,195,103,164
3034,19,50,1062,253,60,220
3035,24,42,1064,279,0,244
3036,19,40,1090,230,-8,236
3037,4,32,1060,132,15,210
3038,3,36,1048,60,23,150
3039,8,48,1052,3,42,87
3040,7,43,1036,-34,101,87
3041,12,35,1057,-4,97,85
3042,12,37,1079,42,35,85
3043,17,35,1073,66,1,93
3044,24,41,1051,46,-47,107
3045,22,43,1033,62,-96,87
3046,25,58,1020,97,-90,76
3047,12,60,1013,162,-63,95
3048,18,62,1014,226,-24,119
3049,13,58,1016,210,29,130
3050,15,57,1035,150,78,119
3051,15,54,1037,56,99,103
3052,16,62,1060,-8,83,87
3053,18,61,1052,-43,41,91
3054,8,56,1034,-2,-12,111
3055,8,46,1036,44,-34,109
3056,17,58,1025,33,-40,125
3057,7,40,1012,21,-36,160
3058,17,55,1012,62,-18,167
3059,7,43,1008,82,31,128
3060,12,38,1015,85,125,125
3061,6,39,1022,72,160,119
3062,10,45,1057,115,150,109
3063,18,42,1060,125,109,103
3064,12,54,1048,95,58,97
3065,1,42,1074,85,27,130
3066,15,48,1074,93,0,125
3067,4,62,1076,95,-16,99
3068,-3,57,1051,72,-22,103
3069,-13,46,1050,52,-40,68
3070,-6,43,1025,41,-28,48
3071,0,55,1037,-16,21,52
3072,29,43,1020,-75,62,37
3073,9,48,1031,-36,13,-20
3074,12,62,1025,-20,-32,0
3075,8,62,1031,13,-8,29
3076,9,58,1023,66,-10,31
3077,0,58,1036,85,-14,48
3078,6,68,1051,56,15,42
3079,0,63,1028,5,27,37
3080,-4,62,1058,-22,31,37
3081,0,60,1045,-43,21,42
3082,-7,58,1037,-49,7,46
3083,-7,60,1048,-59,13,42
3084,13,56,1053,-65,41,39
3085,-12,47,1031,-43,41,25