sequence,AccelerometerX,AccelerometerY,AccelerometerZ,GyroscopeX,GyroscopeY,GyroscopeZ
0,-183,-325,902,420,302,-138
1,-187,-336,925,149,29,-275
2,-189,-344,961,-135,-332,-375
3,-203,-345,995,-301,-655,-427
4,-219,-365,997,-258,-807,-480
5,-236,-358,1013,-158,-731,-464
6,-245,-362,1014,47,-500,-423
7,-251,-337,1004,410,-71,-414
8,-264,-350,971,559,373,-347
9,-273,-346,975,541,601,-310
10,-286,-332,1004,408,597,-377
11,-290,-327,1075,244,351,-369
12,-287,-376,1083,287,29,-556
13,-328,-354,1102,508,-118,-611
14,-360,-341,1107,826,-51,-539
15,-357,-314,1094,1268,248,-418
16,-313,-300,1048,1758,689,-261
17,-264,-323,1069,1992,1066,-128
18,-254,-313,1035,2035,1113,-212
19,-367,-280,1009,2147,908,-449
20,-443,-248,996,2182,587,-546
21,-439,-251,1001,2160,253,-392
22,-440,-238,1013,2240,85,-216
23,-451,-244,1020,2334,230,-115
24,-398,-177,1020,2389,435,49
25,-279,-145,1022,2568,750,51
26,-148,-121,1028,2875,1253,96
27,-167,-86,1000,2981,1652,-45
28,-270,-4,1017,2930,1755,-459
29,-433,-7,1078,2676,1726,-816
30,-482,105,1055,2729,1636,-851
31,-443,150,1016,3176,1072,-851
32,-348,104,965,3652,726,-771
33,-309,113,970,3951,904,-552
34,-254,98,973,3906,1359,-578
35,-234,73,949,3789,1966,-761
36,-292,164,877,3768,2433,-939
37,-356,222,738,3649,2507,-1339
38,-439,268,665,3479,1472,-1787
39,-482,293,744,2781,341,-2002
40,68,347,136,1697,-86,-1816
41,-522,72,767,-5736,2462,-2136
42,-241,-82,908,-4680,162,-1658
43,-348,-523,833,-5738,2,-1195
44,-289,-145,954,-7217,566,-1638
45,-491,-77,903,-8174,693,-1037
46,-408,-175,869,-8785,439,-1642
47,-367,-299,685,-10582,-1457,-2443
48,-473,-479,649,-11982,-2586,-2105
49,-462,-570,839,-11576,-2881,-1673
50,-369,-605,987,-10976,-2856,-1396
51,-318,-577,1004,-9381,-2827,-1316
52,-287,-561,1021,-6742,-2522,-1062
53,-308,-542,1022,-3498,-1930,-683
54,-370,-535,969,-463,-1497,-375
55,-223,-467,918,1856,-1319,-634
56,-179,-313,871,3172,-1393,-884
57,-245,-175,797,3891,-1594,-1888
58,-333,-179,799,4356,-1524,-2992
59,-383,-225,862,4287,-995,-3074
60,-291,-486,977,2981,-926,-3232
61,-230,-571,1010,2785,-1286,-3277
62,-293,-448,938,3008,-1479,-2878
63,-292,-265,925,3322,-1465,-2050
64,-269,-161,814,3424,-924,-834
65,-212,-61,788,3190,-627,178
66,24,-81,669,2291,-1135,305
67,119,-249,851,705,-1918,-277
68,73,-419,1138,834,-1774,-750
69,125,-501,1098,1402,-1827,-890
70,101,-417,1006,2055,-1756,-1123
71,32,-291,966,2098,-1899,-1418
72,-23,-268,952,2326,-1797,-1339
73,-31,-435,1084,2744,-1500,-994
74,77,-386,939,3272,-1069,-851
75,-70,-217,977,3848,-252,-839
76,-77,-173,983,4084,-139,-574
77,-27,-105,887,4734,-241,-425
78,-217,-214,949,4789,-620,-556
79,-261,-43,916,4279,-1051,-1269
80,-298,-33,974,3379,-1586,-1480
81,-339,-94,1003,2951,-3137,-1574
82,-423,-184,1010,3027,-4952,-1361
83,287,215,1504,2811,-5985,-554
84,234,-23,2048,190,-1120,-175
85,-390,-62,255,80,10318,-3648
86,1039,-590,-305,-2826,7896,-5640
87,128,-301,944,-1008,3212,-1298
88,-21,-131,1157,772,2802,-1615
89,1,-45,1084,-308,1787,-2216
90,-132,70,1098,-891,1685,-2050
91,-27,-41,1085,-1154,1207,-1580
92,-25,-34,1029,-1613,359,-1115
93,-37,-67,936,-1988,58,-593
94,-55,-93,897,-2133,105,247
95,-53,146,1045,-2189,490,815
96,-139,32,1185,-4144,1021,116
97,-212,-103,1156,-6875,1660,-377
98,-223,-156,1043,-7892,1652,-521
99,-241,-175,947,-7523,1119,-478
100,-78,-167,905,-6676,19,198
101,-28,-248,786,-4980,-764,1147
102,-111,-342,655,-3396,-1528,1961
103,-528,-613,424,-2553,-2481,2903
104,-48,-433,944,-3137,-4922,4760
105,513,-533,865,561,-1020,5108
106,-115,-351,1105,2539,414,3383
107,-120,-366,977,22,-809,2491
108,-157,-327,930,-762,-805,1991
109,-131,-307,946,-754,-207,1637
110,-27,-403,863,-476,119,741
111,-41,-440,873,137,46,397
112,-117,-358,860,836,-508,383
113,-130,-359,799,1602,-360,743
114,-58,-408,892,1434,578,1262
115,-78,-557,939,992,1207,2082
116,-164,-290,883,154,1933,2840
117,-111,-304,963,-414,2478,4090
118,-83,-251,978,-156,2074,4961
119,-304,-294,1000,1152,1242,5159
120,-497,-319,1097,2151,294,4655
121,-495,-377,1219,2422,334,3530
122,-514,-391,1283,1885,656,2497
123,-436,-416,1169,1166,908,1426
124,-358,-350,993,756,1093,811
125,-282,-265,955,1072,1160,768
126,-263,-256,924,1535,1386,823
127,-222,-217,922,2168,1043,832
128,-232,-182,971,2526,515,934
129,-236,-265,984,2633,205,784
130,-318,-161,983,2852,-432,571
131,-341,-78,896,2858,-473,774
132,-292,-124,926,2584,351,1004
133,-330,-148,918,2395,488,825
134,-375,-133,854,2186,558,508
135,-421,-178,870,2072,1054,272
136,-429,-95,947,1988,1484,-224
137,-397,-13,954,1451,2234,-513
138,-326,-16,983,631,3025,-771
139,-242,0,1021,119,2752,-914
140,-269,-34,997,172,1828,-750
141,-281,-46,963,725,560,-546
142,-322,-53,920,1068,-84,-277
143,-338,-95,936,942,46,-181
144,-358,-90,987,752,111,-310
145,-333,-56,991,340,-6,-468
146,-279,-33,982,-78,-196,-564
147,-244,-19,959,-326,-383,-519
148,-221,-10,938,-504,-553,-345
149,-206,-28,921,-504,-821,-144
150,-212,-56,953,-349,-1202,61
151,-243,-80,975,-113,-1821,157
152,-293,-115,998,88,-2592,86
153,-317,-122,1013,186,-3362,-84
154,-312,-141,967,168,-4028,-328
155,-256,-103,938,149,-4543,-632
156,-189,-103,873,119,-4836,-716
157,-165,-86,785,195,-4602,-632
158,16,-81,683,402,-4071,-441
159,-14,-63,837,149,-3588,-320
160,15,-33,783,457,-2987,-168
161,31,-8,857,272,-2776,-166
162,-56,91,916,-80,-3100,-513
163,-82,-72,982,-701,-4307,-1711
164,-128,10,1046,-137,-4680,-2502
165,-266,-27,1007,1133,-4319,-3644
166,-430,80,974,2891,-3204,-4882
167,12,-370,993,3547,-2530,-6357
168,420,-507,1185,3584,-1225,-4312
169,-55,-85,1031,3615,775,-2150
170,-88,-135,870,2469,1138,-1966
171,-87,-122,932,1531,1728,-1582
172,-90,-78,922,246,2210,-1888
173,-71,-103,864,-1057,2416,-2388
174,-78,3,890,-2379,2226,-2597
175,-15,-158,883,-3070,2054,-2283
176,-16,23,878,-2728,1806,-1925
177,-25,202,766,-2275,2173,-1769
178,-73,125,1100,-3527,2804,-861
179,38,-31,1062,-2723,3041,-378
180,44,-40,1010,-2303,2361,-271
181,-16,-208,1013,-1408,1728,-302
182,-27,-169,972,-369,1404,-439
183,-90,-75,967,334,1351,-531
184,-152,-76,982,608,1291,-478
185,-173,-143,1036,799,1390,-572
186,-150,-36,1075,871,1400,-377
187,-174,-15,1090,680,1248,-29
188,-186,-50,1108,703,1043,278
189,-186,-58,1110,709,716,657
190,-258,-190,1078,397,404,1104
191,-278,-148,1073,100,382,883
192,-284,-145,1085,-500,451,506
193,-277,-94,1039,-1010,521,256
194,-190,-121,1037,-1432,548,307
195,-180,-98,1038,-1443,517,350
196,-189,-126,999,-1285,310,422
197,-222,-114,997,-1115,246,459
198,-239,-81,1029,-932,404,520
199,-272,-41,1039,-887,660,684
200,-247,-54,1042,-1082,935,903
201,-309,-120,952,-1170,1103,977
202,-314,-261,1059,-767,1232,1024
203,-243,-140,1091,-1158,843,1373
204,-326,227,837,-994,478,1434
205,-423,-285,955,465,529,-1029
206,-172,-158,1168,654,628,-461
207,-256,-133,1088,117,242,-130
208,-256,-201,1032,174,-104,-302
209,-235,-231,998,213,-67,-341
210,-269,-171,1023,233,33,-320
211,-291,-159,1061,-8,353,-388
212,-272,-175,1026,-287,691,-572
213,-223,-168,1039,-312,937,-791
214,-224,-155,1062,-244,1064,-849
215,-237,-110,1096,-99,1085,-806
216,-271,-102,1100,43,1072,-720
217,-278,-101,1151,344,1048,-543
218,-288,-91,1183,604,837,-214
219,-306,-113,1196,772,589,80
220,-316,-140,1191,813,496,207
221,-331,-164,1215,715,500,260
222,-364,-163,1212,512,599,207
223,-388,-226,1228,399,824,108
224,-418,-266,1258,279,1044,47
225,-420,-253,1300,137,1218,-134
226,-431,-315,1316,18,1388,-535
227,-449,-276,1361,67,1384,-736
228,-466,-224,1411,375,1410,-894
229,-483,-184,1497,781,1568,-961
230,-510,-152,1617,1041,1681,-976
231,-561,-134,1712,1070,1691,-1003
232,-597,-109,1796,996,1736,-992
233,-656,-65,1891,895,1732,-945
234,-680,-75,1951,875,1597,-572
235,-730,0,2048,1195,1236,-293
236,-764,-16,2048,1690,677,69
237,-779,264,2048,1967,-86,276
238,-863,-19,2048,1838,-897,803
239,-884,53,2048,1766,-1838,872
240,-940,121,2048,1787,-2827,846
241,-934,98,2048,1537,-3784,1118
242,-917,42,2041,1248,-4721,1420
243,-894,-11,1846,981,-5682,1627
244,-868,-27,1630,828,-6516,1756
245,-868,-55,1451,676,-7137,1870
246,-845,-74,1297,539,-7616,2002
247,-800,-138,1093,445,-8049,2079
248,-752,-185,894,422,-8448,2028
249,-684,-217,732,311,-8700,1827
250,-607,-217,575,-6,-8860,1565
251,-511,-197,401,-400,-8948,1315
252,-418,-186,270,-584,-9081,1166
253,-361,-156,112,-570,-9225,1088
254,-302,-161,-50,-480,-9194,1002
255,-210,-129,-170,-340,-8938,957
256,-144,-119,-300,-271,-8430,860
257,-73,-117,-380,-240,-7682,842
258,-25,-104,-399,-164,-6717,905
259,2,-93,-388,-158,-5577,1008
260,45,-102,-359,-180,-4477,1106
261,76,-116,-298,-301,-3612,1194
262,119,-131,-251,-410,-3030,1239
263,143,-140,-199,-498,-2639,1172
264,154,-119,-181,-496,-2375,1024
265,175,-104,-214,-344,-2145,807
266,201,-88,-226,-90,-1877,590
267,215,-73,-236,141,-1557,385
268,248,-60,-232,369,-1163,268
269,287,-43,-236,527,-721,250
270,305,-22,-195,574,-223,239
271,334,31,-145,535,209,247
272,378,-39,-111,283,525,356
273,443,-86,-89,119,785,155
274,450,-51,-106,18,978,-86
275,428,-46,-74,20,1240,-242
276,385,-48,-60,127,1554,-285
277,312,49,-3,338,1832,-238
278,263,-52,5,592,2087,-93
279,242,-84,109,932,2312,-62
280,240,-114,139,1104,2457,-89
281,191,-156,265,1121,2668,-121
282,138,-140,271,994,2775,-277
283,133,-136,313,867,2800,-382
284,119,-93,327,820,2886,-402
285,118,-45,362,762,2951,-459
286,110,43,412,820,3156,-492
287,104,81,450,787,3505,-584
288,133,84,525,606,4000,-529
289,123,45,576,498,4330,-306
290,103,-8,605,545,4375,-52
291,39,-43,634,818,4363,86
292,-23,-61,689,1192,4314,112
293,-57,-40,783,1303,4343,22
294,-100,-7,868,1195,4539,-177
295,-94,1,974,758,4904,-369
296,-101,11,1077,102,5351,-414
297,-104,3,1179,-236,5642,-433
298,-154,1,1292,-160,5627,-433
299,-215,35,1419,318,5443,-398
300,-272,77,1567,733,5181,-390
301,-260,99,1743,953,4921,-300
302,-275,89,1822,709,4597,-302
303,-272,84,1920,188,4404,-386
304,-262,117,1995,-264,4222,-560
305,-281,178,2047,-566,3933,-714
306,-294,243,2048,-607,3584,-849
307,-302,320,2048,-590,3253,-920
308,-316,401,2048,-715,2972,-902
309,-344,433,2048,-1010,2615,-789
310,-357,461,2048,-1254,2171,-640
311,-358,459,2048,-1359,1607,-425
312,-357,439,2048,-1271,947,-255
313,-353,439,2016,-1080,238,-214
314,-358,442,1876,-1098,-454,-265
315,-324,432,1761,-1291,-936,-341
316,-291,427,1632,-1476,-1209,-462
317,-244,367,1499,-1560,-1379,-570
318,-220,349,1369,-1426,-1457,-679
319,-197,375,1286,-1084,-1434,-703
320,-161,406,1238,-719,-1395,-488
321,-144,415,1170,-432,-1438,-136
322,-152,460,1153,-262,-1479,229
323,-141,448,1123,-363,-1454,737
324,-136,399,1068,-558,-1479,1278
325,-115,374,1002,-738,-1452,1661
326,-89,336,959,-760,-1366,1862
327,-89,261,915,-639,-1192,2090
328,-111,179,903,-359,-979,2274
329,-81,121,890,-146,-768,2323
330,-89,82,882,-166,-530,2272
331,-89,63,897,-330,-368,2219
332,-82,72,912,-502,-235,2276
333,-65,42,925,-596,-196,2477
334,-71,-28,906,-514,-282,2750
335,-81,-125,879,-312,-334,3026
336,-101,-198,902,-62,-313,3166
337,-125,-252,877,92,-209,3186
338,-183,-324,900,203,-10,3131
339,-235,-396,933,252,205,3034
340,-274,-472,962,315,377,2829
341,-297,-497,1001,438,472,2649
342,-308,-573,1053,416,568,2584
343,-316,-664,1126,391,599,2336
344,-313,-648,1166,467,464,1959
345,-329,-597,1156,455,228,1584
346,-332,-589,1127,170,117,1395
347,-337,-599,1121,-267,70,1241
348,-297,-624,1091,-639,11,1008
349,-271,-615,1026,-791,-79,705
350,-251,-603,1007,-820,-141,368
351,-219,-555,997,-799,-161,73
352,-190,-528,975,-797,-165,-158
353,-171,-485,971,-818,-180,-382
354,-137,-447,978,-779,-233,-611
355,-135,-392,957,-787,-307,-849
356,-116,-334,995,-822,-354,-1060
357,-93,-277,964,-820,-399,-1156
358,-95,-243,942,-775,-434,-1115
359,-73,-221,914,-623,-407,-1003
360,-68,-229,902,-414,-323,-894
361,-60,-231,922,-316,-161,-859
362,-57,-242,932,-377,54,-791
363,-45,-279,985,-408,160,-918
364,-51,-208,1010,-408,119,-1074
365,-38,-160,1003,-369,74,-1173
366,-31,-105,991,-314,109,-1162
367,-62,-97,1024,-180,175,-1050
368,-41,-66,1033,-141,154,-1029
369,-67,-53,1047,-256,171,-966
370,-75,-69,1055,-324,226,-875
371,-65,-93,1065,-394,285,-769
372,-60,-134,1055,-474,283,-681
373,-54,-192,1039,-484,236,-554
374,-61,-249,994,-375,107,-431
375,-96,-341,964,-154,-61,-351
376,-147,-362,955,162,-237,-357
377,-186,-407,987,469,-219,-525
378,-187,-367,1001,676,-155,-900
379,-179,-333,1010,545,-43,-1162
380,-164,-327,1024,236,177,-1316
381,-146,-324,1007,-84,414,-1392
382,-153,-359,1018,-281,562,-1402
383,-166,-371,1002,-324,543,-1429
384,-206,-389,953,-199,419,-1507
385,-225,-380,958,106,285,-1664
386,-218,-331,958,479,230,-1925
387,-196,-267,980,693,261,-2156
388,-198,-205,1004,654,318,-2355
389,-188,-140,1003,451,382,-2488
390,-162,-102,1000,223,431,-2572
391,-154,-45,964,111,476,-2609
392,-97,-11,960,125,574,-2591
393,-92,16,970,211,597,-2355
394,-84,66,970,334,552,-2128
395,-97,62,971,531,451,-1961
396,-120,90,980,652,378,-1882
397,-160,115,983,652,398,-1869
398,-159,156,1003,568,500,-1882
399,-154,188,1031,387,605,-1900
400,-145,204,1049,195,599,-1851
401,-144,221,1066,102,531,-1707
402,-136,228,1063,119,451,-1496
403,-147,209,1075,170,369,-1287
404,-156,191,1053,227,304,-1119
405,-157,185,1054,229,300,-998
406,-154,170,1067,186,334,-882
407,-180,163,1069,145,355,-771
408,-192,131,1056,78,341,-685
409,-181,144,1033,14,341,-578
410,-181,102,1068,6,330,-427
411,-166,92,1042,41,195,-349
412,-155,78,1037,18,101,-283
413,-154,49,1005,-33,115,-228
414,-158,40,1011,-96,197,-187
415,-161,24,981,-135,293,-127
416,-157,1,1012,-127,341,-62
417,-169,-16,1026,-119,330,-23
418,-187,-43,1038,-119,275,-17
419,-187,-46,1062,-148,224,-15
420,-182,-60,1040,-142,169,34
421,-192,-74,1042,-76,82,86
422,-202,-65,1037,-16,17,96
423,-206,-77,1011,-4,17,84
424,-195,-81,1001,-29,48,55
425,-170,-68,997,-88,85,30
426,-159,-79,1012,-162,103,10
427,-165,-85,1006,-182,87,10
428,-138,-91,1004,-139,41,28
429,-137,-98,1000,-125,-20,39
430,-146,-98,997,-148,-67,69
431,-168,-103,1006,-203,-59,135
432,-148,-131,1003,-273,-24,153
433,-167,-141,1001,-240,13,129
434,-178,-138,1027,-121,60,90
435,-161,-127,1006,-183,-4,43
436,-154,-132,1029,-273,-43,10
437,-139,-127,983,-369,-53,-13
438,-143,-123,996,-383,-59,-3
439,-145,-139,988,-316,-67,22
440,-142,-147,973,-226,-71,14
441,-156,-156,996,-180,-77,-23
442,-155,-171,996,-203,-96,-91
443,-158,-149,992,-297,-120,-175
444,-146,-141,988,-371,-106,-185
445,-155,-148,963,-389,-118,-168
446,-149,-147,951,-351,-123,-152
447,-140,-140,960,-303,-90,-134
448,-150,-134,973,-271,-12,-97
449,-143,-151,955,-219,44,-68
450,-124,-172,964,-182,60,-74
451,-126,-171,966,-158,72,-97
452,-110,-181,965,-103,103,-113
453,-117,-166,978,-45,134,-103
454,-116,-168,980,16,201,-68
455,-112,-167,984,84,273,-17
456,-117,-148,970,213,371,47
457,-121,-177,1002,342,419,141
458,-146,-167,1027,402,363,163
459,-182,-183,1048,500,318,147
460,-187,-178,1057,514,293,116
461,-199,-182,1066,442,283,43
462,-213,-167,1087,371,285,-29
463,-212,-159,1075,268,265,-101
464,-201,-160,1051,170,207,-179
465,-200,-140,1062,76,142,-232
466,-203,-121,1048,61,66,-236
467,-193,-105,1050,94,9,-207
468,-181,-114,1028,139,-45,-175
469,-171,-112,1009,141,-73,-197
470,-153,-109,1010,70,-38,-222
471,-134,-102,990,-37,23,-242
472,-121,-98,968,-92,78,-228
473,-119,-108,971,-82,125,-179
474,-119,-117,982,-29,142,-130
475,-130,-116,989,72,128,-56
476,-139,-125,978,168,74,14
477,-163,-144,991,240,39,57
478,-162,-148,997,252,43,69
479,-179,-146,1009,199,87,55
480,-177,-160,1031,139,117,43
481,-184,-160,1048,72,107,30
482,-203,-173,1039,45,68,14
483,-217,-177,1056,49,35,2
484,-225,-172,1066,26,-2,-29
485,-239,-169,1071,-37,-57,-70
486,-236,-160,1060,-113,-96,-134
487,-219,-142,1065,-166,-137,-152
488,-198,-136,1040,-162,-211,-130
489,-184,-134,1016,-170,-278,-119
490,-180,-115,1004,-172,-270,-101
491,-155,-109,997,-156,-237,-78
492,-152,-112,974,-133,-225,-37
493,-154,-115,972,-113,-215,-3
494,-142,-114,966,-113,-163,20
495,-132,-121,962,-127,-84,38
496,-134,-111,952,-123,-6,69
497,-139,-115,951,-92,60,116
498,-156,-118,975,-41,97,149
499,-164,-125,1000,20,95,168
500,-170,-125,992,68,50,178
501,-183,-128,1001,106,31,196
502,-168,-139,993,141,29,204
503,-172,-149,981,121,27,176
504,-162,-137,981,76,60,139
505,-162,-149,988,55,119,112
506,-159,-135,990,26,144,108
507,-153,-136,985,16,160,92
508,-158,-126,998,27,183,73
509,-155,-108,1023,100,181,98
510,-155,-110,997,193,119,163
511,-163,-121,988,221,64,196
512,-162,-137,1007,197,80,194
513,-167,-116,1020,154,128,184
514,-150,-123,1023,109,130,194
515,-158,-118,1001,108,123,196
516,-167,-143,987,92,119,194
517,-175,-129,993,96,158,174
518,-183,-131,987,106,187,141
519,-186,-119,990,102,201,94
520,-187,-116,994,78,222,73
521,-182,-102,1030,92,210,86
522,-204,-108,1007,164,99,94
523,-203,-116,1026,166,44,127
524,-200,-114,1034,152,43,133
525,-204,-105,1031,111,41,122
526,-205,-107,1013,72,17,92
527,-210,-114,1016,26,21,63
528,-215,-110,1010,-21,50,30
529,-198,-112,1010,-35,66,-11
530,-183,-108,997,-47,46,-52
531,-165,-119,991,-74,19,-86
532,-160,-105,983,-76,5,-84
533,-139,-107,964,-12,2,-45
534,-141,-108,955,53,37,2
535,-119,-111,978,96,70,73
536,-142,-109,993,125,140,67
537,-154,-111,987,74,154,55
538,-155,-119,992,65,158,88
539,-169,-132,1003,63,127,84
540,-173,-125,998,72,95,51
541,-176,-109,1018,88,93,34
542,-169,-102,990,108,60,41
543,-172,-93,977,125,33,59
544,-162,-112,985,111,54,63
545,-169,-113,988,72,121,73
546,-156,-116,982,61,201,88
547,-171,-118,980,53,271,94
548,-190,-116,993,68,306,118
549,-200,-114,993,108,314,143
550,-211,-105,1007,162,275,178
551,-215,-119,1025,213,191,237
552,-241,-130,1014,221,91,223
553,-228,-120,1011,182,-2,184
554,-224,-121,995,10,-82,137
555,-218,-108,993,-137,-131,96
556,-166,-133,931,-312,-211,57
557,-165,-118,920,-170,-100,73
558,-172,-110,940,-55,17,94
559,-185,-118,939,119,80,174
560,-184,-127,971,313,76,198
561,-201,-128,990,387,54,207
562,-203,-146,986,365,43,174
563,-212,-132,1016,270,70,127
564,-213,-140,1014,186,130,67
565,-215,-146,1027,151,164,28
566,-215,-138,1037,162,175,-13
567,-219,-127,1048,197,144,-33
568,-220,-131,1049,272,78,-41
569,-230,-129,1059,322,37,-58
570,-234,-123,1055,320,13,-84
571,-237,-118,1053,277,21,-113
572,-228,-112,1049,229,35,-142
573,-235,-107,1062,184,44,-164
574,-242,-98,1058,145,21,-162
575,-237,-87,1048,145,-34,-166
576,-237,-83,1045,188,-79,-170
577,-228,-83,1042,205,-86,-173
578,-215,-86,1018,158,-51,-185
579,-216,-73,1032,88,-6,-224
580,-225,-70,1017,35,-6,-244
581,-215,-70,1030,33,-26,-255
582,-205,-63,1014,57,-81,-252
583,-208,-56,1011,76,-125,-244
584,-200,-41,1013,86,-131,-209
585,-198,-41,1013,108,-139,-170
586,-182,-33,1017,123,-161,-146
587,-183,-34,1002,102,-182,-117
588,-192,-45,1001,61,-166,-109
589,-183,-41,1006,14,-133,-107
590,-185,-41,993,-58,-100,-115
591,-188,-45,981,-103,-59,-107
592,-175,-41,1006,-113,-24,-101
593,-174,-45,983,-51,-32,-68
594,-170,-45,993,4,-55,-27
595,-169,-60,992,57,-77,8
596,-173,-57,976,104,-102,30
597,-178,-73,999,88,-100,59
598,-169,-86,974,65,-69,61
599,-174,-93,964,57,-36,30
600,-173,-93,988,49,2,12
601,-168,-95,972,47,17,8
602,-192,-100,966,82,2,0
603,-176,-108,974,133,-16,-7
604,-169,-102,961,170,-2,0
605,-187,-112,974,151,27,-23
606,-193,-92,983,131,89,-54
607,-206,-94,998,104,146,-72
608,-207,-90,983,108,169,-70
609,-213,-82,995,117,154,-62
610,-228,-75,1014,158,138,-41
611,-225,-85,1014,190,127,-31
612,-233,-84,1001,168,125,-37
613,-221,-60,1020,158,127,-48
614,-222,-58,1006,123,123,-66
615,-215,-62,1027,94,138,-52
616,-213,-54,1029,94,136,-31
617,-210,-61,1034,104,105,-39
618,-201,-65,1029,78,68,-89
619,-185,-44,1010,-10,60,-144
620,-206,-39,1007,-78,78,-171
621,-196,-33,1011,-113,109,-173
622,-188,-27,1018,-121,105,-156
623,-189,-16,991,-103,91,-138
624,-174,-10,974,-141,97,-109
625,-173,-28,993,-178,140,-68
626,-175,-33,990,-183,169,-54
627,-187,-30,991,-201,189,-35
628,-189,-51,1014,-129,168,32
629,-195,-63,1016,-17,89,90
630,-207,-81,1014,78,23,125
631,-215,-79,1029,117,15,122
632,-205,-75,1029,68,46,94
633,-192,-85,1029,22,85,65
634,-188,-89,1034,-12,121,41
635,-184,-98,1057,-21,127,24
636,-169,-93,1053,-16,119,2
637,-180,-104,1065,63,123,-3
638,-161,-108,1108,197,132,-13
639,-168,-104,1130,326,111,-43
640,-175,-78,1174,430,97,-91
641,-180,-50,1199,467,125,-142
642,-169,-4,1240,440,203,-187
643,-169,11,1260,276,177,-201
644,-160,21,1274,180,128,-207
645,-159,21,1252,102,72,-224
646,-146,25,1241,96,-20,-199
647,-133,27,1244,205,-137,-125
648,-126,35,1240,455,-248,-11
649,-135,67,1286,809,-370,159
650,-153,102,1368,1205,-448,334
651,-166,122,1451,1522,-479,516
652,-189,148,1535,1699,-545,672
653,-184,155,1631,1734,-631,747
654,-200,142,1681,1594,-799,739
655,-189,162,1702,1352,-940,672
656,-186,174,1707,1070,-1004,606
657,-165,205,1715,793,-1051,573
658,-152,246,1715,580,-1110,602
659,-143,268,1712,539,-1188,762
660,-142,287,1729,651,-1282,1051
661,-154,282,1736,764,-1405,1372
662,-136,311,1730,852,-1588,1674
663,-128,307,1713,856,-1803,1977
664,-111,295,1664,811,-1983,2266
665,-92,245,1642,699,-2114,2500
666,-124,167,1621,531,-2252,2627
667,-162,109,1599,287,-2403,2639
668,-248,56,1565,-37,-2571,2608
669,-300,-58,1509,-246,-2737,2622
670,-317,-168,1452,-410,-2907,2618
671,-315,-214,1389,-537,-3045,2467
672,-332,-212,1342,-568,-3137,2227
673,-342,-186,1271,-574,-3227,2004
674,-348,-169,1290,-619,-3260,1856
675,-342,-188,1245,-871,-3325,1766
676,-338,-218,1143,-1254,-3430,1629
677,-342,-235,1015,-1674,-3575,1387
678,-361,-204,895,-2074,-3657,1096
679,-359,-149,811,-2205,-3717,860
680,-349,-142,709,-2121,-3915,858
681,-341,-170,578,-1945,-4264,969
682,-321,-195,453,-1771,-4545,1036
683,-307,-231,320,-1701,-4672,940
684,-295,-256,170,-1820,-4602,743
685,-268,-254,48,-2014,-4303,455
686,-220,-186,-40,-2260,-3764,200
687,-151,-180,-76,-2351,-3176,106
688,-82,-161,-117,-2205,-2666,94
689,-11,-154,-113,-1832,-2211,145
690,31,-153,-115,-1336,-1883,153
691,76,-151,-99,-752,-1692,151
692,97,-122,-91,-213,-1526,118
693,116,-106,-46,178,-1317,63
694,122,-98,-50,352,-1079,-45
695,132,-94,-44,328,-825,-207
696,134,-96,-40,190,-586,-361
697,164,-94,-34,-2,-377,-564
698,179,-47,-38,-51,-178,-787
699,219,-3,-25,53,31,-912
700,245,31,-3,250,226,-931
701,232,63,17,500,394,-892
702,230,77,23,705,601,-820
703,214,84,50,793,882,-683
704,212,40,70,822,1156,-556
705,200,10,89,762,1406,-476
706,170,-14,115,760,1652,-470
707,136,-31,150,848,1894,-543
708,97,-18,207,979,2109,-691
709,106,19,259,1082,2294,-847
710,108,62,297,990,2457,-945
711,95,80,313,725,2609,-921
712,135,70,371,512,2826,-765
713,127,91,383,506,3056,-545
714,110,83,454,766,3212,-295
715,95,66,496,1149,3293,-95
716,58,24,561,1352,3326,-25
717,-7,-5,588,1332,3279,-52
718,-10,-24,658,1186,3345,-93
719,-11,-45,733,1031,3509,-175
720,-15,-1,818,988,3623,-267
721,-23,49,902,1149,3656,-248
722,-20,62,935,1201,3539,-185
723,-45,110,949,1108,3568,-97
724,-78,62,959,983,3800,36
725,-113,-4,984,729,4148,135
726,-124,-111,1025,397,4486,104
727,-214,-145,1110,156,4753,-181
728,-259,-61,1293,160,4949,-496
729,-266,9,1466,418,4925,-742
730,-280,77,1590,416,4671,-839
731,-285,113,1645,102,4525,-873
732,-268,93,1712,-420,4529,-832
733,-276,124,1823,-703,4689,-808
734,-284,136,1947,-631,4728,-736
735,-343,144,2048,-445,4412,-603
736,-461,147,2048,-269,3845,-425
737,-545,122,2048,-94,3232,-257
738,-626,124,2048,78,2634,-257
739,-652,159,2048,129,2029,-337
740,-632,204,2048,14,1451,-486
741,-588,228,2048,-254,841,-707
742,-558,270,2048,-609,236,-964
743,-513,313,2048,-879,-258,-1222
744,-450,376,1956,-1025,-670,-1466
745,-384,477,1858,-1119,-995,-1539
746,-334,553,1760,-1232,-1237,-1433
747,-273,587,1655,-1326,-1436,-1220
748,-230,611,1521,-1299,-1610,-978
749,-200,607,1438,-1162,-1823,-707
750,-189,603,1336,-994,-2065,-433
751,-190,578,1256,-851,-2260,-158
752,-190,552,1162,-787,-2426,36
753,-189,537,1101,-803,-2469,139
754,-183,568,1038,-848,-2389,344
755,-148,567,980,-963,-2227,696
756,-117,525,904,-945,-2067,1108
757,-70,505,848,-787,-1936,1506
758,-77,482,821,-562,-1872,1860
759,-70,443,815,-334,-1784,2229
760,-61,407,797,-183,-1655,2547
761,-55,376,793,-240,-1528,2780
762,-44,367,759,-410,-1364,2936
763,-43,368,727,-453,-1135,3123
764,-34,363,711,-281,-872,3422
765,-50,330,731,72,-676,3813
766,-100,269,748,520,-516,4256
767,-170,202,786,1026,-311,4747
768,-236,117,862,1410,-40,5223
769,-305,17,961,1609,189,5538
770,-373,-68,1065,1529,250,5657
771,-395,-160,1104,1156,199,5672
772,-440,-265,1112,641,72,5573
773,-465,-346,1032,205,-69,5448
774,-480,-435,987,-57,-55,5358
775,-474,-500,990,-58,66,5301
776,-458,-564,980,31,205,5127
777,-424,-627,970,100,334,4946
778,-416,-675,936,39,484,4793
779,-456,-726,917,-80,732,4678
780,-483,-810,955,-82,953,4559
781,-485,-857,1020,31,988,4284
782,-515,-907,1036,143,843,3852
783,-546,-950,1040,188,628,3407
784,-537,-983,1030,61,460,2961
785,-528,-1019,994,-191,404,2477
786,-519,-1040,955,-455,421,1995
787,-482,-1063,915,-625,460,1473
788,-467,-1058,864,-652,492,887
789,-433,-1017,858,-537,574,307
790,-407,-962,848,-355,712,-244
791,-375,-903,863,-203,861,-757
792,-377,-830,871,-137,962,-1226
793,-374,-781,924,-107,1015,-1644
794,-373,-713,939,-70,984,-2029
795,-391,-649,979,-23,900,-2378
796,-403,-580,991,10,845,-2586
797,-416,-540,1008,94,818,-2681
798,-431,-507,1060,227,763,-2798
799,-432,-476,1078,303,640,-3015
800,-442,-421,1094,315,531,-3322
801,-446,-359,1099,215,500,-3627
802,-416,-297,1139,57,529,-3943
803,-398,-234,1138,-121,517,-4187
804,-398,-193,1144,-277,462,-4316
805,-402,-182,1149,-291,347,-4369
806,-429,-157,1104,-180,123,-4373
807,-468,-134,1091,43,-59,-4392
808,-495,-111,1066,221,-122,-4462
809,-517,-90,1025,223,-90,-4531
810,-518,-80,1014,109,11,-4560
811,-507,-26,1000,-37,105,-4703
812,-491,66,1002,-105,207,-4931
813,-460,175,1017,-101,334,-5033
814,-407,264,1037,-76,451,-4988
815,-385,334,1042,-55,484,-4832
816,-374,350,1019,4,421,-4584
817,-361,390,996,65,257,-4380
818,-371,446,968,225,168,-4207
819,-351,490,970,305,175,-3970
820,-307,515,971,348,240,-3718
821,-287,537,952,422,277,-3470
822,-261,533,969,422,306,-3179
823,-254,510,950,336,332,-2888
824,-267,492,948,324,349,-2662
825,-240,512,992,453,382,-2515
826,-222,541,1023,502,392,-2369
827,-210,561,1054,401,398,-2156
828,-182,555,1059,264,359,-1857
829,-182,528,1040,158,242,-1505
830,-172,485,1014,117,107,-1183
831,-167,440,1000,135,21,-906
832,-156,397,1009,156,-8,-689
833,-140,371,1004,67,23,-548
834,-152,336,997,-92,62,-390
835,-147,294,989,-193,103,-164
836,-139,236,969,-226,105,77
837,-135,150,986,-201,84,256
838,-151,97,1003,-183,25,338
839,-167,44,987,-180,-51,370
840,-181,5,1001,-232,-96,354
841,-189,-32,972,-301,-104,309
842,-182,-73,984,-349,-73,288
843,-185,-93,952,-435,-24,291
844,-189,-111,954,-451,31,307
845,-183,-117,945,-359,62,309
846,-197,-128,962,-279,80,323
847,-193,-136,970,-211,91,319
848,-199,-157,971,-193,84,309
849,-202,-174,994,-189,50,284
850,-215,-199,1010,-205,33,235
851,-210,-202,1000,-252,15,141
852,-221,-220,983,-330,-14,28
853,-207,-221,993,-330,-49,-50
854,-219,-216,994,-287,-86,-105
855,-215,-204,981,-201,-129,-103
856,-214,-184,1004,-191,-120,6
857,-210,-196,1010,-197,-155,30
858,-207,-191,1027,-99,-149,71
859,-136,-235,926,-152,-141,26
860,-220,-222,1030,190,220,38
861,-182,-211,1037,-170,117,-99
862,-190,-199,1022,-291,76,-203
863,-193,-193,992,-297,54,-259
864,-207,-181,982,-166,33,-218
865,-214,-163,1009,24,13,-156
866,-209,-165,1010,178,17,-95
867,-222,-158,1033,262,-22,-37
868,-221,-173,1039,289,-112,-9
869,-220,-171,1045,234,-217,-41
870,-236,-160,996,137,-288,-111
871,-235,-157,992,76,-272,-134
872,-226,-141,989,90,-204,-119
873,-222,-144,996,96,-163,-105
874,-201,-143,985,92,-151,-105
875,-196,-145,996,74,-161,-101
876,-200,-145,972,68,-133,-101
877,-179,-148,956,94,-88,-91
878,-181,-135,964,145,-90,-86
879,-183,-143,954,201,-123,-82
880,-194,-130,973,192,-125,-72
881,-207,-142,930,211,-51,-35
882,-185,-153,969,375,179,2
883,-185,-161,1027,301,201,18
884,-214,-143,1030,193,113,-43
885,-229,-122,1026,133,82,-128
886,-208,-111,1001,31,54,-187
887,-197,-96,996,18,43,-171
888,-188,-103,998,41,46,-154
889,-180,-107,999,76,91,-136
890,-185,-99,1013,108,136,-91
891,-189,-117,1018,160,148,-33
892,-201,-122,1013,238,113,-3
893,-226,-131,1020,291,37,14
894,-233,-140,1013,293,-34,-3
895,-230,-148,987,217,-55,-76
896,-230,-143,1014,121,-43,-154
897,-213,-145,993,96,-45,-187
898,-210,-151,963,104,-86,-183
899,-215,-146,951,145,-81,-164
900,-207,-149,957,190,-30,-140
901,-212,-150,979,246,25,-103
902,-220,-138,968,287,64,-74
903,-219,-146,972,309,105,-60
904,-222,-164,996,317,119,-58
905,-213,-169,1009,283,103,-109
906,-223,-159,1016,195,101,-181
907,-217,-153,990,98,140,-242
908,-202,-158,996,59,177,-267
909,-201,-147,1005,76,179,-261
910,-211,-137,1023,139,166,-220
911,-222,-127,993,221,154,-173
912,-236,-106,1034,283,127,-142
913,-221,-107,1065,324,91,-109
914,-222,-93,1056,289,41,-128
915,-209,-76,1048,178,-18,-158
916,-210,-70,1015,57,-55,-191
917,-205,-40,1011,-6,-61,-191
918,-194,-40,998,4,-43,-138
919,-181,-43,990,55,-36,-78
920,-183,-46,972,65,-14,-48
921,-178,-53,965,24,33,-46
922,-165,-52,984,-62,95,-43
923,-168,-66,967,-164,158,-68
924,-195,-65,979,-180,191,-72
925,-215,-51,1012,-84,195,-29
926,-228,-71,1016,47,166,57
927,-254,-82,1033,180,99,122
928,-279,-90,1044,246,7,135
929,-273,-97,1057,201,-28,106
930,-245,-127,1040,65,3,77
931,-238,-140,1037,24,-4,-29
932,-230,-136,1035,-58,-51,-86
933,-236,-137,1029,-53,-45,-105
934,-233,-131,992,-57,-49,-132
935,-236,-105,1016,-14,-81,-158
936,-238,-95,1010,59,-100,-125
937,-219,-103,1022,127,-133,-76
938,-215,-114,1004,139,-151,-60
939,-206,-103,998,96,-133,-72
940,-195,-108,986,12,-100,-97
941,-189,-112,1007,-55,-63,-115
942,-200,-114,1001,-78,-77,-107
943,-195,-107,1003,-35,-86,-93
944,-200,-114,992,45,-84,-50
945,-197,-106,967,86,-81,-25
946,-176,-109,1005,68,-51,-33
947,-205,-114,995,10,-59,-54
948,-203,-24,952,-107,-53,-50
949,-190,-149,1042,-537,111,96
950,-185,-162,1029,-381,7,-27
951,-209,-99,1001,-264,-245,-76
952,-209,-118,969,-266,-297,-142
953,-218,-123,972,-199,-245,-117
954,-213,-118,975,-41,-202,-70
955,-212,-123,978,31,-127,-66
956,-218,-116,991,61,-71,-84
957,-216,-121,993,49,-53,-95
958,-195,-110,1003,10,-40,-99
959,-196,-112,991,-25,-53,-91
960,-179,-105,1000,-39,-53,-101
961,-187,-100,984,-37,-43,-93
962,-180,-101,979,-17,-24,-66
963,-168,-107,977,-10,-6,-21
964,-192,-123,970,-25,29,-17
965,-197,-134,996,-43,74,-25
966,-192,-136,1001,-86,50,-54
967,-182,-128,1022,-119,15,-95
968,-183,-112,1003,-131,-12,-76
969,-183,-109,987,-99,-43,-25
970,-189,-110,968,-58,-61,20
971,-186,-117,977,-35,-53,47
972,-174,-123,987,-47,-10,63
973,-172,-121,983,-98,46,36
974,-172,-125,992,-131,87,-2
975,-177,-114,984,-131,76,-31
976,-183,-112,985,-119,46,-21
977,-176,-120,1006,-98,15,10
978,-183,-118,1001,-70,-24,41
979,-181,-118,1021,-53,-77,69
980,-193,-123,1020,-72,-184,90
981,-201,-129,993,-113,-258,100
982,-199,-123,988,-174,-241,88
983,-206,-112,987,-238,-184,59
984,-207,-121,990,-308,-125,30
985,-207,-89,978,-346,-90,26
986,-190,-133,994,-408,-61,61
987,-216,-134,988,-338,-30,120
988,-181,-133,993,-240,-38,55
989,-186,-126,984,-185,-82,36
990,-189,-113,979,-162,-123,26
991,-194,-90,964,-105,-102,80
992,-168,-119,970,-103,-45,213
993,-179,-117,980,12,27,207
994,-173,-121,958,35,89,213
995,-176,-119,967,37,156,202
996,-187,-118,967,47,216,207
997,-185,-140,978,70,244,219
998,-197,-136,993,139,226,180
999,-210,-136,1007,145,193,147
1000,-205,-146,1002,141,169,114
1001,-210,-136,1002,104,158,82
1002,-213,-131,1011,61,179,63
1003,-200,-123,1008,65,197,71
1004,-215,-129,985,98,197,102
1005,-219,-132,996,125,201,127
1006,-230,-132,1005,133,210,125
1007,-234,-119,1001,119,195,114
1008,-238,-132,1000,88,173,106
1009,-245,-137,996,63,130,88
1010,-232,-136,993,35,103,38
1011,-230,-132,970,26,89,-19
1012,-230,-131,968,22,78,-50
1013,-223,-134,985,41,56,-68
1014,-209,-128,984,41,29,-70
1015,-200,-136,996,41,27,-48
1016,-204,-148,988,45,52,-39
1017,-214,-139,995,51,99,-48
1018,-191,-130,1007,45,134,-43
1019,-194,-128,1039,35,107,-21
1020,-215,-139,1008,63,27,-5
1021,-212,-142,1013,76,-4,2
1022,-207,-145,988,31,25,-21
1023,-204,-139,1019,-23,58,-64
1024,-211,-140,1007,-60,84,-97
1025,-199,-134,1013,-37,60,-101
1026,-193,-137,1001,8,7,-103
1027,-198,-130,1014,61,-12,-101
1028,-207,-118,1004,96,2,-99
1029,-202,-100,1014,108,27,-93
1030,-207,-99,1018,121,43,-48
1031,-210,-91,1033,162,29,-5
1032,-215,-99,1022,166,41,26
1033,-208,-97,1036,139,60,28
1034,-204,-103,1019,92,84,10
1035,-198,-104,1046,55,97,-17
1036,-199,-95,1029,41,54,-29
1037,-199,-85,1003,59,-4,-9
1038,-187,-90,990,65,-36,24
1039,-201,-89,980,49,-10,39
1040,-201,-102,941,29,17,49
1041,-192,-100,923,88,43,69
1042,-181,-115,906,188,17,96
1043,-179,-131,874,326,-51,92
1044,-174,-132,831,473,-59,20
1045,-160,-111,817,611,41,-109
1046,-136,-62,837,690,242,-230
1047,-106,-37,837,742,457,-312
1048,-88,-17,860,770,613,-361
1049,-71,-13,850,811,748,-349
1050,-85,-22,848,881,916,-326
1051,-114,-41,865,988,1187,-273
1052,-147,-57,923,1229,1482,-175
1053,-209,-54,1005,1471,1785,-138
1054,-254,-43,1159,1711,2095,-115
1055,-336,11,1287,1955,2296,-168
1056,-362,27,1424,2068,2480,-222
1057,-410,43,1528,2049,2613,-355
1058,-444,64,1625,1768,2759,-543
1059,-470,62,1686,1268,3021,-769
1060,-502,71,1717,715,3314,-994
1061,-549,72,1735,242,3638,-1234
1062,-606,88,1774,-146,3962,-1414
1063,-686,89,1806,-332,4287,-1377
1064,-734,96,1869,-349,4492,-1261
1065,-804,119,1921,-285,4521,-1033
1066,-882,110,2001,18,4287,-785
1067,-936,125,2048,473,3660,-439
1068,-1006,168,2048,910,2863,-54
1069,-1038,185,2048,1369,1970,426
1070,-1066,196,2048,1783,990,924
1071,-1116,192,2048,2037,-110,1327
1072,-1159,183,2048,2100,-1239,1696
1073,-1236,96,2048,1930,-2469,1965
1074,-1262,10,2048,1561,-3854,2036
1075,-1256,-48,1957,992,-5243,1942
1076,-1232,-83,1755,293,-6434,1754
1077,-1168,-93,1514,-324,-7346,1543
1078,-1120,-100,1303,-900,-8002,1362
1079,-1042,-129,1128,-1310,-8510,1163
1080,-995,-140,984,-1695,-9024,920
1081,-905,-138,847,-2060,-9536,676
1082,-823,-118,707,-2332,-10043,475
1083,-734,-100,540,-2498,-10682,319
1084,-661,-59,365,-2605,-11364,205
1085,-586,-55,144,-2590,-11846,149
1086,-538,-59,-34,-2529,-12057,151
1087,-492,-71,-190,-2480,-12034,202
1088,-416,-113,-361,-2426,-11704,252
1089,-342,-140,-457,-2322,-11059,241
1090,-285,-156,-534,-2203,-10200,135
1091,-207,-162,-580,-2045,-9166,14
1092,-130,-173,-600,-1734,-8176,-121
1093,-80,-137,-580,-1373,-7399,-281
1094,-37,-121,-534,-969,-6745,-390
1095,15,-96,-557,-687,-6241,-418
1096,59,-96,-583,-326,-5612,-459
1097,75,-76,-583,86,-4881,-546
1098,99,-39,-603,336,-3991,-603
1099,150,-4,-590,391,-2926,-628
1100,193,30,-573,301,-1836,-621
1101,240,53,-531,186,-854,-564
1102,304,63,-477,205,33,-459
1103,349,58,-428,379,740,-394
1104,354,75,-380,570,1226,-380
1105,342,76,-341,734,1679,-326
1106,310,98,-301,850,2244,-212
1107,276,97,-209,992,2867,-86
1108,247,97,-137,1254,3445,59
1109,251,90,-28,1582,3875,237
1110,262,52,69,2026,4076,461
1111,257,29,118,2223,3931,620
1112,241,-35,116,2123,3644,674
1113,213,-74,95,1858,3466,543
1114,198,-49,57,1440,3654,282
1115,191,-32,56,1166,4203,178
1116,129,62,80,1318,4847,325
1117,120,89,209,1752,5488,655
1118,97,67,370,2361,5955,1069
1119,20,31,507,2744,6068,1288
1120,-61,-1,691,2813,6164,1284
1121,-121,-52,844,2488,6294,1149
1122,-189,-56,1009,1830,6416,842
1123,-242,-26,1096,1297,6582,454
1124,-256,-1,1174,830,6699,229
1125,-272,-16,1225,514,6794,94
1126,-282,2,1362,272,6839,4
1127,-314,83,1545,358,7007,-107
1128,-388,156,1795,877,7043,-115
1129,-450,238,2027,1445,6703,-66
1130,-481,343,2048,1721,6156,-209
1131,-501,452,2048,1615,5431,-457
1132,-507,566,2048,1026,4625,-638
1133,-471,651,2048,266,3968,-740
1134,-454,718,2048,-492,3386,-773
1135,-406,783,2048,-1193,2886,-699
1136,-385,772,2048,-1783,2377,-496
1137,-373,765,2048,-2113,1830,-269
1138,-366,730,2048,-2182,1181,-64
1139,-346,720,2048,-2211,519,80
1140,-342,694,1969,-2314,17,221
1141,-310,687,1818,-2455,-315,411
1142,-294,664,1696,-2642,-614,666
1143,-281,617,1569,-2762,-893,965
1144,-256,583,1436,-2713,-1120,1289
1145,-243,537,1351,-2512,-1288,1700
1146,-231,479,1263,-2187,-1489,2127
1147,-225,413,1182,-1818,-1715,2452
1148,-245,356,1098,-1453,-1934,2672
1149,-226,323,1026,-1182,-2088,2858
1150,-229,288,973,-898,-2190,3024
1151,-207,222,918,-619,-2297,3233
1152,-190,157,890,-410,-2372,3358
1153,-176,99,854,-234,-2350,3354
1154,-181,25,830,-322,-2225,3364
1155,-159,-20,849,-346,-1944,3233
1156,-129,-52,834,-359,-1633,3137
1157,-115,-70,835,-480,-1416,3098
1158,-109,-103,817,-611,-1272,3125
1159,-74,-135,772,-691,-1092,3180
1160,-68,-173,768,-697,-883,3276
1161,-48,-210,718,-631,-672,3368
1162,-50,-258,730,-496,-497,3477
1163,-74,-331,772,-226,-370,3559
1164,-94,-390,776,70,-252,3622
1165,-129,-464,810,291,-96,3647
1166,-180,-544,853,494,78,3645
1167,-223,-623,921,590,285,3551
1168,-250,-687,975,559,502,3340
1169,-290,-766,1036,451,609,2995
1170,-338,-826,1081,272,582,2600
1171,-355,-847,1095,24,515,2207
1172,-343,-872,1078,-205,435,1811
1173,-297,-888,1026,-396,337,1463
1174,-261,-885,979,-510,287,1106
1175,-228,-872,945,-586,296,721
1176,-196,-836,918,-590,363,395
1177,-167,-796,900,-496,460,127
1178,-143,-777,887,-387,546,-123
1179,-141,-755,891,-283,625,-447
1180,-133,-713,896,-224,697,-820
1181,-149,-666,879,-223,779,-1144
1182,-148,-617,921,-226,896,-1410
1183,-166,-565,945,-219,960,-1640
1184,-177,-526,952,-185,980,-1806
1185,-183,-508,968,-146,974,-1906
1186,-182,-495,962,-78,914,-2039
1187,-212,-481,958,20,830,-2224
1188,-225,-464,962,109,789,-2420
1189,-218,-415,977,141,820,-2660
1190,-221,-366,1011,145,892,-2884
1191,-217,-336,1037,80,960,-3023
1192,-223,-311,1029,-23,972,-3121
1193,-226,-311,1011,-129,910,-3201
1194,-235,-311,1011,-144,853,-3279
1195,-241,-298,1032,-41,779,-3420
1196,-258,-276,1055,86,720,-3576
1197,-264,-257,1058,127,650,-3724
1198,-271,-246,1072,24,587,-3855
1199,-286,-237,1056,-191,568,-3947
1200,-288,-192,1042,-355,613,-4072
1201,-279,-115,1054,-426,720,-4232
1202,-270,-30,1082,-363,869,-4353
1203,-267,45,1125,-195,982,-4367
1204,-269,108,1141,-62,972,-4230
1205,-269,138,1140,4,892,-3925
1206,-271,145,1153,-37,710,-3611
1207,-274,171,1136,-129,552,-3445
1208,-282,195,1114,-215,505,-3312
1209,-267,230,1134,-336,502,-3226
1210,-242,263,1113,-451,531,-3082
1211,-254,263,1094,-543,490,-2904
1212,-246,252,1067,-598,421,-2687
1213,-252,207,1094,-592,355,-2461
1214,-245,253,1069,-441,291,-2332
1215,-249,234,1036,-488,169,-2076
1216,-244,221,1052,-363,127,-1836
1217,-241,203,1026,-187,89,-1566
1218,-234,207,1049,-80,44,-1427
1219,-223,210,1072,2,17,-1322
1220,-220,228,1087,0,2,-1177
1221,-199,208,1076,-96,-38,-998
1222,-175,182,1075,-187,-106,-830
1223,-172,144,1020,-254,-153,-673
1224,-157,136,1010,-297,-137,-500
1225,-148,87,999,-266,-82,-306
1226,-145,27,964,-228,-55,-130
1227,-155,-15,951,-223,-6,20
1228,-168,-56,962,-187,35,122
1229,-159,-81,963,-133,85,174
1230,-169,-109,964,-88,99,217
1231,-179,-133,962,-21,107,260
1232,-162,-142,961,-4,127,307
1233,-164,-164,957,-47,164,350
1234,-160,-180,952,-80,183,403
1235,-163,-214,936,-101,187,446
1236,-169,-224,925,-90,187,432
1237,-167,-236,928,-51,218,352
1238,-159,-233,925,10,263,248
1239,-179,-217,948,49,273,190
1240,-177,-238,961,37,289,172
1241,-172,-228,984,29,296,168
1242,-175,-221,984,20,267,151
1243,-174,-238,972,12,224,155
1244,-180,-235,938,6,187,170
1245,-172,-247,935,24,171,159
1246,-189,-249,950,51,209,123
1247,-189,-244,952,49,279,71
1248,-170,-231,988,35,332,32
1249,-170,-218,989,33,353,6
1250,-173,-211,1003,68,341,0
1251,-165,-198,981,135,273,24
1252,-178,-177,976,176,199,94
1253,-176,-171,996,287,181,200
1254,-198,-184,990,420,175,303
1255,-195,-179,1020,426,164,366
1256,-196,-166,1010,311,140,342
1257,-188,-156,1025,152,144,284
1258,-188,-194,1052,-37,156,295
1259,-198,-177,1035,-123,195,256
1260,-185,-154,1025,-123,207,223
1261,-203,-173,1027,-162,154,252
1262,-203,-178,1029,-152,85,307
1263,-196,-188,997,-119,39,329
1264,-193,-197,994,8,115,330
1265,-197,-203,1011,86,181,301
1266,-190,-192,1024,31,158,272
1267,-195,-198,1035,49,134,291
1268,-201,-207,1024,70,52,293
1269,-206,-206,1030,109,-20,289
1270,-219,-216,1027,174,-34,293
1271,-230,-211,1011,186,-51,301
1272,-210,-226,1020,174,-73,280
1273,-230,-221,1017,117,-79,229
1274,-227,-218,1028,104,-98,170
1275,-214,-210,1016,53,-125,122
1276,-211,-206,1023,31,-141,118
1277,-221,-204,996,33,-161,123
1278,-203,-205,979,51,-157,122
1279,-208,-206,988,39,-129,100
1280,-200,-206,978,51,-118,82
1281,-190,-210,955,27,-112,69
1282,-187,-215,965,-2,-73,65
1283,-187,-201,974,20,-51,84
1284,-165,-206,958,92,-65,112
1285,-166,-192,944,139,-57,131
1286,-163,-203,938,151,-10,151
1287,-172,-207,959,158,21,180
1288,-177,-219,954,178,56,196
1289,-195,-221,960,164,76,186
1290,-197,-227,971,182,84,159
1291,-212,-233,990,199,76,106
1292,-228,-218,984,180,72,8
1293,-233,-205,1000,139,89,-91
1294,-232,-191,989,70,115,-148
1295,-229,-157,991,29,130,-160
1296,-210,-145,1006,31,125,-121
1297,-200,-139,996,98,43,-41
1298,-195,-137,983,152,-43,14
1299,-192,-155,975,170,-40,43
1300,-192,-160,978,121,2,41
1301,-184,-162,961,43,35,20
1302,-206,-172,972,16,80,8
1303,-212,-189,987,20,121,6
1304,-210,-184,974,31,127,-21
1305,-215,-182,1003,24,134,-48
1306,-223,-174,1011,10,140,-72
1307,-204,-172,1026,12,105,-66
1308,-215,-165,996,4,27,-52
1309,-207,-167,997,-8,3,-45
1310,-200,-169,981,-4,48,-29
1311,-187,-176,978,45,72,2
1312,-199,-170,973,88,60,32
1313,-209,-161,981,133,97,49
1314,-213,-166,996,176,169,59
1315,-222,-174,1033,188,199,55
1316,-225,-170,1022,158,154,39
1317,-228,-161,1025,108,103,6
1318,-222,-156,1017,78,89,-21
1319,-220,-151,1022,61,91,-13
1320,-210,-155,1019,20,44,-15
1321,-201,-140,1016,49,29,-7
1322,-201,-140,1009,63,23,41
1323,-203,-130,1008,133,9,90
1324,-209,-147,1014,182,-45,123
1325,-215,-161,1016,190,-61,137
1326,-219,-167,1030,176,-53,116
1327,-218,-162,1029,119,-59,84
1328,-223,-162,1010,51,-88,63
1329,-233,-169,1031,6,-123,34
1330,-230,-158,1014,-14,-166,-2
1331,-229,-149,975,-51,-198,-2
1332,-222,-152,981,-76,-202,16
1333,-209,-153,972,-66,-174,38
1334,-208,-169,968,-57,-163,43
1335,-205,-170,975,-51,-163,36
1336,-214,-177,970,-62,-127,16
1337,-210,-165,953,-57,-86,-2
1338,-208,-164,947,-21,-75,-13
1339,-203,-168,957,6,-53,-27
1340,-200,-176,975,16,-45,-52
1341,-196,-189,967,0,-45,-60
1342,-189,-176,966,-6,-26,-74
1343,-190,-177,961,-4,5,-74
1344,-193,-172,962,14,27,-66
1345,-193,-169,957,59,29,-52
1346,-187,-164,968,108,29,-43
1347,-194,-166,981,117,60,-41
1348,-197,-163,997,86,74,-60
1349,-202,-156,981,55,72,-74
1350,-210,-153,988,33,70,-72
1351,-207,-149,994,39,48,-70
1352,-206,-151,992,43,3,-46
1353,-199,-150,997,43,-10,-31
1354,-203,-156,991,39,0,-25
1355,-207,-153,1000,49,2,-5
1356,-201,-150,991,53,17,14
1357,-207,-156,1000,47,35,16
1358,-215,-157,1003,27,39,8
1359,-217,-157,1007,0,39,8
1360,-223,-159,1015,-21,33,16
1361,-224,-165,1022,-17,-2,8
1362,-233,-161,1014,-27,-28,-2
1363,-221,-157,1014,-35,-47,14
1364,-220,-156,992,-31,-81,22
1365,-212,-155,999,-19,-81,30
1366,-204,-156,994,-45,-49,22
1367,-196,-168,985,-70,-24,18
1368,-207,-176,977,-82,-10,2
1369,-209,-164,981,-66,11,4
1370,-205,-170,988,-16,3,14
1371,-206,-175,1001,43,-14,14
1372,-204,-156,1001,55,-34,2
1373,-201,-154,983,31,-41,-13
1374,-202,-160,995,0,-47,-13
1375,-196,-161,977,-2,-36,-25
1376,-208,-154,982,6,-8,-25
1377,-210,-167,997,29,5,-23
1378,-202,-161,1000,39,2,-33
1379,-203,-166,1010,41,-12,-41
1380,-209,-171,993,20,-34,-50
1381,-212,-161,986,-2,-30,-66
1382,-203,-164,981,-27,-32,-87
1383,-191,-165,987,-43,-26,-95
1384,-196,-164,988,-35,-10,-82
1385,-196,-154,994,18,2,-60
1386,-200,-156,998,61,-18,-35
1387,-201,-160,996,86,-28,-27
1388,-198,-165,1017,86,-4,-3
1389,-201,-164,997,70,-20,-7
1390,-201,-169,1006,43,-36,-39
1391,-204,-162,999,6,-14,-66
1392,-195,-164,968,-14,2,-74
1393,-196,-159,978,-27,-4,-72
1394,-206,-165,970,-27,2,-76
1395,-197,-151,967,16,27,-64
1396,-200,-155,978,59,39,-43
1397,-187,-171,984,106,21,-35
1398,-195,-171,980,84,-4,-46
1399,-199,-167,990,39,17,-78
1400,-205,-158,987,6,62,-84
1401,-196,-152,1000,18,62,-78
1402,-192,-157,978,33,35,-62
1403,-202,-158,986,67,19,-25
1404,-206,-155,980,152,13,16
1405,-194,-168,1002,149,-2,34
1406,-211,-176,1007,143,37,0
1407,-218,-174,1003,125,54,-54
1408,-207,-147,1000,65,31,-80
1409,-202,-150,990,49,33,-95
1410,-209,-134,1009,55,37,-84
1411,-194,-130,1022,109,13,-35
1412,-201,-134,1012,139,-22,4
1413,-210,-135,1013,149,-40,18
1414,-208,-156,1004,121,-22,10
1415,-210,-148,1004,78,5,-2
1416,-208,-138,1000,51,7,-13
1417,-203,-147,1005,43,9,-21
1418,-203,-134,996,55,2,-27
1419,-203,-126,1005,61,-24,-21
1420,-208,-131,990,65,-47,-11
1421,-202,-128,999,57,-59,14
1422,-198,-136,981,67,-79,39
1423,-199,-139,974,57,-82,39
1424,-199,-150,965,45,-53,24
1425,-196,-140,997,0,-24,10
1426,-199,-142,977,-19,2,2
1427,-200,-141,972,0,19,6
1428,-199,-152,978,16,17,22
1429,-206,-142,986,37,13,38
1430,-195,-145,974,45,21,39
1431,-197,-165,977,57,39,38
1432,-196,-162,964,55,58,36
1433,-206,-161,985,51,80,28
1434,-217,-167,1006,72,87,18
1435,-215,-168,1011,76,68,16
1436,-221,-167,1017,76,31,6
1437,-223,-174,1016,70,-12,-13
1438,-221,-167,1009,57,-28,-29
1439,-219,-169,1018,43,-43,-48
1440,-213,-160,1011,12,-32,-74
1441,-196,-148,1018,-14,-22,-95
1442,-200,-149,996,-27,-34,-97
1443,-188,-140,1000,-2,-51,-82
1444,-182,-140,998,37,-67,-62
1445,-196,-140,994,84,-63,-50
1446,-199,-136,990,74,-38,-41
1447,-197,-132,1011,63,-4,-31
1448,-190,-129,998,55,-8,-25
1449,-200,-136,991,53,-28,-33
1450,-196,-131,988,57,-30,-21
1451,-194,-138,979,61,-16,-15
1452,-200,-142,975,59,5,-17
1453,-197,-145,964,61,19,-21
1454,-196,-136,973,72,33,-9
1455,-187,-128,976,92,33,4
1456,-208,-131,990,102,33,24
1457,-196,-121,988,113,48,45
1458,-204,-140,997,117,44,61
1459,-204,-151,997,115,25,49
1460,-206,-152,1004,78,23,34
1461,-205,-145,1008,43,31,8
1462,-210,-138,1010,27,21,-5
1463,-201,-135,1003,12,9,-5
1464,-214,-137,1017,6,-8,-2
1465,-198,-132,990,26,-28,22
1466,-197,-133,1001,39,-41,38
1467,-197,-139,1000,27,-24,39
1468,-202,-139,976,8,5,22
1469,-199,-143,988,-23,43,12
1470,-203,-139,990,-45,64,-3
1471,-214,-135,1002,-45,60,-21
1472,-213,-139,996,-6,27,-13
1473,-203,-142,987,14,9,-11
1474,-201,-147,994,2,-2,-15
1475,-213,-138,1007,-23,-2,-29
1476,-206,-138,994,-51,5,-33
1477,-189,-129,976,-57,25,-17
1478,-199,-134,979,-23,15,2
1479,-196,-134,996,16,15,12
1480,-194,-129,984,29,31,18
1481,-194,-142,1002,37,37,10
1482,-203,-134,992,26,56,4
1483,-217,-134,998,0,78,-9
1484,-207,-132,1004,-2,74,-15
1485,-205,-133,1011,12,48,-25
1486,-202,-121,1004,10,21,-13
1487,-200,-132,1000,33,-12,4
1488,-200,-123,1014,39,-32,14
1489,-201,-135,991,12,-4,26
1490,-200,-129,997,-4,17,38
1491,-203,-147,1009,12,27,47
1492,-212,-146,1003,53,19,59
1493,-214,-156,1012,78,17,53
1494,-228,-160,1027,65,13,36
1495,-224,-151,1019,33,9,-2
1496,-227,-161,1021,6,-20,-29
1497,-218,-139,1006,-16,-41,-54
1498,-212,-133,1012,-27,-51,-58
1499,-200,-133,1008,-17,-55,-52
1500,-204,-126,992,14,-51,-35
1501,-204,-130,985,22,-41,-19
1502,-201,-132,985,12,-16,-11
1503,-196,-128,985,24,7,-9
1504,-195,-120,993,12,9,-9
1505,-207,-127,983,2,-16,-11
1506,-205,-138,967,-6,-22,-9
1507,-201,-125,981,-14,-14,-23
1508,-209,-118,963,-37,-4,-33
1509,-199,-118,967,-21,11,-7
1510,-200,-115,989,4,19,22
1511,-208,-120,996,26,21,49
1512,-200,-134,983,41,19,47
1513,-208,-140,998,18,19,45
1514,-213,-130,985,0,48,34
1515,-200,-139,967,-21,64,24
1516,-200,-139,1001,-14,70,24
1517,-225,-149,990,0,62,28
1518,-219,-158,981,-12,56,16
1519,-222,-158,990,-21,44,0
1520,-215,-165,989,-25,41,-19
1521,-209,-143,988,-17,48,-23
1522,-208,-142,997,-10,46,-25
1523,-210,-135,996,-23,39,-35
1524,-205,-147,983,-37,41,-50
1525,-215,-128,983,-51,54,-50
1526,-209,-138,996,-49,64,-52
1527,-210,-135,999,-39,60,-56
1528,-206,-132,1001,-17,50,-48
1529,-210,-132,983,-19,46,-48
1530,-205,-128,995,-14,35,-37
1531,-212,-128,998,-14,35,-17
1532,-205,-135,987,-19,39,-7
1533,-202,-131,1000,-16,41,-3
1534,-207,-134,988,-12,48,2
1535,-201,-130,994,-12,46,4
1536,-208,-135,997,-23,41,-2
1537,-207,-135,985,-31,41,-5
1538,-196,-130,995,-27,52,-7
1539,-216,-139,1010,-6,56,-2
1540,-210,-144,1000,26,58,14
1541,-226,-134,1006,45,39,16
1542,-220,-135,1016,43,15,16
1543,-223,-135,1028,12,13,2
1544,-218,-138,1006,-6,3,-9
1545,-219,-138,1009,-16,-20,-7
1546,-214,-139,998,-12,-32,4
1547,-215,-133,992,10,-26,14
1548,-213,-141,1001,16,-26,14
1549,-218,-127,999,2,-16,8
1550,-214,-126,1006,-6,-16,6
1551,-196,-126,994,-2,-14,10
1552,-204,-124,984,-6,-10,12
1553,-208,-136,988,0,7,26
1554,-207,-125,981,0,7,34
1555,-209,-141,988,-41,2,36
1556,-213,-137,983,-8,27,22
1557,-211,-135,989,10,5,28
1558,-215,-141,983,55,-6,49
1559,-216,-145,998,74,-6,43
1560,-212,-141,976,57,0,26
1561,-208,-144,975,33,17,12
1562,-207,-137,989,-10,33,-5
1563,-214,-131,991,-25,46,-15
1564,-202,-123,987,-21,48,-5
1565,-201,-129,981,-8,43,22
1566,-208,-128,968,20,25,34
1567,-207,-141,1004,22,43,34
1568,-212,-134,984,0,76,32
1569,-209,-125,1001,-29,85,20
1570,-227,-121,1011,-62,84,14
1571,-215,-118,1007,-99,70,12
1572,-214,-116,1002,-135,62,16
1573,-211,-122,990,-152,50,36
1574,-206,-133,980,-115,27,63
1575,-216,-155,958,-66,19,92
1576,-218,-153,957,-33,37,92
1577,-215,-160,965,-21,56,94
1578,-222,-153,977,-31,74,71
1579,-215,-153,965,-23,93,47
1580,-212,-161,968,-2,115,51
1581,-219,-145,981,41,127,41
1582,-216,-141,991,86,125,41
1583,-214,-144,987,102,140,32
1584,-225,-140,999,86,150,16
1585,-222,-128,993,80,158,10
1586,-222,-129,975,94,175,12
1587,-216,-135,994,111,185,34
1588,-218,-139,997,160,191,39
1589,-216,-146,988,193,203,45
1590,-219,-138,1011,178,220,55
1591,-221,-140,1016,256,230,53
1592,-226,-140,1003,324,226,67
1593,-227,-163,990,383,236,86
1594,-234,-177,1014,451,257,79
1595,-216,-154,1004,512,287,45
1596,-219,-186,1008,465,396,36
1597,-219,-173,1034,570,533,-23
1598,-219,-126,1100,750,617,-144
1599,-227,-92,1146,916,681,-158
1600,-228,-65,1201,1033,798,-130
1601,-225,-55,1259,1195,892,-99
1602,-221,-24,1348,1430,916,-99
1603,-255,27,1427,1713,929,-152
1604,-266,89,1537,2065,1117,-199
1605,-254,169,1686,2162,1205,-195
1606,-303,207,1817,2129,1123,-138
1607,-346,189,1934,1994,1050,-35
1608,-396,133,1980,1551,976,-54
1609,-441,116,1978,990,873,-207
1610,-478,70,1998,613,791,-347
1611,-491,66,2006,461,687,-480
1612,-508,83,2016,445,546,-623
1613,-532,84,2048,488,400,-664
1614,-543,103,2048,541,252,-560
1615,-564,90,2048,660,-20,-357
1616,-578,67,2048,736,-475,-107
1617,-585,19,2048,815,-975,163
1618,-586,-13,1984,951,-1536,409
1619,-582,-7,1942,1131,-2143,577
1620,-608,18,1882,1270,-2694,688
1621,-607,46,1842,1287,-3137,860
1622,-619,48,1766,1117,-3541,1129
1623,-615,-5,1635,891,-3934,1469
1624,-632,-56,1515,787,-4360,1745
1625,-617,-86,1377,740,-4903,2010
1626,-635,-93,1221,781,-5309,2164
1627,-628,-124,1094,803,-5592,2264
1628,-621,-144,953,637,-5788,2389
1629,-601,-165,844,373,-5957,2409
1630,-593,-116,715,102,-6122,2289
1631,-526,-98,616,-8,-6243,2168
1632,-486,-95,521,-119,-6393,2122
1633,-469,-88,388,-367,-6612,2030
1634,-413,-68,266,-648,-6770,1875
1635,-358,-65,136,-992,-6856,1692
1636,-301,-95,5,-1365,-6817,1473
1637,-259,-96,-94,-1726,-6694,1213
1638,-202,-105,-216,-2068,-6436,973
1639,-162,-123,-277,-2289,-6016,797
1640,-100,-116,-360,-2340,-5563,616
1641,-73,-119,-418,-2248,-5081,455
1642,-27,-96,-421,-1840,-4485,362
1643,15,-72,-405,-1396,-3907,372
1644,68,-59,-363,-844,-3448,434
1645,121,-42,-342,-224,-3206,549
1646,156,-69,-301,283,-3098,643
1647,192,-74,-316,613,-2971,631
1648,195,-82,-334,729,-2694,463
1649,202,-67,-340,662,-2264,211
1650,214,-52,-373,440,-1729,-97
1651,226,-18,-360,123,-1100,-416
1652,273,12,-332,-246,-457,-677
1653,315,6,-304,-594,107,-880
1654,324,10,-282,-808,546,-986
1655,314,-26,-272,-832,867,-982
1656,267,-57,-259,-598,1123,-904
1657,200,-80,-233,-182,1382,-851
1658,144,-109,-161,277,1615,-882
1659,89,-105,-96,670,1837,-1043
1660,59,-96,-28,854,2121,-1269
1661,89,-67,53,758,2476,-1439
1662,137,-56,135,395,2855,-1503
1663,147,10,178,20,3103,-1505
1664,156,47,203,-209,3285,-1332
1665,188,60,240,-228,3490,-986
1666,161,47,308,14,3689,-509
1667,186,-1,383,541,3837,-97
1668,158,-57,441,967,3978,174
1669,114,-104,483,1217,4111,235
1670,102,-104,535,1231,4257,147
1671,84,-82,611,1119,4531,75
1672,107,-42,692,934,4857,168
1673,129,62,850,924,5267,342
1674,92,176,1026,1481,5597,516
1675,58,230,1155,1983,5693,735
1676,-37,178,1222,2012,5761,954
1677,-152,56,1301,1414,5830,907
1678,-228,-27,1371,500,6097,629
1679,-256,32,1505,-178,6437,106
1680,-233,147,1673,-392,6621,-341
1681,-232,250,1871,-109,6494,-400
1682,-267,336,1987,213,5853,-392
1683,-370,338,1996,188,5054,-195
1684,-508,261,2029,18,4658,186
1685,-554,138,2048,-64,4554,373
1686,-578,124,2048,-58,4349,194
1687,-558,187,2048,2,3978,-156
1688,-550,249,2048,-86,3396,-462
1689,-516,321,2048,-387,2662,-693
1690,-522,343,2048,-826,1945,-804
1691,-489,333,2048,-1209,1445,-796
1692,-466,320,2048,-1465,1041,-836
1693,-427,347,1953,-1574,654,-972
1694,-394,359,1863,-1553,283,-1162
1695,-347,398,1746,-1459,-123,-1382
1696,-331,439,1639,-1314,-555,-1627
1697,-306,478,1546,-1148,-956,-1830
1698,-284,567,1472,-969,-1225,-1961
1699,-262,645,1416,-926,-1348,-1839
1700,-222,697,1368,-973,-1479,-1359
1701,-210,722,1255,-1017,-1581,-709
1702,-183,682,1169,-1037,-1618,-93
1703,-189,636,1111,-902,-1581,372
1704,-159,612,1074,-648,-1530,649
1705,-150,584,1024,-590,-1434,848
1706,-144,557,997,-642,-1329,985
1707,-143,530,970,-711,-1241,998
1708,-147,545,951,-756,-1198,1004
1709,-154,598,950,-662,-1147,1225
1710,-119,616,942,-533,-1157,1830
1711,-114,606,887,-424,-1200,2635
1712,-92,539,858,-271,-1247,3393
1713,-130,456,827,-109,-1239,3926
1714,-162,392,820,16,-1110,4200
1715,-205,342,837,70,-897,4397
1716,-241,275,839,45,-649,4618
1717,-273,209,868,4,-407,4782
1718,-299,163,906,6,-233,4858
1719,-346,100,916,16,-143,4897
1720,-374,19,931,121,-123,4928
1721,-394,-46,951,154,-127,4946
1722,-401,-121,942,82,-147,4959
1723,-382,-198,910,-57,-155,4948
1724,-385,-273,870,-303,-67,4922
1725,-384,-343,842,-463,48,4875
1726,-390,-414,851,-535,246,4852
1727,-405,-493,877,-463,437,4807
1728,-424,-569,912,-283,541,4666
1729,-443,-629,975,-78,529,4493
1730,-449,-703,994,-21,447,4200
1731,-463,-727,1007,-158,345,3872
1732,-483,-759,997,-348,273,3532
1733,-481,-786,996,-547,287,3233
1734,-483,-831,988,-738,367,2987
1735,-474,-867,984,-810,433,2723
1736,-460,-872,974,-832,476,2387
1737,-449,-878,963,-818,564,2069
1738,-415,-866,960,-738,666,1793
1739,-414,-848,968,-633,750,1522
1740,-387,-876,995,-512,744,1231
1741,-371,-869,1007,-451,591,832
1742,-356,-877,963,-517,378,364
1743,-348,-860,922,-664,250,-107
1744,-342,-834,864,-760,277,-537
1745,-343,-799,827,-734,441,-904
1746,-325,-749,821,-596,638,-1207
1747,-312,-681,859,-316,808,-1478
1748,-321,-616,884,12,925,-1654
1749,-330,-577,932,258,1007,-1777
1750,-335,-530,997,436,1027,-1939
1751,-340,-492,1029,524,935,-2152
1752,-353,-465,1023,486,755,-2365
1753,-377,-403,1063,379,627,-2586
1754,-376,-332,1085,348,630,-2818
1755,-351,-269,1118,309,701,-3009
1756,-357,-226,1147,223,728,-3066
1757,-366,-207,1158,143,710,-3043
1758,-374,-208,1133,24,650,-3002
1759,-377,-253,1102,-90,531,-2994
1760,-399,-294,1076,-217,361,-3039
1761,-430,-334,1002,-320,220,-3170
1762,-457,-349,981,-336,158,-3341
1763,-496,-335,952,-201,185,-3595
1764,-490,-253,991,4,304,-3935
1765,-460,-149,1039,67,511,-4244
1766,-449,-81,1102,-111,767,-4388
1767,-436,-23,1151,-398,927,-4386
1768,-422,-7,1153,-619,865,-4289
1769,-438,-7,1126,-717,605,-4170
1770,-434,-3,1098,-603,302,-4091
1771,-438,16,1065,-279,35,-4027
1772,-443,46,1035,33,-182,-3980
1773,-397,102,1030,287,-233,-4080
1774,-400,194,1043,320,-122,-4181
1775,-377,227,1022,141,50,-4127
1776,-354,262,1004,2,220,-3970
1777,-325,291,998,20,310,-3755
1778,-300,332,1008,244,253,-3550
1779,-293,375,1007,592,183,-3373
1780,-286,397,1029,916,105,-3109
1781,-277,413,1062,1074,-36,-2877
1782,-260,412,1052,1090,-180,-2679
1783,-242,408,1007,1014,-274,-2486
1784,-220,388,1010,938,-284,-2281
1785,-192,365,984,895,-233,-2070
1786,-178,330,947,910,-198,-1873
1787,-166,303,924,977,-151,-1679
1788,-148,296,912,1094,-73,-1474
1789,-136,298,936,1190,11,-1257
1790,-131,282,939,1190,105,-1017
1791,-128,250,949,1127,175,-812
1792,-122,217,984,1018,205,-666
1793,-115,196,996,863,183,-562
1794,-107,178,991,654,142,-492
1795,-121,166,977,453,121,-451
1796,-138,169,958,289,150,-377
1797,-141,141,975,205,203,-212
1798,-153,118,967,172,230,-37
1799,-151,94,985,127,222,79
1800,-149,67,981,45,238,172
1801,-153,32,995,-25,289,288
1802,-168,7,984,-49,296,336
1803,-182,-8,987,-107,263,325
1804,-206,-8,959,-185,250,297
1805,-212,-23,998,-269,291,344
1806,-203,-53,1035,-230,320,444
1807,-212,-81,1027,-168,265,497
1808,-221,-100,1004,-142,160,454
1809,-232,-101,1011,-223,95,385
1810,-235,-98,990,-349,101,311
1811,-221,-109,978,-410,134,288
1812,-197,-135,980,-400,156,282
1813,-189,-142,971,-394,181,262
1814,-188,-157,962,-406,226,225
1815,-202,-177,983,-418,293,211
1816,-207,-175,990,-269,302,260
1817,-200,-188,1014,-64,210,307
1818,-229,-193,1030,35,105,332
1819,-243,-220,1028,53,35,327
1820,-239,-222,1010,29,7,274
1821,-234,-230,1019,-33,19,180
1822,-234,-207,1020,-103,62,82
1823,-233,-206,1018,-119,70,26
1824,-240,-190,1002,-76,60,2
1825,-231,-173,1023,2,3,12
1826,-233,-171,1002,49,-61,14
1827,-233,-162,1005,74,-84,-3
1828,-225,-156,980,55,-71,-23
1829,-227,-142,980,16,-40,-66
1830,-208,-131,988,-16,3,-91
1831,-203,-116,972,-29,31,-97
1832,-197,-103,968,-25,17,-87
1833,-200,-111,980,-17,5,-60
1834,-208,-111,994,-39,-4,-54
1835,-203,-121,970,-57,-6,-60
1836,-212,-107,970,-78,19,-70
1837,-216,-114,968,-86,56,-56
1838,-209,-112,975,-82,60,-25
1839,-216,-115,963,-66,48,-29
1840,-226,-129,965,-60,70,-31
1841,-232,-128,988,-86,113,-35
1842,-238,-112,1000,-127,142,-39
1843,-223,-128,992,-109,146,-31
1844,-233,-123,1020,-76,127,-21
1845,-237,-130,1002,-64,99,-39
1846,-239,-132,991,-86,105,-58
1847,-237,-126,1001,-141,142,-87
1848,-239,-120,996,-197,150,-103
1849,-226,-117,989,-207,132,-97
1850,-227,-119,982,-187,132,-86
1851,-237,-125,975,-158,128,-72
1852,-248,-130,994,-103,134,-52
1853,-245,-122,995,-94,125,-52
1854,-244,-130,994,-105,109,-62
1855,-234,-124,989,-113,103,-74
1856,-231,-133,991,-125,99,-86
1857,-234,-141,977,-152,93,-101
1858,-243,-138,974,-178,99,-109
1859,-232,-138,988,-197,101,-111
1860,-238,-139,978,-191,89,-107
1861,-228,-136,970,-174,99,-86
1862,-227,-132,976,-160,103,-62
1863,-225,-142,983,-141,91,-35
1864,-220,-149,981,-137,97,-5
1865,-225,-165,977,-115,97,18
1866,-227,-159,1000,-76,78,28
1867,-234,-169,997,-37,70,26
1868,-232,-174,1012,-17,78,24
1869,-238,-167,1003,-47,101,16
1870,-241,-169,1000,-55,123,2
1871,-239,-164,1004,-35,134,4
1872,-242,-156,1011,-23,119,-5
1873,-230,-161,1009,0,105,-7
1874,-229,-159,997,33,91,0
1875,-229,-158,1020,49,87,2
1876,-237,-154,1010,47,85,-3
1877,-242,-155,1013,74,82,-5
1878,-232,-160,1007,65,80,-5
1879,-238,-149,1015,88,72,-13
1880,-246,-149,997,96,46,-29
1881,-241,-126,999,102,33,-17
1882,-239,-124,993,123,17,12
1883,-235,-113,1007,131,-16,34
1884,-239,-125,990,106,-40,32
1885,-227,-139,991,49,-8,26
1886,-223,-147,968,0,29,16
1887,-227,-133,977,-21,43,12
1888,-228,-133,972,-8,54,26
1889,-237,-140,984,37,44,36
1890,-243,-146,1004,37,-2,41
1891,-255,-145,977,84,-4,26
1892,-248,-146,987,53,-10,16
1893,-248,-146,977,22,17,0
1894,-226,-147,968,-12,27,-17
1895,-236,-156,969,-12,23,-21
1896,-239,-155,957,12,11,-19
1897,-240,-155,952,27,11,-13
1898,-239,-156,945,20,43,-23
1899,-242,-150,958,12,66,-29
1900,-249,-151,972,6,87,-25
1901,-254,-155,952,20,123,-23
1902,-259,-136,986,51,130,-31
1903,-264,-139,991,53,127,-33
1904,-264,-130,993,67,101,-21
1905,-263,-130,979,100,85,-5
1906,-260,-133,984,88,80,-13
1907,-253,-130,987,51,85,-29
1908,-251,-132,995,29,78,-33
1909,-242,-121,995,26,68,-39
1910,-246,-123,991,4,64,-46
1911,-242,-126,982,-19,80,-46
1912,-245,-127,976,-4,103,-19
1913,-235,-125,1001,43,95,20
1914,-241,-127,996,86,52,41
1915,-246,-120,998,104,41,49
1916,-245,-128,996,100,35,51
1917,-252,-142,1004,76,41,53
1918,-258,-136,1000,70,41,38
1919,-261,-132,1011,63,21,32
1920,-249,-145,993,65,-16,24
1921,-257,-141,985,43,-47,14
1922,-252,-145,978,29,-41,-5
1923,-258,-142,998,10,-22,-21
1924,-243,-140,990,-6,-10,-21
1925,-243,-119,965,-8,-22,-21
1926,-239,-127,971,27,-24,-3
1927,-249,-123,972,55,-12,16
1928,-243,-133,977,51,0,14
1929,-245,-131,961,20,2,-7
1930,-240,-122,975,-10,21,-29
1931,-241,-139,972,-33,46,-23
1932,-240,-130,974,-21,50,-17
1933,-247,-133,977,0,46,-13
1934,-244,-135,991,14,39,-9
1935,-256,-135,975,4,56,-3
1936,-251,-144,980,26,50,12
1937,-259,-136,974,43,41,12
1938,-267,-139,985,47,50,14
1939,-268,-148,1019,31,62,6
1940,-272,-136,1014,10,44,-21
1941,-272,-146,1009,-2,3,-37
1942,-259,-134,987,-4,-16,-50
1943,-250,-126,970,-17,-20,-48
1944,-242,-122,974,-16,-14,-48
1945,-240,-123,975,-2,0,-35
1946,-245,-115,977,14,11,0
1947,-244,-108,981,47,15,14
1948,-246,-107,975,59,3,22
1949,-256,-109,974,53,9,24
1950,-267,-112,999,53,17,26
1951,-272,-115,990,51,17,16
1952,-285,-114,989,18,2,-2
1953,-274,-111,976,-2,-10,-9
1954,-274,-110,985,-16,-24,-13
1955,-253,-119,980,-21,-28,-21
1956,-245,-119,984,-39,-40,-21
1957,-246,-118,972,-55,-34,-15
1958,-256,-116,982,-47,-24,-7
1959,-249,-119,981,-37,-18,10
1960,-248,-110,983,-2,-10,32
1961,-256,-118,991,37,3,61
1962,-249,-116,990,47,25,59
1963,-252,-129,1001,2,48,39
1964,-249,-123,991,-25,66,22
1965,-249,-114,1004,-25,64,30
1966,-247,-121,1000,12,27,43
1967,-252,-118,999,49,15,75
1968,-261,-124,996,67,21,79
1969,-265,-121,992,65,23,88
1970,-252,-140,994,39,23,84
1971,-244,-144,997,0,21,61
1972,-252,-133,969,-27,11,43
1973,-247,-132,986,-41,-6,41
1974,-242,-126,980,-21,-6,51
1975,-242,-136,975,2,3,69
1976,-249,-134,996,4,17,75
1977,-255,-129,1006,16,5,82
1978,-255,-135,1007,22,0,96
1979,-258,-144,1004,-2,-14,73
1980,-259,-141,991,-27,-32,45
1981,-265,-141,987,-62,-22,34
1982,-247,-143,977,-66,-14,34
1983,-245,-136,991,-37,-18,39
1984,-255,-145,978,-2,-8,53
1985,-256,-137,989,26,2,61
1986,-271,-139,979,49,5,63
1987,-265,-143,1000,67,5,63
1988,-262,-145,994,53,-10,43
1989,-255,-152,1000,14,-26,12
1990,-261,-141,991,-25,-40,-25
1991,-254,-124,970,-31,-45,-43
1992,-254,-116,951,16,-59,-21
1993,-248,-116,946,76,-61,18
1994,-246,-115,958,115,-30,51
1995,-238,-131,973,123,2,51
1996,-229,-114,965,94,43,45
1997,-229,-114,965,74,74,36
1998,-240,-117,974,86,70,36
1999,-240,-113,971,111,54,49
2000,-245,-112,951,131,46,59
2001,-246,-117,967,131,58,59
2002,-255,-107,981,111,95,75
2003,-260,-99,997,102,99,98
2004,-271,-114,992,127,97,112
2005,-276,-113,1017,143,78,123
2006,-275,-119,1017,117,50,129
2007,-288,-128,1015,76,3,94
2008,-286,-129,993,22,-26,55
2009,-275,-139,1011,-31,-28,26
2010,-271,-133,989,-62,-18,-9
2011,-267,-136,971,-86,-14,-31
2012,-263,-141,985,-78,2,-37
2013,-255,-131,977,-60,5,-43
2014,-257,-129,997,-53,-2,-54
2015,-252,-115,994,-62,-8,-46
2016,-247,-116,991,-49,-36,-27
2017,-255,-115,984,-23,-47,-2
2018,-258,-110,981,-6,-18,12
2019,-272,-125,977,-12,7,14
2020,-270,-123,983,-47,21,2
2021,-265,-129,995,-84,27,-15
2022,-258,-131,995,-96,17,-33
2023,-254,-116,975,-103,-2,-43
2024,-243,-118,990,-80,5,-41
2025,-255,-126,976,-68,5,-27
2026,-247,-103,979,-51,7,-11
2027,-249,-117,993,-31,11,-3
2028,-252,-120,992,-25,33,4
2029,-257,-123,979,-29,39,-2
2030,-261,-122,996,-29,33,-2
2031,-256,-122,989,-27,35,2
2032,-252,-127,987,-14,31,2
2033,-252,-116,972,10,43,4
2034,-257,-116,996,57,29,32
2035,-266,-114,1003,104,-6,59
2036,-262,-126,995,119,-4,65
2037,-268,-115,977,104,11,49
2038,-268,-126,977,51,43,24
2039,-265,-125,988,22,50,4
2040,-259,-112,990,8,27,2
2041,-263,-112,983,12,-6,24
2042,-262,-118,980,37,-20,51
2043,-258,-129,972,63,-28,49
2044,-269,-134,970,33,0,18
2045,-265,-128,984,2,43,2
2046,-260,-122,965,2,58,-5
2047,-270,-125,976,31,33,2
2048,-259,-121,984,76,27,32
2049,-268,-131,980,102,25,38
2050,-262,-124,974,84,13,28
2051,-267,-113,980,67,2,16
2052,-263,-122,977,37,11,-3
2053,-275,-123,982,20,15,-9
2054,-262,-123,994,24,27,-13
2055,-257,-109,1001,22,33,-19
2056,-255,-110,997,27,27,-7
2057,-255,-116,990,41,3,12
2058,-256,-113,998,67,-4,34
2059,-269,-128,986,92,2,39
2060,-260,-125,987,65,9,22
2061,-272,-115,980,27,17,-2
2062,-265,-103,980,12,27,-11
2063,-269,-116,989,29,9,10
2064,-282,-105,984,67,-12,36
2065,-274,-116,987,86,-24,41
2066,-270,-112,1001,59,-34,24
2067,-273,-117,985,14,-47,-11
2068,-260,-111,970,-6,-49,-19
2069,-255,-110,945,14,-34,-17
2070,-274,-110,968,47,-26,-3
2071,-263,-103,972,59,-2,4
2072,-269,-98,983,45,17,2
2073,-261,-109,991,26,5,6
2074,-263,-96,991,14,0,-2
2075,-257,-109,975,4,2,6
2076,-253,-111,984,-6,5,0
2077,-253,-109,961,-21,25,-9
2078,-258,-99,971,-21,46,2
2079,-259,-96,990,12,41,34
2080,-259,-102,959,45,27,57
2081,-266,-113,961,72,35,61
2082,-260,-113,965,59,50,61
2083,-265,-118,977,35,70,45
2084,-261,-107,975,27,84,43
2085,-249,-107,1004,59,56,57
2086,-269,-116,991,78,19,55
2087,-273,-115,971,55,19,36
2088,-267,-116,996,18,52,18
2089,-271,-109,1000,-16,72,0
2090,-270,-116,998,-37,74,-5
2091,-267,-106,1001,-21,58,8
2092,-271,-99,993,39,21,39
2093,-263,-82,1003,78,-12,73
2094,-265,-104,994,82,-14,80
2095,-264,-107,1010,55,7,75
2096,-265,-105,993,26,29,67
2097,-267,-109,998,8,37,55
2098,-262,-114,996,12,31,55
2099,-269,-115,1016,24,13,57
2100,-266,-113,996,14,3,39
2101,-272,-121,987,-17,-2,16
2102,-273,-99,972,-39,-2,-3
2103,-256,-100,977,-23,3,-3
2104,-256,-99,977,-17,13,14
2105,-247,-95,962,12,15,39
2106,-253,-107,972,53,15,55
2107,-262,-109,980,68,29,67
2108,-267,-111,974,65,25,36
2109,-267,-107,974,45,35,39
2110,-264,-111,986,24,52,26
2111,-259,-102,977,4,39,28
2112,-256,-110,986,-41,27,20
2113,-258,-106,967,33,78,43
2114,-253,-113,972,59,70,51
2115,-263,-119,977,96,105,55
2116,-253,-86,990,104,160,8
2117,-255,-59,1019,49,236,-29
2118,-238,-76,1040,-39,310,-19
2119,-238,-87,1034,-19,312,-9
2120,-233,-101,1032,76,253,-27
2121,-239,-129,1030,147,220,-60
2122,-247,-132,1017,178,257,-117
2123,-248,-122,1037,193,349,-171
2124,-253,-102,1043,217,478,-201
2125,-267,-93,1066,297,523,-201
2126,-272,-89,1087,379,513,-173
2127,-278,-88,1075,504,482,-134
2128,-280,-85,1085,621,431,-89
2129,-298,-95,1083,734,382,-41
2130,-302,-86,1098,867,396,-3
2131,-311,-92,1132,983,464,16
2132,-312,-102,1127,1039,527,20
2133,-338,-115,1172,1106,574,-23
2134,-379,-132,1192,1168,625,-127
2135,-385,-125,1210,1152,703,-336
2136,-420,-107,1224,973,978,-613
2137,-431,-96,1255,707,1365,-880
2138,-408,-86,1326,424,1705,-1136
2139,-462,-63,1405,195,2212,-1425
2140,-478,-43,1458,72,2507,-1630
2141,-539,-14,1534,129,2580,-1730
2142,-569,13,1596,342,2556,-1757
2143,-618,76,1713,590,2451,-1837
2144,-664,151,1799,623,2377,-1822
2145,-698,137,1847,473,2209,-1675
2146,-695,150,1895,238,2005,-1382
2147,-717,116,1915,281,1703,-1132
2148,-717,79,1944,529,1320,-775
2149,-731,64,1950,867,675,-371
2150,-746,62,1959,1367,-143,71
2151,-789,93,1982,1936,-1038,565
2152,-825,126,1979,2467,-1916,1055
2153,-857,137,1999,2803,-2668,1582
2154,-879,90,1988,2783,-3315,2057
2155,-879,0,1927,2504,-3965,2346
2156,-874,-84,1805,2026,-4690,2397
2157,-877,-131,1634,1479,-5407,2293
2158,-865,-182,1451,1049,-6004,2186
2159,-837,-210,1273,668,-6438,2088
2160,-790,-204,1104,402,-6747,1938
2161,-762,-191,988,234,-6973,1795
2162,-708,-190,869,47,-7147,1692
2163,-639,-177,785,-162,-7332,1616
2164,-578,-167,664,-346,-7553,1504
2165,-522,-134,522,-519,-7872,1383
2166,-472,-98,375,-678,-8127,1274
2167,-425,-67,227,-760,-8248,1209
2168,-372,-45,119,-826,-8231,1207
2169,-300,-52,24,-842,-8092,1213
2170,-271,-63,-67,-889,-7885,1215
2171,-206,-74,-141,-935,-7582,1188
2172,-141,-89,-189,-951,-7081,1082
2173,-111,-98,-212,-965,-6508,911
2174,-62,-112,-222,-986,-5881,713
2175,-26,-106,-242,-1031,-5264,506
2176,35,-82,-238,-1019,-4661,313
2177,91,-57,-216,-984,-4147,176
2178,152,-12,-223,-773,-3741,45
2179,183,-11,-213,-457,-3467,-19
2180,249,1,-200,-88,-3211,-58
2181,273,12,-188,201,-2901,-80
2182,301,39,-207,410,-2514,-138
2183,327,44,-203,438,-2067,-209
2184,352,39,-204,283,-1528,-300
2185,364,52,-199,29,-932,-433
2186,399,48,-168,-252,-356,-584
2187,420,69,-161,-480,140,-740
2188,440,65,-160,-676,517,-818
2189,428,86,-128,-785,808,-785
2190,379,63,-128,-779,1074,-711
2191,343,47,-128,-635,1312,-662
2192,292,18,-119,-451,1570,-586
2193,237,18,-112,-303,1828,-517
2194,203,-22,-89,-174,2117,-482
2195,163,-33,-30,-160,2398,-507
2196,155,-24,11,-162,2638,-568
2197,168,6,71,-215,2875,-595
2198,155,10,92,-287,3062,-517
2199,129,3,152,-277,3156,-367
2200,136,-8,166,-254,3212,-232
2201,102,18,178,-271,3318,-119
2202,86,34,216,-308,3468,12
2203,80,57,258,-310,3701,196
2204,136,3,317,-228,3953,450
2205,131,-46,366,-33,4191,741
2206,120,-87,458,389,4443,868
2207,78,-61,492,649,4587,901
2208,15,-50,556,711,4863,983
2209,-48,-24,667,656,5060,1055
2210,-104,14,785,641,5404,1059
2211,-122,69,968,656,5861,1077
2212,-153,98,1153,770,6267,1151
2213,-194,89,1329,906,6320,1266
2214,-261,5,1390,651,6179,1278
2215,-341,-97,1432,-23,6156,1059
2216,-420,-94,1539,-803,6355,647
2217,-498,7,1798,-1066,6718,225
2218,-608,90,2048,-807,6875,272
2219,-676,104,2048,-412,6574,629
2220,-710,65,2048,-215,5783,881
2221,-740,9,2048,-244,4627,911
2222,-730,-13,2048,-412,3525,733
2223,-697,13,2048,-543,2736,416
2224,-673,60,2048,-752,2189,151
2225,-643,125,2048,-945,1826,-62
2226,-624,168,2048,-1131,1435,-220
2227,-598,234,2048,-1275,902,-367
2228,-556,316,2048,-1357,324,-537
2229,-497,394,2048,-1539,-239,-593
2230,-454,433,2029,-1791,-729,-566
2231,-386,441,1829,-2049,-1163,-546
2232,-344,462,1614,-2230,-1483,-533
2233,-326,478,1389,-2258,-1637,-455
2234,-298,464,1260,-2111,-1659,-240
2235,-258,443,1153,-1851,-1698,92
2236,-249,423,1072,-1459,-1688,381
2237,-216,402,1050,-1072,-1645,610
2238,-206,418,1009,-723,-1582,793
2239,-189,422,999,-512,-1504,1086
2240,-168,464,999,-394,-1393,1450
2241,-149,491,1006,-387,-1362,1922
2242,-121,478,970,-459,-1422,2454
2243,-118,434,923,-447,-1502,2899
2244,-109,355,891,-383,-1518,3256
2245,-117,330,853,-295,-1452,3500
2246,-133,300,840,-234,-1331,3674
2247,-126,251,819,-232,-1143,3815
2248,-138,216,803,-250,-926,3942
2249,-120,168,824,-246,-750,4051
2250,-136,112,796,-232,-616,4135
2251,-153,71,820,-158,-502,4172
2252,-191,20,801,6,-413,4282
2253,-238,-39,803,242,-358,4485
2254,-295,-115,847,518,-245,4684
2255,-350,-197,883,764,-159,4870
2256,-398,-281,921,879,-112,5016
2257,-447,-397,960,863,-122,5024
2258,-471,-477,985,764,-159,4866
2259,-470,-543,980,502,-172,4622
2260,-461,-600,945,176,-123,4330
2261,-424,-624,942,-135,-20,4043
2262,-431,-661,923,-348,87,3817
2263,-431,-712,929,-408,160,3672
2264,-421,-749,916,-404,218,3543
2265,-427,-776,890,-291,252,3438
2266,-447,-829,879,-152,277,3379
2267,-457,-892,882,-68,353,3276
2268,-506,-973,887,-119,445,3018
2269,-503,-1038,947,-269,500,2539
2270,-490,-1060,945,-480,517,1846
2271,-484,-1039,933,-682,414,1108
2272,-451,-1012,897,-855,375,491
2273,-404,-953,842,-889,433,-7
2274,-352,-917,832,-807,503,-361
2275,-342,-873,819,-611,550,-636
2276,-338,-826,813,-316,630,-937
2277,-325,-782,831,-23,714,-1250
2278,-353,-720,873,174,775,-1586
2279,-357,-645,929,260,869,-1927
2280,-359,-566,968,248,972,-2189
2281,-355,-509,1020,201,1043,-2382
2282,-363,-448,1071,145,1015,-2554
2283,-368,-388,1114,111,955,-2755
2284,-362,-323,1157,115,859,-2953
2285,-359,-264,1196,125,773,-3138
2286,-353,-211,1229,88,646,-3203
2287,-346,-188,1217,-14,459,-3195
2288,-346,-215,1189,-209,291,-3197
2289,-350,-235,1140,-408,181,-3230
2290,-377,-259,1071,-560,128,-3283
2291,-401,-276,1029,-646,113,-3322
2292,-399,-291,987,-525,121,-3384
2293,-401,-283,978,-248,156,-3533
2294,-386,-252,984,14,171,-3726
2295,-377,-215,992,82,173,-3841
2296,-377,-212,951,0,173,-3880
2297,-378,-201,939,-86,173,-3878
2298,-393,-178,934,-58,164,-3931
2299,-405,-101,971,74,158,-4064
2300,-388,4,1005,338,250,-4203
2301,-363,79,1062,469,341,-4203
2302,-350,110,1067,440,378,-4093
2303,-351,116,1035,328,328,-3982
2304,-357,97,969,227,224,-3859
2305,-374,74,904,225,146,-3720
2306,-358,103,880,416,115,-3617
2307,-299,137,898,776,173,-3587
2308,-278,212,945,1033,324,-3539
2309,-266,281,996,1086,523,-3386
2310,-257,310,1014,1016,681,-3173
2311,-254,304,1033,830,687,-2980
2312,-253,291,1017,629,580,-2795
2313,-240,294,984,504,447,-2627
2314,-224,308,988,543,314,-2466
2315,-189,313,958,707,240,-2281
2316,-185,321,952,842,242,-2048
2317,-185,304,984,891,283,-1812
2318,-199,298,1018,881,328,-1593
2319,-197,270,997,807,353,-1377
2320,-187,239,1006,692,345,-1181
2321,-178,211,998,565,334,-1046
2322,-165,209,1009,469,326,-925
2323,-147,197,1023,436,302,-785
2324,-147,199,1026,430,275,-607
2325,-135,167,1043,395,277,-386
2326,-139,149,1043,297,275,-181
2327,-147,113,1033,225,269,-7
2328,-160,73,1037,178,253,125
2329,-181,58,1040,108,226,205
2330,-190,19,1037,49,183,280
2331,-203,-9,1019,2,144,323
2332,-215,-43,997,-55,130,348
2333,-233,-61,1000,-107,146,354
2334,-226,-70,1008,-152,179,352
2335,-234,-91,989,-185,199,391
2336,-235,-106,984,-164,183,413
2337,-247,-133,1006,-141,152,430
2338,-239,-141,1001,-146,138,446
2339,-241,-156,990,-168,111,457
2340,-254,-173,1006,-123,72,430
2341,-250,-188,985,-109,41,372
2342,-259,-194,987,-168,48,282
2343,-259,-180,969,-256,68,170
2344,-252,-179,971,-320,87,77
2345,-232,-174,964,-369,103,12
2346,-223,-170,961,-351,103,4
2347,-229,-168,957,-238,60,20
2348,-229,-162,943,-144,29,32
2349,-220,-166,944,-88,44,63
2350,-219,-169,948,-12,70,96
2351,-225,-187,963,39,105,90
2352,-226,-179,988,49,146,59
2353,-225,-184,1011,4,181,-2
2354,-226,-166,1017,-35,152,-62
2355,-232,-168,1008,-84,138,-84
2356,-234,-144,1009,-119,134,-87
2357,-213,-142,1029,-88,117,-37
2358,-204,-155,1018,-23,37,12
2359,-218,-148,1012,-14,-41,26
2360,-219,-150,979,-62,-30,8
2361,-209,-166,1020,-96,41,4
2362,-209,-161,1040,-76,62,8
2363,-216,-162,1023,-58,19,-9
2364,-234,-161,1013,-60,21,-25
2365,-241,-155,1014,-90,52,-43
2366,-229,-150,1007,-103,39,-46
2367,-220,-158,1017,-88,-14,-54
2368,-225,-147,994,-62,-55,-72
2369,-229,-132,984,-80,-34,-82
2370,-225,-136,972,-92,5,-35
2371,-230,-141,986,10,-28,38
2372,-234,-143,965,139,-90,84
2373,-234,-172,994,143,-73,96
2374,-234,-176,982,43,2,49
2375,-227,-180,990,-43,41,-15
2376,-234,-178,992,-70,48,-46
2377,-233,-167,969,-39,29,-46
2378,-232,-180,990,26,11,-25
2379,-241,-177,972,51,-6,-27
2380,-244,-180,981,47,-4,-50
2381,-229,-181,979,4,29,-91
2382,-232,-172,975,-55,56,-128
2383,-223,-160,983,-58,43,-132
2384,-219,-165,974,-33,27,-127
2385,-223,-158,965,-12,50,-121
2386,-226,-157,965,18,78,-93
2387,-222,-160,983,72,64,-60
2388,-229,-164,971,106,41,-54
2389,-241,-156,997,115,29,-43
2390,-233,-169,994,94,13,-56
2391,-232,-163,987,47,39,-89
2392,-230,-157,972,18,82,-111
2393,-245,-151,990,12,111,-109
2394,-236,-148,998,26,107,-99
2395,-225,-149,998,57,89,-87
2396,-236,-154,996,70,66,-84
2397,-220,-152,993,65,74,-76
2398,-217,-151,986,37,70,-82
2399,-235,-149,991,22,70,-95
2400,-220,-146,978,20,85,-78
2401,-235,-146,981,59,82,-58
2402,-238,-141,961,106,85,-37
2403,-237,-149,981,141,107,-19
2404,-253,-162,985,127,127,-27
2405,-239,-154,988,121,127,-54
2406,-249,-142,995,92,128,-86
2407,-255,-139,980,61,146,-113
2408,-253,-138,991,39,164,-103
2409,-236,-138,987,70,144,-84
2410,-249,-141,981,94,121,-68
2411,-245,-130,993,90,128,-54
2412,-253,-142,1009,74,103,-41
2413,-250,-139,994,80,68,-43
2414,-238,-133,1000,72,50,-52
2415,-254,-134,1007,53,62,-52
2416,-254,-141,998,39,72,-45
2417,-242,-128,986,47,66,-37
2418,-251,-133,996,39,62,-33
2419,-247,-136,1012,33,50,-21
2420,-246,-134,998,26,37,-23
2421,-248,-135,1013,6,37,-37
2422,-250,-139,1004,-10,37,-37
2423,-241,-125,985,16,15,-11
2424,-236,-138,998,53,-24,16
2425,-244,-138,991,55,-24,20
2426,-239,-131,977,26,-8,8
2427,-245,-139,975,-4,15,12
2428,-235,-127,981,-6,31,12
2429,-228,-132,992,16,21,36
2430,-229,-135,989,49,5,65
2431,-229,-146,976,65,-2,65
2432,-236,-156,963,59,13,55
2433,-241,-148,988,41,54,39
2434,-258,-145,985,33,80,32
2435,-257,-140,1009,65,80,30
2436,-250,-141,996,96,56,41
2437,-246,-147,990,108,29,45
2438,-246,-156,983,108,25,34
2439,-247,-149,1005,82,31,12
2440,-255,-127,977,74,43,-3
2441,-264,-139,973,98,46,6
2442,-260,-145,1000,111,56,6
2443,-256,-136,994,98,66,-3
2444,-254,-123,989,84,56,-3
2445,-254,-126,1002,74,27,-3
2446,-254,-123,1005,82,5,14
2447,-254,-132,990,92,3,18
2448,-256,-130,1004,80,9,26
2449,-251,-128,970,57,27,28
2450,-255,-134,1005,55,9,32
2451,-252,-128,977,39,-28,18
2452,-257,-135,968,10,-22,-5
2453,-256,-120,969,-33,15,-17
2454,-242,-107,978,-62,46,-21
2455,-248,-121,975,-49,43,-9
2456,-244,-126,966,0,17,22
2457,-241,-131,958,31,7,53
2458,-245,-127,958,43,11,67
2459,-245,-148,975,41,23,65
2460,-251,-138,973,39,41,61
2461,-262,-147,954,31,64,43
2462,-255,-141,980,18,85,34
2463,-261,-142,990,16,84,28
2464,-265,-131,998,14,64,14
2465,-259,-128,1010,10,43,16
2466,-254,-138,998,-4,17,20
2467,-255,-134,999,-17,0,10
2468,-255,-133,1011,-27,3,-5
2469,-251,-128,993,-43,13,2
2470,-251,-125,984,-53,15,-5
2471,-246,-133,988,-45,0,-5
2472,-255,-125,983,-41,-14,-2
2473,-242,-137,983,-27,-16,6
2474,-251,-130,971,-19,-8,14
2475,-244,-130,974,-6,7,18
2476,-251,-135,971,0,33,26
2477,-245,-136,980,2,50,28
2478,-254,-138,985,2,48,10
2479,-256,-141,989,2,50,6
2480,-258,-141,996,-2,39,-3
2481,-260,-125,984,0,29,-7
2482,-263,-140,987,0,29,-3
2483,-254,-134,984,16,46,10
2484,-251,-129,974,37,54,20
2485,-254,-135,997,53,44,26
2486,-266,-146,1023,43,37,28
2487,-262,-147,983,16,29,10
2488,-264,-143,979,-2,35,-15
2489,-263,-146,1007,-19,48,-19
2490,-274,-151,1010,-2,29,-17
2491,-258,-138,987,24,-6,-19
2492,-261,-147,1010,20,-22,-17
2493,-268,-139,991,-12,-38,-37
2494,-265,-138,997,-35,-34,-58
2495,-256,-135,994,-45,-26,-56
2496,-245,-130,986,-27,-24,-48
2497,-251,-126,990,-6,-41,-33
2498,-236,-129,983,12,-41,-13
2499,-242,-129,979,6,-26,0
2500,-248,-128,978,4,-26,-2
2501,-249,-133,980,12,-22,-3
2502,-253,-135,979,22,-12,0
2503,-254,-135,985,16,-16,-7
2504,-245,-131,975,2,-12,-15
2505,-254,-134,982,-23,-8,-29
2506,-244,-133,980,-35,3,-33
2507,-248,-133,959,-25,3,-15
2508,-252,-130,966,4,25,-7
2509,-258,-132,975,26,44,6
2510,-252,-137,964,24,46,10
2511,-257,-140,974,20,62,14
2512,-257,-138,969,29,56,12
2513,-264,-141,968,43,46,12
2514,-255,-138,984,35,52,0
2515,-262,-133,998,8,52,-21
2516,-262,-131,994,-14,48,-41
2517,-257,-126,987,-16,48,-39
2518,-260,-136,988,-8,39,-29
2519,-260,-127,988,12,33,-21
2520,-258,-132,985,10,21,-7
2521,-259,-140,990,4,21,-9
2522,-263,-142,991,-6,15,-13
2523,-268,-142,991,-23,-2,-33
2524,-259,-141,988,-41,2,-39
2525,-266,-142,971,-41,3,-48
2526,-258,-136,985,-16,9,-45
2527,-262,-141,984,0,21,-33
2528,-251,-137,974,0,43,-33
2529,-270,-128,975,0,41,-45
2530,-261,-113,972,-16,44,-48
2531,-260,-116,977,-12,33,-35
2532,-247,-119,980,10,17,-21
2533,-254,-122,964,26,21,-2
2534,-254,-127,974,39,29,8
2535,-263,-133,978,33,27,16
2536,-267,-126,975,16,37,14
2537,-269,-134,974,12,54,8
2538,-266,-133,977,14,74,10
2539,-260,-126,992,14,72,-2
2540,-270,-133,1016,14,52,2
2541,-259,-125,985,22,23,6
2542,-272,-123,1011,14,-2,-7
2543,-263,-122,1010,-6,-10,-2
2544,-264,-116,1003,-12,-26,2
2545,-256,-122,1001,-6,-40,12
2546,-261,-129,999,0,-43,14
2547,-252,-141,1002,-25,-34,8
2548,-256,-140,1011,-49,-32,-7
2549,-264,-138,990,-41,-61,-17
2550,-259,-126,981,-17,-92,-13
2551,-251,-133,982,-2,-92,-7
2552,-255,-126,969,16,-77,-3
2553,-242,-134,962,35,-43,14
2554,-245,-136,983,76,-34,38
2555,-249,-129,981,113,-47,49
2556,-261,-135,988,113,-41,43
2557,-265,-144,981,70,-10,18
2558,-274,-134,987,12,19,-31
2559,-268,-127,1000,-45,21,-72
2560,-269,-113,996,-57,-10,-66
2561,-253,-117,980,-16,-47,-37
2562,-251,-108,988,37,-94,0
2563,-263,-114,1002,63,-131,30
2564,-258,-122,981,70,-135,47
2565,-252,-138,967,63,-108,55
2566,-246,-121,961,39,-57,51
2567,-256,-139,966,29,-22,34
2568,-253,-134,990,24,-14,16
2569,-245,-135,989,12,-10,2
2570,-257,-140,993,-6,-40,-7
2571,-251,-139,991,-16,-63,-9
2572,-253,-128,957,-2,-73,-7
2573,-252,-141,965,-2,-71,-5
2574,-246,-134,967,-2,-34,-5
2575,-242,-137,969,-6,-2,-11
2576,-243,-126,957,0,15,-7
2577,-257,-141,962,12,25,-2
2578,-254,-126,984,29,17,2
2579,-258,-132,981,33,3,0
2580,-249,-130,964,37,2,12
2581,-252,-127,970,43,13,26
2582,-261,-128,970,57,19,26
2583,-262,-134,968,59,23,30
2584,-261,-129,991,27,15,24
2585,-259,-137,981,0,9,0
2586,-258,-120,949,-41,11,-27
2587,-256,-121,946,-64,48,-31
2588,-242,-121,953,-60,93,-23
2589,-243,-132,982,-43,93,-13
2590,-253,-127,975,-35,80,8
2591,-255,-126,969,-19,80,14
2592,-257,-124,962,0,70,26
2593,-267,-131,984,18,84,38
2594,-266,-128,991,33,91,49
2595,-271,-129,983,37,84,43
2596,-279,-134,1003,20,95,43
2597,-275,-122,989,8,89,20
2598,-276,-134,1004,-12,76,12
2599,-284,-123,1000,-8,56,8
2600,-282,-125,1004,0,50,16
2601,-279,-127,1014,12,41,8
2602,-275,-131,1017,-8,17,4
2603,-273,-141,1009,-35,5,-25
2604,-279,-127,993,-47,7,-31
2605,-273,-127,1007,-37,2,-27
2606,-260,-127,991,-14,2,-21
2607,-261,-121,1032,-6,-24,-31
2608,-250,-129,1007,-37,-34,-39
2609,-252,-119,998,-62,-47,-41
2610,-259,-105,996,-55,-69,-23
2611,-239,-123,989,-16,-92,8
2612,-238,-121,982,16,-100,39
2613,-249,-123,981,26,-96,51
2614,-245,-129,995,10,-75,47
2615,-251,-111,988,4,-61,41
2616,-251,-132,968,4,-57,57
2617,-236,-123,977,24,-77,61
2618,-243,-125,962,12,-69,53
2619,-248,-134,963,-10,-34,38
2620,-247,-127,957,-19,-6,32
2621,-238,-133,965,-14,15,34
2622,-248,-139,981,4,2,45
2623,-251,-146,992,27,-16,51
2624,-269,-137,983,8,-36,38
2625,-259,-135,975,-16,-14,22
2626,-266,-136,983,-49,13,4
2627,-257,-137,975,-41,3,-3
2628,-254,-129,974,-2,-22,14
2629,-246,-134,983,33,-41,30
2630,-246,-141,967,41,-41,36
2631,-255,-139,955,31,-6,26
2632,-244,-138,967,10,41,14
2633,-246,-134,962,0,54,-2
2634,-254,-139,975,-8,66,-7
2635,-255,-141,980,-4,62,-17
2636,-260,-122,962,4,52,-11
2637,-256,-129,980,24,46,-3
2638,-253,-118,984,24,52,-5
2639,-249,-111,997,14,52,-13
2640,-247,-112,987,2,66,-7
2641,-248,-106,977,16,64,14
2642,-248,-103,991,37,44,43
2643,-249,-99,993,51,37,55
2644,-244,-106,982,24,44,59
2645,-248,-104,989,-25,72,51
2646,-247,-89,988,-55,103,49
2647,-260,-92,984,-58,107,61
2648,-240,-80,991,-41,99,75
2649,-242,-97,993,-82,113,61
2650,-211,-67,998,-189,169,16
2651,-238,-133,970,-340,236,0
2652,-239,-171,954,-381,306,-27
2653,-251,-167,952,-291,341,32
2654,-244,-171,984,-232,287,80
2655,-254,-162,996,-105,253,153
2656,-261,-189,1009,100,218,202
2657,-279,-182,1027,172,175,229
2658,-294,-171,1030,234,144,209
2659,-320,-155,1043,272,82,137
2660,-307,-149,1052,256,35,94
2661,-316,-141,1049,186,-34,65
2662,-314,-137,1019,139,-90,49
2663,-299,-140,997,84,-110,20
2664,-311,-133,992,26,-88,2
2665,-305,-126,960,41,-43,-52
2666,-291,-129,959,45,2,-171
2667,-282,-131,943,84,46,-267
2668,-258,-132,922,94,78,-291
2669,-245,-123,909,125,35,-220
2670,-236,-125,916,192,-12,-136
2671,-238,-121,922,240,-32,-62
2672,-228,-133,926,315,-22,2
2673,-246,-141,935,340,43,69
2674,-259,-134,944,373,68,120
2675,-277,-136,966,440,64,174
2676,-280,-134,990,486,9,207
2677,-295,-135,1003,553,-30,211
2678,-306,-136,995,563,-73,184
2679,-319,-106,996,514,-61,131
2680,-315,-94,991,399,17,61
2681,-302,-83,988,270,125,-7
2682,-293,-57,996,201,173,-3
2683,-311,-35,981,160,173,32
2684,-311,-36,985,209,158,98
2685,-326,-30,981,270,130,149
2686,-359,-39,965,299,99,184
2687,-346,-50,980,299,84,180
2688,-331,-64,957,279,82,135
2689,-316,-70,959,240,115,71
2690,-294,-72,941,182,166,-25
2691,-263,-71,938,137,246,-105
2692,-249,-57,946,102,300,-146
2693,-234,-43,960,86,339,-146
2694,-238,-56,970,68,369,-128
2695,-244,-33,980,47,425,-99
2696,-226,-47,994,143,460,-3
2697,-245,-35,1009,293,363,161
2698,-260,-67,1020,508,220,284
2699,-278,-74,1023,754,214,391
2700,-272,-104,1048,809,242,418
2701,-281,-101,1098,850,334,358
2702,-282,-112,1108,863,474,233
2703,-286,-102,1165,807,609,80
2704,-300,-75,1215,762,777,-35
2705,-325,-42,1265,746,955,-136
2706,-355,-6,1348,758,1121,-253
2707,-358,56,1459,815,1232,-375
2708,-377,118,1587,836,1289,-466
2709,-386,146,1679,799,1349,-492
2710,-415,138,1752,690,1351,-554
2711,-450,136,1835,557,1289,-652
2712,-492,121,1877,451,1085,-791
2713,-539,137,1939,486,712,-916
2714,-578,183,1986,621,285,-914
2715,-602,231,2037,785,-145,-763
2716,-630,240,2048,961,-508,-558
2717,-665,238,2048,1045,-911,-310
2718,-680,202,2048,1067,-1334,-31
2719,-682,168,2048,1117,-1821,262
2720,-673,111,2048,1276,-2450,557
2721,-682,86,2048,1504,-3196,844
2722,-691,58,1986,1684,-3956,1108
2723,-684,37,1902,1736,-4618,1379
2724,-663,-6,1794,1635,-5168,1612
2725,-650,-50,1674,1428,-5668,1750
2726,-619,-98,1525,1178,-6057,1809
2727,-585,-135,1366,785,-6385,1764
2728,-555,-169,1198,301,-6618,1635
2729,-492,-191,1024,-172,-6737,1469
2730,-455,-182,863,-652,-6764,1305
2731,-408,-178,728,-1002,-6743,1180
2732,-353,-158,572,-1053,-6788,1110
2733,-366,-147,446,-1131,-6883,1137
2734,-278,-122,326,-1250,-6893,1272
2735,-260,-152,212,-1185,-6915,1196
2736,-247,-132,89,-1113,-6870,1131
2737,-219,-135,-11,-1019,-6620,1084
2738,-192,-147,-102,-1049,-6188,1018
2739,-149,-171,-168,-1232,-5594,924
2740,-112,-192,-245,-1498,-4877,782
2741,-77,-159,-281,-1750,-4061,625
2742,-27,-134,-291,-1789,-3254,479
2743,5,-113,-271,-1627,-2487,395
2744,24,-83,-226,-1312,-1946,413
2745,65,-100,-175,-928,-1590,500
2746,76,-88,-150,-482,-1401,481
2747,92,-54,-112,-137,-1293,477
2748,124,-81,-103,131,-1219,475
2749,140,-78,-101,340,-1163,373
2750,153,-79,-127,406,-1053,172
2751,154,-67,-147,336,-815,-86
2752,163,-37,-141,203,-428,-336
2753,195,-2,-125,70,37,-505
2754,235,-6,-113,-51,502,-615
2755,228,4,-82,-119,921,-668
2756,232,-14,-50,-90,1271,-646
2757,222,-36,2,-31,1593,-593
2758,195,-58,56,59,1824,-531
2759,177,-101,90,213,1970,-531
2760,124,-85,147,363,2082,-576
2761,92,-82,183,572,2209,-605
2762,81,-71,275,729,2375,-632
2763,79,-66,304,645,2546,-699
2764,101,-114,333,324,2730,-736
2765,144,-123,359,-76,3000,-795
2766,123,-114,367,-338,3263,-820
2767,159,-36,386,-336,3500,-656
2768,141,37,450,61,3787,-412
2769,156,96,574,563,3929,-109
2770,131,102,695,1047,3880,204
2771,97,44,799,1227,3791,428
2772,82,-79,844,902,3757,612
2773,42,-171,859,449,3855,635
2774,4,-146,917,145,3978,455
2775,-30,-12,1013,131,4068,397
2776,12,122,1168,348,4214,567
2777,3,216,1325,512,4427,815
2778,6,197,1488,254,4679,1088
2779,-54,103,1575,-338,4888,1149
2780,-107,17,1705,-961,4943,825
2781,-149,9,1805,-1310,4855,229
2782,-193,111,1909,-1555,4572,-341
2783,-237,184,1950,-1646,4189,-578
2784,-287,268,1976,-1433,3669,-615
2785,-394,361,1985,-816,3037,-529
2786,-443,451,2031,-129,2486,-324
2787,-456,488,2048,318,2068,-146
2788,-456,518,2048,315,1718,12
2789,-426,560,2048,86,1412,8
2790,-378,632,2048,-346,1152,-267
2791,-328,641,2048,-891,847,-416
2792,-287,731,2008,-1324,314,-361
2793,-247,742,1856,-1580,-57,-543
2794,-225,696,1690,-1502,-438,-720
2795,-177,680,1554,-1285,-1125,-380
2796,-144,629,1406,-891,-1727,-66
2797,-129,572,1293,-359,-2040,370
2798,-98,652,1254,-58,-1979,975
2799,-98,592,1232,-242,-1715,1780
2800,-103,530,1176,-478,-1487,2498
2801,-122,452,1137,-726,-1336,2959
2802,-147,375,1099,-810,-1288,3205
2803,-150,311,1029,-711,-1272,3348
2804,-162,218,1009,-418,-1258,3416
2805,-163,159,984,-43,-1231,3459
2806,-188,149,969,324,-1159,3477
2807,-218,182,972,504,-961,3707
2808,-223,149,983,426,-788,4252
2809,-232,51,952,295,-711,4807
2810,-272,-47,925,309,-651,5198
2811,-281,-142,926,305,-510,5360
2812,-282,-244,894,272,-379,5301
2813,-288,-314,890,203,-332,5116
2814,-278,-368,861,152,-364,4821
2815,-293,-433,842,168,-321,4524
2816,-309,-483,818,223,-192,4291
2817,-340,-537,832,283,39,4229
2818,-359,-599,894,428,232,4280
2819,-363,-686,932,490,363,4196
2820,-372,-743,983,440,418,3955
2821,-352,-818,1014,272,386,3616
2822,-340,-844,1014,33,326,3180
2823,-324,-892,1013,-236,293,2768
2824,-337,-915,994,-447,285,2381
2825,-340,-956,978,-480,293,2047
2826,-327,-990,968,-389,294,1776
2827,-322,-1015,969,-228,283,1506
2828,-314,-1029,988,-88,230,1200
2829,-318,-1030,965,-8,166,823
2830,-303,-1026,977,0,144,399
2831,-266,-988,951,-27,154,-46
2832,-255,-949,915,-154,216,-498
2833,-226,-886,928,-271,328,-945
2834,-171,-820,911,-312,427,-1300
2835,-150,-744,907,-269,478,-1617
2836,-147,-681,922,-164,486,-1861
2837,-148,-600,916,20,457,-2033
2838,-172,-534,955,262,486,-2150
2839,-183,-499,995,443,550,-2185
2840,-207,-497,1014,496,572,-2265
2841,-221,-510,1039,408,505,-2468
2842,-258,-490,1018,137,464,-2763
2843,-282,-484,994,-82,488,-3017
2844,-288,-426,1006,-137,562,-3265
2845,-290,-356,997,-76,613,-3410
2846,-301,-320,1009,88,640,-3464
2847,-301,-271,1016,205,718,-3488
2848,-304,-224,1020,215,845,-3482
2849,-295,-179,1005,201,949,-3494
2850,-307,-121,1019,289,996,-3548
2851,-346,-31,1042,410,1058,-3580
2852,-337,103,1072,625,1134,-3515
2853,-305,228,1142,877,1105,-3308
2854,-289,329,1186,949,1000,-3084
2855,-302,395,1177,750,949,-2738
2856,-285,379,1159,367,998,-2439
2857,-305,388,1141,-92,1068,-2277
2858,-328,369,1140,-476,1195,-2089
2859,-358,405,1095,-572,1431,-1683
2860,-335,468,1134,-328,1486,-1361
2861,-348,515,1179,-92,1402,-1021
2862,-324,530,1211,-299,1207,-658
2863,-360,545,1209,-859,1043,-476
2864,-448,473,1120,-1803,1064,-722
2865,-473,444,767,-2853,1384,-1306
2866,-302,328,408,754,-944,-2035
2867,-225,326,860,5734,-2784,-1621
2868,-203,279,961,6584,-2276,-494
2869,-173,542,1005,6533,-897,497
2870,-200,523,981,5926,-1245,1059
2871,-70,575,1060,6262,-2071,1582
2872,-103,658,1071,6731,-2098,1252
2873,-229,443,1173,6096,-2022,457
2874,-276,428,1244,4256,-1711,-84
2875,-172,733,1301,1631,-413,-648
2876,-63,487,1047,-1357,1197,-1888
2877,128,374,900,-2180,796,-1433
2878,65,347,894,-1131,-18,-285
2879,-293,305,1298,-689,-702,327
2880,-127,159,895,-2437,-1235,-404
2881,-55,197,912,-2113,-807,-173
2882,-58,223,974,-1701,-737,88
2883,-120,221,915,-1289,-809,227
2884,-68,172,914,-969,-758,168
2885,-76,112,996,-674,-520,379
2886,-138,103,1014,-611,-428,457
2887,-170,106,1026,-703,-317,252
2888,-203,-74,927,-685,-305,-23
2889,105,-7,1026,-340,-1159,497
2890,-30,26,898,-133,-1258,758
2891,18,8,928,-33,-1561,877
2892,23,45,939,-121,-1598,946
2893,33,56,903,-389,-1272,909
2894,-152,99,783,-807,-864,473
2895,-173,130,559,-2490,-1704,-86
2896,-195,-43,1013,-4670,-2764,-1437
2897,-331,-53,1494,-3553,-2893,-1587
2898,-363,-373,1449,-664,-2448,-490
2899,-195,-301,1305,490,-1032,598
2900,-111,-213,1215,656,265,1469
2901,-97,-164,1166,1047,779,1680
2902,-98,-70,1066,1434,718,1625
2903,-118,24,927,1490,566,1446
2904,-115,81,866,1115,255,1170
2905,-143,98,860,565,-61,866
2906,-173,69,972,26,-532,545
2907,-153,49,1066,-289,-916,385
2908,-103,33,1108,-156,-895,479
2909,-66,46,1096,162,-592,666
2910,-30,72,1041,350,-108,877
2911,23,75,993,330,453,1036
2912,73,87,985,219,908,1088
2913,99,104,996,154,1044,1024
2914,116,157,968,209,853,881
2915,102,161,923,330,283,573
2916,53,154,897,328,-354,266
2917,17,143,890,127,-719,108
2918,9,106,909,-96,-866,75
2919,10,77,947,-351,-854,110
2920,54,50,977,-467,-854,131
2921,80,46,1000,-406,-875,100
2922,107,30,1029,-348,-803,77
2923,156,42,1035,-295,-618,57
2924,187,34,1012,-139,-471,-21
2925,155,61,991,29,-368,-138
2926,95,82,951,135,-327,-216
2927,58,103,935,158,-286,-263
2928,-7,118,929,96,-344,-287
2929,-34,113,938,-49,-465,-277
2930,-21,105,914,-199,-436,-189
2931,2,93,966,-428,-401,-166
2932,45,76,983,-551,-420,-189
2933,80,72,980,-506,-372,-212
2934,95,64,985,-461,-250,-236
2935,77,66,981,-433,-38,-228
2936,48,74,960,-387,111,-203
2937,10,71,961,-418,177,-185
2938,10,84,970,-443,140,-140
2939,30,80,970,-400,-28,-132
2940,21,89,924,-381,-86,-119
2941,-11,71,946,-480,-92,-125
2942,-34,50,996,-642,-139,-93
2943,-16,29,996,-756,-180,-64
2944,18,-3,1007,-808,-184,-54
2945,34,-33,1059,-851,-178,-54
2946,38,-56,1107,-836,-123,-43
2947,47,-69,1160,-680,-43,-21
2948,39,-86,1146,-408,43,43
2949,55,-64,1124,-66,154,131
2950,47,-44,1088,178,318,235
2951,30,-19,1045,297,382,313
2952,34,-11,1019,266,285,274
2953,26,21,998,166,230,223
2954,30,15,1016,-19,93,114
2955,22,3,1055,-178,-8,16
2956,18,-21,1079,-226,-18,-15
2957,1,-35,1097,-162,7,-5
2958,3,-47,1110,-92,46,2
2959,27,-46,1095,24,70,16
2960,17,-41,1073,162,93,20
2961,2,-28,1055,260,44,10
2962,-8,-30,1047,332,-100,-52