sequence,AccelerometerX,AccelerometerY,AccelerometerZ,GyroscopeX,GyroscopeY,GyroscopeZ
0,115,-25,1071,72,1,46
1,118,-27,1064,-16,5,-8
2,122,-13,1053,-131,19,-43
3,125,-6,1061,-194,21,-51
4,127,2,1066,-167,5,-34
5,112,-5,1031,-55,-59,11
6,110,-17,1030,85,-75,46
7,101,-13,1028,205,-53,82
8,105,-36,1050,224,0,107
9,106,-44,1038,158,66,95
10,98,-42,1053,39,60,64
11,98,-37,1042,-73,48,5
12,103,-37,1032,-127,41,0
13,106,-29,1035,-102,9,-30
14,123,-26,1031,-49,21,-71
15,119,-26,1039,-55,1,-69
16,126,-6,1050,-32,-57,-51
17,121,-20,1058,25,-98,-16
18,121,-10,1050,64,-124,17
19,121,-17,1036,54,-145,35
20,123,-29,1029,-24,-139,35
21,126,-19,1023,-92,-90,7
22,113,-35,1005,-139,-47,-18
23,121,-44,1004,-94,-18,-26
24,110,-50,1035,3,15,-59
25,111,-43,1060,76,5,-106
26,123,-10,1062,46,-18,-147
27,122,4,1069,-38,-59,-135
28,120,-3,1079,-98,-112,-96
29,134,8,1078,-75,-165,-73
30,127,8,1045,-86,-202,-67
31,120,-11,1049,-84,-233,-22
32,131,-14,1022,-16,-217,-16
33,119,-21,1021,44,-204,-6
34,111,-26,1007,72,-139,-30
35,120,-33,1017,46,-65,-61
36,129,-23,1043,19,-45,-129
37,134,-4,1059,-67,-30,-184
38,137,15,1060,-159,-83,-147
39,137,9,1051,-168,-118,-114
40,145,11,1058,-129,-137,-86
41,142,25,1046,-120,-159,-84
42,130,9,1020,-127,-178,-81
43,136,-3,1042,-55,-200,-63
44,136,-10,1038,42,-180,-34
45,124,-12,1029,76,-190,5
46,139,-17,1025,101,-165,15
47,145,-20,1041,78,-129,-32
48,143,-5,1032,3,-118,-67
49,156,4,1018,-79,-100,-65
50,162,21,1033,-145,-90,-34
51,153,14,1023,-125,-92,-16
52,147,10,1039,-49,-104,25
53,150,8,1051,31,-108,29
54,138,-13,1030,29,-100,48
55,140,-16,1030,-43,-98,48
56,127,-22,1030,-110,-73,17
57,140,-20,1030,-124,-61,3
58,145,-24,1016,-100,-71,-10
59,142,-13,1025,-86,-77,-8
60,151,-2,1019,-98,-79,15
61,149,-14,1024,-61,-75,11
62,147,-8,1032,-14,-47,-4
63,145,-13,1045,-18,-53,7
64,140,-8,1041,-18,-94,11
65,159,1,1032,3,-106,25
66,161,-8,1039,5,-135,48
67,151,-14,1031,31,-155,78
68,141,-21,1021,41,-145,70
69,146,-22,1026,29,-114,44
70,151,-15,1025,-22,-73,29
71,147,-24,1032,-53,-71,48
72,152,-25,1019,-22,-63,25
73,148,-29,1027,1,-53,0
74,152,-26,1048,9,-75,-24
75,164,-14,1051,3,-118,-55
76,171,0,1047,-12,-163,-38
77,169,-1,1036,-26,-213,-24
78,174,-1,1014,-28,-260,3
79,175,5,988,-30,-235,0
80,191,8,994,-145,-204,23
81,192,27,963,-280,-211,54
82,189,28,914,-333,-235,130
83,202,19,847,-293,-295,242
84,199,-2,710,-143,-436,357
85,187,20,591,132,-547,386
86,197,29,478,427,-542,353
87,238,52,365,492,-450,375
88,253,53,287,337,-344,335
89,287,54,173,115,-143,220
90,294,57,93,-151,93,78
91,332,72,-2,-426,384,128
92,374,44,-90,-483,640,236
93,327,54,-128,-149,787,253
94,318,35,-132,417,986,386
95,280,-7,-117,970,1128,542
96,270,-26,-93,1371,1144,626
97,236,-23,-164,1511,1105,658
98,137,-67,-252,1384,1134,693
99,80,-75,-351,1308,1402,583
100,36,-25,-333,1359,1878,357
101,-7,53,-256,1365,2486,283
102,-60,70,-209,1406,2968,451
103,-162,30,-56,1796,3421,623
104,-184,23,236,2273,3845,681
105,-293,48,543,2564,3972,556
106,-371,65,893,2626,4007,335
107,-424,130,1246,2333,4074,48
108,-532,181,1607,1820,4224,-278
109,-546,265,1903,1173,3984,-350
110,-607,219,2048,453,3566,-190
111,-597,122,2048,408,3150,-124
112,-686,99,2041,587,2671,-321
113,-650,117,2048,240,2505,-454
114,-603,149,2048,-174,2523,-551
115,-542,212,2048,-477,2421,-575
116,-503,225,2048,-557,2255,-553
117,-445,301,2048,-368,2000,-581
118,-420,391,2048,-350,1650,-643
119,-382,496,2048,-514,1330,-704
120,-305,641,2048,-862,962,-723
121,-249,799,2048,-1477,394,-565
122,-185,900,2048,-1606,-86,-325
123,-171,1022,1741,-1362,-413,-98
124,-137,1141,1552,-1042,-448,171
125,-64,1274,1457,-629,-192,451
126,-72,1353,1535,-364,46,876
127,-106,1337,1608,-374,230,1400
128,-151,1217,1634,-692,291,2019
129,-199,1004,1611,-1178,130,2527
130,-259,790,1521,-1461,-129,2812
131,-294,657,1445,-1469,-534,2906
132,-317,552,1313,-1307,-885,2949
133,-342,469,1168,-1125,-1118,3013
134,-384,374,1010,-1202,-1112,2972
135,-354,277,836,-1358,-977,3095
136,-385,169,729,-1331,-737,3191
137,-402,54,658,-1231,-422,3298
138,-419,-160,636,-1008,-170,3560
139,-441,-373,661,-581,37,3572
140,-526,-566,741,-176,76,3390
141,-531,-742,821,82,74,3121
142,-462,-779,887,60,210,2716
143,-480,-784,957,-116,72,2363
144,-448,-776,941,-381,-112,2113
145,-425,-747,941,-522,-219,1833
146,-387,-716,887,-678,-231,1664
147,-375,-723,892,-727,-147,1417
148,-345,-657,902,-641,-83,1187
149,-282,-563,928,-540,9,951
150,-260,-474,953,-446,126,761
151,-217,-409,955,-375,218,628
152,-241,-373,959,-260,251,519
153,-211,-310,975,-198,277,425
154,-246,-257,1015,-118,273,347
155,-233,-257,1069,31,283,392
156,-239,-233,1087,173,214,314
157,-251,-209,1103,21,189,261
158,-233,-197,1126,-184,177,257
159,-261,-191,1115,-389,140,203
160,-245,-160,1126,-354,91,89
161,-272,-148,1100,-182,25,44
162,-270,-141,1086,-47,15,-4
163,-253,-133,1066,-77,54,-34
164,-238,-127,1077,-209,109,-83
165,-234,-115,1069,-278,187,-172
166,-211,-107,1055,-299,199,-245
167,-200,-71,1088,-293,199,-305
168,-193,-68,1087,-313,158,-325
169,-190,-57,1070,-262,66,-342
170,-179,-40,1072,-174,27,-366
171,-190,-25,1066,-110,-14,-385
172,-198,-2,1066,-98,-45,-344
173,-189,-15,1063,-125,-38,-295
174,-173,-23,1059,-176,-18,-307
175,-170,-9,1060,-196,-32,-297
176,-146,16,1046,-172,-26,-284
177,-144,44,1047,-106,-16,-280
178,-141,58,1041,-63,-24,-241
179,-157,58,1047,-47,-43,-186
180,-164,39,1045,-14,-51,-178
181,-166,21,1045,-30,-36,-211
182,-166,18,1060,-47,-57,-204
183,-181,32,1037,-42,-73,-200
184,-183,34,1042,5,-75,-170
185,-192,37,1023,56,-65,-149
186,-189,34,1007,27,-49,-133
187,-199,25,998,-45,-61,-131
188,-193,27,994,-100,-65,-125
189,-189,17,994,-143,-53,-120
190,-184,34,1010,-98,-63,-120
191,-191,18,1011,5,-69,-104
192,-188,6,1001,35,-61,-114
193,-194,25,1004,-16,-45,-147
194,-179,27,990,-65,-18,-161
195,-163,42,972,-84,50,-145
196,-181,53,975,-65,115,-110
197,-167,41,997,39,125,-77
198,-172,40,1025,115,109,-73
199,-182,25,1047,93,68,-88
200,-179,20,1043,50,7,-84
201,-182,18,1021,-12,-30,-94
202,-198,13,1018,-65,-61,-86
203,-188,13,1018,-53,-69,-69
204,-194,3,1016,19,-65,-63
205,-199,9,1035,105,-42,-67
206,-188,10,1048,140,-26,-84
207,-187,24,1058,117,-34,-96
208,-184,41,1064,-4,-84,-73
209,-189,35,1042,-143,-104,-43
210,-197,30,985,-194,-106,-30
211,-191,9,978,-135,-69,-12
212,-204,-14,999,-18,-20,-24
213,-204,-27,1009,93,13,-40
214,-203,-20,1038,152,25,-79
215,-198,0,1048,181,9,-106
216,-185,9,1060,140,-28,-110
217,-180,16,1049,56,-53,-88
218,-182,8,1041,-24,-86,-61
219,-187,12,1030,-88,-108,-34
220,-185,-2,1018,-120,-120,3
221,-195,-22,1026,-81,-102,5
222,-196,-25,1036,-32,-69,-22
223,-193,-28,1018,27,-22,-34
224,-194,-21,1030,76,11,-69
225,-179,-4,1061,64,27,-86
226,-176,-2,1063,33,-10,-116
227,-182,-9,1059,19,-61,-114
228,-185,-14,1061,-40,-75,-104
229,-191,-21,1049,-94,-108,-88
230,-193,-29,1039,-104,-143,-94
231,-199,-42,1008,-94,-127,-96
232,-189,-39,1016,-86,-86,-118
233,-187,-27,1001,-61,-63,-155
234,-192,-34,1031,-24,-67,-155
235,-185,-16,1023,21,-79,-151
236,-181,-20,1043,31,-88,-167
237,-184,-29,1056,-51,-102,-165
238,-174,-27,1027,-141,-108,-155
239,-176,-35,1015,-186,-135,-161
240,-190,-33,1011,-118,-141,-170
241,-190,-35,997,-8,-137,-167
242,-196,-33,987,66,-114,-174
243,-181,-18,997,101,-47,-204
244,-164,1,1023,64,0,-229
245,-166,7,1046,11,3,-223
246,-153,15,1049,-2,0,-213
247,-158,16,1044,-40,-30,-200
248,-183,11,1036,-34,-88,-170
249,-174,-11,1018,46,-112,-170
250,-177,-17,1028,115,-110,-170
251,-185,-20,1043,126,-98,-176
252,-196,-27,1035,91,-75,-196
253,-183,-21,1029,15,-36,-208
254,-182,-19,1029,-63,-24,-206
255,-182,-10,1053,-127,-18,-243
256,-174,17,1050,-167,-8,-243
257,-165,6,1037,-198,3,-231
258,-171,13,1046,-131,-2,-198
259,-186,-5,1046,-42,-28,-182
260,-189,-9,1029,76,-32,-182
261,-194,-20,1064,238,-45,-165
262,-191,-31,1058,316,-65,-174
263,-200,-49,1066,269,-65,-198
264,-203,-36,1042,162,-75,-225
265,-179,-19,1070,126,-110,-264
266,-187,3,1056,52,-61,-292
267,-174,9,1052,44,-84,-270
268,-180,10,1075,72,-102,-278
269,-171,17,1099,70,-124,-249
270,-179,-7,1080,136,-143,-211
271,-186,-8,1067,205,-155,-215
272,-187,-20,1065,216,-143,-215
273,-198,-35,1090,205,-100,-252
274,-190,-8,1090,205,-53,-288
275,-180,-14,1099,166,-88,-290
276,-187,4,1085,171,-129,-268
277,-190,10,1077,216,-254,-266
278,-185,-6,1079,162,-196,-264
279,-175,-6,1083,83,-182,-282
280,-173,-5,1078,0,-270,-272
281,-191,-4,1068,-34,-243,-313
282,-171,-12,1065,-2,-213,-321
283,-181,-10,1066,-22,-202,-311
284,-185,-20,1050,-42,-204,-315
285,-185,-22,1046,-12,-190,-303
286,-179,-31,1045,3,-163,-325
287,-188,-20,1054,-26,-192,-333
288,-166,-13,1087,-124,-239,-356
289,-161,16,1053,-84,-239,-368
290,-158,16,1057,-155,-252,-352
291,-159,18,1027,-206,-249,-352
292,-160,18,1016,-200,-239,-323
293,-158,-8,997,-151,-196,-309
294,-161,-14,986,-40,-170,-331
295,-151,-13,1014,46,-84,-348
296,-154,-5,996,54,1,-370
297,-147,5,1024,46,50,-374
298,-148,15,1033,56,99,-399
299,-137,25,1042,31,72,-428
300,-170,17,1050,-30,89,-395
301,-167,13,1042,-53,52,-356
302,-135,37,1041,-88,-26,-315
303,-138,18,1007,-67,-55,-309
304,-151,26,1007,-59,-104,-262
305,-155,2,989,46,-104,-264
306,-146,0,991,148,-71,-231
307,-165,-3,989,130,-79,-282
308,-166,5,1039,83,-63,-319
309,-156,10,1032,103,70,-411
310,-156,16,1056,42,42,-444
311,-145,18,1049,-42,-14,-461
312,-139,32,1039,-61,-88,-405
313,-153,19,1050,-14,-147,-346
314,-154,21,1046,64,-155,-331
315,-155,5,1028,72,-153,-288
316,-157,6,1045,54,-149,-249
317,-173,-10,1047,56,-141,-241
318,-173,-10,1043,70,-124,-241
319,-171,-13,1036,80,-75,-258
320,-167,-12,1065,95,-63,-286
321,-160,-2,1080,123,-125,-321
322,-167,13,1070,130,-206,-323
323,-148,1,1082,105,-245,-319
324,-140,9,1078,80,-288,-315
325,-147,2,1074,33,-346,-315
326,-155,18,1057,21,-364,-311
327,-145,4,1048,19,-311,-280
328,-157,-4,1039,-2,-305,-276
329,-148,-4,1026,15,-286,-274
330,-150,-4,1010,44,-202,-290
331,-153,-12,1027,0,-137,-286
332,-139,10,1021,-14,-73,-331
333,-137,15,1058,-12,-75,-329
334,-140,12,1081,0,-92,-247
335,-105,-17,1052,44,-122,-297
336,-154,-3,1055,62,-280,-321
337,-135,-33,1046,-8,-350,-305
338,-143,-20,1018,-26,-290,-333
339,-144,-33,1013,-88,-252,-366
340,-127,-14,1014,-84,-163,-391
341,-123,-11,1030,-51,-86,-366
342,-132,7,1025,21,-57,-336
343,-118,17,1034,89,-32,-282
344,-124,3,1048,117,-49,-256
345,-139,-22,1039,126,-120,-227
346,-136,-29,1067,183,-178,-225
347,-167,-33,1036,208,-206,-272
348,-124,-51,1035,169,-194,-284
349,-151,-14,1029,85,-243,-413
350,-133,17,1015,21,-231,-434
351,-116,30,1022,1,-194,-405
352,-118,39,1020,33,-170,-377
353,-122,21,1039,58,-159,-340
354,-119,15,1042,105,-129,-313
355,-112,14,1066,95,-112,-329
356,-114,28,1087,74,-108,-317
357,-149,23,1105,23,-118,-293
358,-84,4,1064,-18,-100,-237
359,-140,-11,1055,-49,-233,-292
360,-132,-1,1042,-65,-235,-346
361,-122,-1,1048,-59,-180,-350
362,-124,-6,1044,11,-208,-354
363,-121,-4,1038,70,-258,-368
364,-119,-13,1044,83,-342,-360
365,-122,-17,1056,48,-428,-399
366,-115,-10,1039,128,-336,-436
367,-97,5,1030,156,-221,-448
368,-100,23,1051,101,-200,-471
369,-107,13,1059,52,-227,-438
370,-107,24,1031,64,-235,-401
371,-107,3,1028,64,-237,-381
372,-113,-14,1032,85,-237,-354
373,-117,-26,1049,156,-247,-385
374,-107,-26,1027,177,-254,-418
375,-127,-23,1045,205,-270,-428
376,-109,-17,1041,191,-266,-465
377,-100,3,1036,101,-241,-504
378,-94,3,1027,46,-249,-502
379,-103,1,1025,21,-264,-500
380,-95,8,1014,33,-272,-518
381,-79,4,1031,46,-305,-512
382,-88,5,1038,-4,-297,-510
383,-85,10,1024,-57,-276,-495
384,-62,10,1017,-69,-278,-504
385,-70,10,1020,-45,-327,-471
386,-74,13,1004,1,-340,-463
387,-70,20,995,19,-299,-481
388,-67,15,999,19,-227,-497
389,-75,27,1027,41,-167,-489
390,-86,10,1022,25,-141,-475
391,-75,31,1038,44,-161,-508
392,-62,53,1042,21,-198,-518
393,-63,47,1037,9,-249,-499
394,-73,36,1010,-6,-323,-458
395,-71,39,994,31,-274,-428
396,-62,34,1007,74,-184,-413
397,-64,36,1035,111,-92,-409
398,-62,45,1043,119,3,-374
399,-60,43,1055,74,85,-377
400,-55,49,1080,-6,62,-358
401,-64,41,1073,-51,-30,-370
402,-70,40,1083,-18,-106,-368
403,-71,41,1079,76,-137,-389
404,-50,28,1066,123,-184,-360
405,-93,27,1077,111,-209,-393
406,-78,25,1029,48,-266,-346
407,-64,14,1032,-75,-241,-340
408,-76,16,1024,-129,-167,-403
409,-73,36,992,-167,-131,-430
410,-69,45,995,-215,-34,-399
411,-42,52,1010,-217,87,-383
412,-50,65,1003,-188,95,-333
413,-50,51,1025,-184,-2,-286
414,-55,22,1052,33,56,-254
415,-54,18,1069,283,111,-297
416,-61,10,1079,269,-40,-336
417,-61,-6,1043,101,-102,-356
418,-53,10,1044,-16,-96,-405
419,-62,13,1022,-135,-92,-418
420,-57,33,1012,-208,-67,-409
421,-58,35,1037,-172,-42,-401
422,-52,36,1046,-112,-38,-362
423,-36,41,1076,-61,-38,-301
424,-34,37,1076,46,-104,-266
425,-50,40,1065,138,-190,-256
426,-41,23,1078,126,-200,-250
427,-54,44,1074,97,-172,-266
428,-44,40,1099,58,-172,-288
429,-55,61,1118,83,-188,-293
430,-60,68,1106,52,-303,-268
431,-66,46,1099,19,-393,-196
432,-74,45,1079,-49,-395,-147
433,-70,27,1088,-127,-362,-131
434,-74,26,1083,-147,-352,-131
435,-90,-4,1060,-96,-350,-139
436,-89,-1,1065,-18,-309,-145
437,-95,0,1112,41,-233,-200
438,-76,8,1134,-26,-247,-286
439,-74,25,1139,-192,-309,-340
440,-61,30,1133,-375,-407,-364
441,-72,35,1097,-438,-495,-364
442,-61,46,1077,-436,-543,-323
443,-40,46,1039,-372,-526,-292
444,-52,52,1028,-286,-516,-280
445,-34,49,1038,-178,-465,-198
446,-37,33,1057,-36,-422,-159
447,-42,23,1092,162,-438,-133
448,-51,12,1094,248,-491,-198
449,-47,18,1107,179,-543,-245
450,-41,17,1090,-14,-577,-252
451,-30,32,1062,-184,-641,-256
452,-17,46,1045,-215,-725,-217
453,-23,52,1017,-125,-756,-163
454,-3,54,989,-106,-737,-122
455,-7,59,991,-116,-667,-108
456,-7,58,960,-157,-612,-75
457,19,53,975,-178,-549,-51
458,17,56,971,-147,-495,-47
459,23,63,958,-141,-530,-55
460,48,42,948,-161,-571,-14
461,41,35,906,-172,-625,0
462,38,5,883,-45,-659,54
463,52,15,891,212,-635,76
464,50,8,910,373,-557,66
465,47,12,937,376,-489,115
466,45,0,955,242,-391,54
467,51,-2,969,115,-331,21
468,50,0,970,37,-338,-28
469,69,3,980,-16,-331,-86
470,76,27,991,-92,-338,-127
471,80,36,978,-165,-370,-129
472,84,51,972,-124,-395,-100
473,58,36,968,19,-426,-20
474,65,20,989,197,-428,31
475,62,1,978,238,-424,60
476,48,-11,975,169,-415,58
477,62,-6,969,83,-333,0
478,73,10,980,-28,-262,-36
479,71,2,967,-86,-211,-67
480,76,5,982,-84,-180,-86
481,74,10,963,-81,-157,-108
482,87,15,971,-100,-139,-92
483,86,10,993,-92,-127,-79
484,99,25,1010,-53,-141,-73
485,75,10,1012,-40,-176,-69
486,80,1,997,27,-209,-59
487,72,-5,997,35,-194,-67
488,75,6,1018,21,-206,-45
489,91,-2,1026,7,-170,-55
490,68,15,1005,-57,-153,-32
491,79,0,1005,-63,-145,-51
492,85,-9,1004,-71,-114,-71
493,83,0,1008,-69,-104,-100
494,84,4,997,-98,-106,-106
495,91,-6,998,-124,-106,-110
496,85,-2,1006,-125,-83,-116
497,115,15,1004,-49,-106,-86
498,100,33,993,11,-131,-57
499,99,15,1021,48,-75,-57
500,101,15,1032,52,-6,-30
501,86,17,1028,-4,-51,-30
502,76,1,1022,-8,-84,-12
503,84,-12,1028,-6,-57,-32
504,99,-2,1025,-38,-61,-57
505,101,1,1048,-94,-45,-83
506,102,0,1003,-145,-53,-90
507,88,2,993,-133,-86,-102
508,86,25,1006,-77,-75,-104
509,97,-1,1013,-18,-10,-53
510,91,14,1027,76,-14,-36
511,83,10,1022,52,-32,-43
512,91,15,1024,1,-16,-18
513,87,0,1038,-42,-26,-28
514,86,-4,1058,-32,-18,-61
515,90,15,1039,-59,-6,-47
516,74,-4,1030,-86,-16,-47
517,83,4,1049,-24,3,-43
518,85,-1,1028,41,-8,-42
519,68,-3,1028,66,-45,-28
520,79,-9,1038,70,-34,-12
521,75,4,1041,44,-38,-36
522,87,2,1024,-30,-24,-55
523,87,20,1016,-71,9,-59
524,80,9,1037,-67,19,-36
525,79,9,1021,-38,25,-18
526,74,12,1024,7,15,0
527,71,-3,1039,11,21,13
528,69,-8,1041,33,15,3
529,60,-20,1027,15,1,-14
530,69,-25,1039,1,1,-22
531,82,-11,1036,-26,13,-65
532,83,0,1044,-63,25,-88
533,74,6,1055,-92,25,-104
534,75,4,1044,-81,25,-83
535,85,2,1044,-26,23,-51
536,72,-15,1040,-2,-10,-24
537,69,0,1038,44,3,-32
538,78,4,1036,29,17,-28
539,86,13,1056,33,9,-6
540,68,20,1060,44,5,-8
541,66,25,1064,62,-12,15
542,59,-1,1048,44,-38,-6
543,57,0,1064,9,-61,-16
544,74,4,1045,-65,-59,-51
545,82,14,1033,-170,-22,-98
546,76,4,1028,-163,-38,-73
547,81,21,1034,-67,-22,-84
548,76,9,1034,-14,-2,-51
549,81,16,1028,42,0,-24
550,79,8,1046,27,-14,0
551,71,2,1052,21,-34,15
552,68,-3,1049,31,-63,5
553,70,5,1053,-14,-71,-18
554,64,4,1027,-92,-61,-45
555,75,9,1051,-83,-57,-42
556,82,6,1053,11,-57,-43
557,70,16,1058,42,-83,-26
558,75,4,1042,19,-83,0
559,82,11,1035,-40,-77,-28
560,84,-1,1022,-137,-90,-36
561,90,1,1003,-149,-42,-55
562,84,0,1005,-77,-14,-36
563,83,-1,1027,21,0,11
564,85,6,1066,68,42,-10
565,77,15,1066,44,0,-10
566,80,-1,1066,31,-77,-26
567,78,0,1059,31,-104,-32
568,79,-4,1056,35,-124,-30
569,78,9,1050,13,-141,-28
570,78,13,1031,-4,-133,-43
571,78,14,1039,21,-122,-18
572,87,15,1050,83,-131,27
573,85,23,1032,111,-145,42
574,98,22,1035,166,-170,72
575,99,27,1041,230,-180,87
576,111,33,1046,316,-290,150
577,118,6,1017,369,-418,167
578,133,3,975,330,-491,125
579,168,18,903,162,-573,11
580,193,51,810,-100,-633,-79
581,204,119,692,-307,-657,-122
582,233,179,495,-500,-674,-110
583,221,236,284,-555,-616,121
584,329,243,68,-399,-405,250
585,274,247,-54,-127,-375,214
586,315,229,-163,-10,-157,392
587,344,245,-284,58,253,464
588,349,228,-349,-22,617,537
589,334,169,-434,-200,828,689
590,274,104,-548,-22,921,847
591,214,2,-627,646,1015,1101
592,157,-119,-603,1703,1167,1111
593,89,-132,-509,2505,1488,853
594,-34,-117,-386,2613,2007,457
595,-144,-116,-211,2025,2615,378
596,-200,-69,-43,1519,3167,257
597,-330,-55,157,1216,3443,117
598,-404,-34,329,1240,3464,171
599,-473,-11,555,1500,3498,232
600,-557,123,817,1625,3796,17
601,-679,136,1051,1421,4218,-16
602,-693,47,1247,1076,4638,292
603,-718,-44,1383,908,4871,78
604,-696,-36,1640,892,4689,-245
605,-645,136,1882,873,4775,-670
606,-622,275,2048,708,4830,-698
607,-609,348,2048,519,4568,-631
608,-673,373,2048,171,3857,-553
609,-780,253,2048,-137,3021,-401
610,-783,123,2048,-426,2500,-381
611,-813,49,2048,-696,2248,-440
612,-749,2,2008,-889,2152,-530
613,-695,54,2017,-676,2166,-692
614,-644,149,2048,-354,2082,-792
615,-584,214,2048,-141,1906,-709
616,-544,261,2048,-174,1611,-588
617,-496,323,2048,-391,1134,-481
618,-484,351,2048,-727,591,-344
619,-468,440,2046,-821,152,-286
620,-450,513,1966,-825,-133,-131
621,-418,602,1939,-815,-370,-30
622,-368,668,1872,-907,-502,46
623,-287,762,1764,-1204,-678,152
624,-239,863,1694,-1487,-883,177
625,-182,929,1540,-1584,-901,296
626,-196,1013,1412,-1719,-1133,498
627,-170,1057,1258,-1747,-1249,853
628,-140,1035,1094,-1631,-1346,1246
629,-197,978,954,-1364,-1403,1552
630,-208,908,855,-1127,-1319,1955
631,-212,807,788,-1022,-1157,2333
632,-195,713,720,-1098,-1002,2556
633,-262,642,706,-1235,-1020,2640
634,-305,565,714,-1407,-985,2705
635,-271,499,686,-1661,-815,2816
636,-336,446,699,-1749,-887,2878
637,-371,333,656,-1694,-1018,3050
638,-403,227,583,-1442,-1038,3183
639,-474,102,567,-1145,-963,3304
640,-478,-53,567,-963,-721,3392
641,-479,-155,642,-901,-477,3339
642,-469,-230,683,-1084,-264,3277
643,-423,-262,725,-1167,-143,3181
644,-472,-344,782,-1049,-292,3044
645,-488,-383,860,-784,-465,2792
646,-535,-418,888,-622,-690,2611
647,-560,-500,842,-600,-809,2550
648,-595,-595,835,-661,-747,2525
649,-583,-695,798,-610,-487,2482
650,-574,-779,827,-358,-153,2341
651,-538,-821,897,-112,234,2128
652,-557,-837,1044,66,523,1882
653,-476,-827,1094,-135,707,1578
654,-448,-739,1156,-401,562,1140
655,-429,-660,1177,-633,277,833
656,-417,-629,1132,-782,21,626
657,-428,-549,1089,-801,-155,386
658,-410,-502,1040,-725,-372,328
659,-378,-496,1022,-538,-411,283
660,-375,-447,1001,-198,-180,197
661,-365,-460,1024,-147,-42,109
662,-356,-457,1045,-182,113,-6
663,-323,-408,1082,-249,187,-170
664,-303,-368,1114,-286,132,-321
665,-290,-296,1109,-280,-12,-405
666,-290,-237,1098,-252,-155,-485
667,-276,-186,1085,-266,-217,-502
668,-274,-166,1050,-323,-215,-502
669,-269,-157,1037,-358,-176,-510
670,-252,-126,1009,-368,-163,-497
671,-254,-113,999,-262,-141,-524
672,-261,-115,985,-79,-102,-530
673,-229,-107,987,113,-55,-553
674,-216,-71,1021,177,-36,-622
675,-210,-46,1030,64,-71,-631
676,-209,-10,1021,-90,-77,-655
677,-208,-2,994,-194,-88,-581
678,-203,-10,987,-229,-110,-497
679,-204,7,952,-131,-98,-475
680,-201,6,958,23,-61,-399
681,-198,5,971,130,21,-391
682,-211,-2,968,140,46,-372
683,-229,-2,973,140,60,-393
684,-225,-11,983,121,119,-385
685,-221,-28,995,46,130,-375
686,-229,-21,1006,-71,101,-370
687,-223,-29,990,-163,87,-356
688,-222,-16,1007,-149,72,-385
689,-224,13,995,-102,27,-374
690,-224,17,979,-24,9,-309
691,-206,-2,969,101,-4,-309
692,-221,17,988,166,-10,-293
693,-207,12,999,167,29,-258
694,-212,18,1008,158,56,-241
695,-223,10,1012,99,52,-249
696,-235,-14,995,68,39,-184
697,-247,-34,1007,121,54,-182
698,-256,-24,1004,162,95,-192
699,-256,-44,1034,189,107,-178
700,-253,-20,1039,218,97,-204
701,-252,-14,1063,222,85,-213
702,-253,-13,1076,146,58,-213
703,-245,-3,1060,13,29,-196
704,-238,-11,1073,-84,-20,-204
705,-239,-9,1046,-137,-57,-176
706,-249,-32,1004,-104,-86,-159
707,-263,-43,1008,9,-94,-145
708,-267,-53,996,78,-36,-131
709,-268,-78,997,99,15,-133
710,-274,-79,1034,109,48,-182
711,-261,-64,1059,111,68,-217
712,-249,-50,1058,42,48,-219
713,-233,-45,1056,-28,-6,-223
714,-239,-33,1059,-45,-69,-225
715,-241,-24,1043,-28,-127,-200
716,-257,-64,1019,-14,-159,-151
717,-253,-75,1011,5,-176,-141
718,-290,-105,1027,115,-94,-184
719,-260,-96,1023,189,50,-217
720,-262,-101,1060,46,87,-266
721,-264,-74,1067,-40,123,-299
722,-248,-66,1061,-120,132,-293
723,-248,-55,1063,-110,62,-286
724,-253,-52,1058,-40,-12,-274
725,-251,-61,1034,0,-38,-221
726,-261,-76,1036,29,-36,-198
727,-268,-96,1031,58,5,-213
728,-272,-97,1036,107,99,-241
729,-233,-87,1021,189,80,-260
730,-301,-102,1056,306,3,-284
731,-270,-91,1108,343,125,-403
732,-253,-76,1120,349,171,-438
733,-269,-67,1119,169,-14,-467
734,-255,-41,1122,-16,-116,-432
735,-240,-33,1063,-114,-213,-426
736,-233,-38,1038,-127,-325,-403
737,-255,-51,997,-30,-350,-418
738,-253,-53,993,144,-311,-413
739,-248,-77,1017,230,-249,-405
740,-249,-67,1025,230,-188,-415
741,-259,-53,1077,160,-149,-438
742,-237,-59,1073,70,-127,-461
743,-227,-33,1085,21,-147,-454
744,-227,-38,1093,-67,-231,-461
745,-226,-24,1048,-145,-344,-461
746,-242,-47,1022,-88,-399,-434
747,-248,-62,1006,-6,-383,-403
748,-244,-92,980,25,-346,-409
749,-238,-82,993,-36,-270,-463
750,-230,-65,1000,-59,-182,-493
751,-215,-44,1026,-22,-143,-485
752,-213,-37,1022,70,-174,-465
753,-210,-24,1048,132,-247,-452
754,-196,-26,1030,101,-319,-424
755,-211,-19,1013,-10,-360,-407
756,-211,-33,999,-135,-364,-395
757,-209,-32,972,-106,-323,-377
758,-213,-44,972,41,-290,-364
759,-219,-46,994,175,-254,-381
760,-215,-57,1023,281,-198,-395
761,-220,-56,1046,248,-178,-418
762,-220,-43,1065,126,-202,-461
763,-200,-32,1081,19,-215,-500
764,-201,-13,1067,-20,-276,-495
765,-196,-1,1069,-34,-338,-471
766,-199,-1,1031,-34,-377,-409
767,-214,-10,1028,48,-393,-358
768,-214,-29,1041,123,-387,-327
769,-212,-51,1036,130,-319,-307
770,-197,-49,1040,97,-286,-313
771,-212,-60,1042,107,-270,-329
772,-204,-58,1058,134,-231,-358
773,-217,-52,1073,136,-223,-375
774,-215,-42,1093,95,-252,-372
775,-202,-37,1084,29,-278,-397
776,-203,-37,1078,-38,-340,-407
777,-197,-34,1053,-114,-407,-393
778,-192,-37,1050,-124,-411,-407
779,-182,-36,1025,-110,-415,-397
780,-166,-24,1033,-55,-444,-387
781,-186,-28,1006,44,-413,-393
782,-197,-44,1004,109,-354,-344
783,-171,-43,1021,158,-264,-352
784,-180,-57,1040,130,-223,-374
785,-182,-52,1046,111,-209,-370
786,-160,-38,1063,117,-172,-368
787,-162,-31,1080,97,-178,-364
788,-163,-25,1080,70,-237,-350
789,-173,-18,1071,50,-331,-325
790,-179,-45,1065,-4,-377,-295
791,-178,-67,1039,-42,-358,-282
792,-176,-58,1055,-49,-333,-334
793,-170,-61,1016,-32,-303,-366
794,-171,-59,1012,11,-299,-366
795,-167,-52,1017,74,-252,-354
796,-173,-57,1045,173,-172,-338
797,-168,-51,1062,265,-90,-342
798,-160,-48,1067,341,-30,-354
799,-163,-61,1079,363,-69,-358
800,-164,-52,1113,302,-147,-368
801,-140,-49,1084,218,-208,-403
802,-183,-42,1071,97,-399,-393
803,-158,-51,1053,29,-438,-391
804,-144,-43,1041,95,-381,-417
805,-162,-55,1063,105,-374,-434
806,-162,-40,1047,111,-370,-434
807,-163,-43,1067,169,-309,-442
808,-151,-44,1087,187,-293,-428
809,-154,-51,1092,162,-356,-417
810,-169,-43,1093,80,-401,-360
811,-123,-62,1076,11,-385,-375
812,-142,-46,1067,13,-504,-403
813,-139,-61,1060,9,-600,-479
814,-153,-62,1055,56,-588,-477
815,-136,-50,1052,46,-551,-508
816,-146,-40,1038,-18,-545,-502
817,-142,-56,1024,-28,-530,-522
818,-140,-50,1042,46,-465,-534
819,-121,-46,1054,97,-440,-526
820,-125,-62,1069,134,-463,-524
821,-132,-50,1072,123,-473,-542
822,-114,-55,1072,97,-506,-520
823,-132,-37,1078,54,-500,-506
824,-82,-49,1043,-18,-514,-518
825,-121,-47,1057,58,-670,-510
826,-109,-30,1046,109,-639,-534
827,-123,-31,1027,107,-649,-502
828,-109,-40,1008,62,-622,-540
829,-110,-53,1020,83,-549,-532
830,-104,-48,1016,107,-432,-547
831,-96,-18,1041,119,-333,-579
832,-84,-21,1059,128,-299,-559
833,-73,-26,1081,126,-364,-538
834,-74,-19,1089,89,-456,-497
835,-73,-10,1070,62,-594,-465
836,-66,-17,1067,31,-706,-452
837,-73,-45,1046,31,-723,-459
838,-74,-47,1017,50,-715,-485
839,-71,-43,1016,50,-694,-483
840,-65,-47,999,83,-614,-504
841,-59,-35,1010,72,-551,-540
842,-46,-17,1025,76,-473,-532
843,-38,-8,1053,64,-454,-518
844,-31,-16,1050,46,-514,-510
845,-37,-8,1060,9,-579,-514
846,-30,-18,1055,-30,-612,-510
847,-25,-31,1043,-38,-663,-518
848,-31,-34,1025,11,-729,-522
849,-25,-31,1025,76,-745,-520
850,-17,-32,1028,107,-690,-545
851,-23,-25,1034,101,-670,-561
852,-18,-13,1017,85,-649,-542
853,-18,-4,1003,113,-571,-563
854,-13,0,1004,150,-471,-534
855,-5,9,1036,169,-372,-495
856,6,4,1027,201,-342,-475
857,7,16,1058,234,-409,-481
858,-13,3,1060,234,-452,-465
859,12,-9,1067,169,-504,-463
860,20,-1,1039,9,-584,-481
861,42,-11,1035,-137,-645,-516
862,16,4,1002,-202,-659,-512
863,63,-10,968,-120,-635,-532
864,21,24,966,-10,-647,-542
865,33,52,977,19,-553,-485
866,42,58,965,64,-397,-428
867,43,59,973,166,-329,-407
868,51,51,1001,199,-250,-417
869,64,49,1031,152,-264,-395
870,60,41,1037,19,-366,-434
871,61,44,1038,-124,-444,-444
872,47,39,1024,-159,-477,-413
873,67,34,1000,-104,-405,-368
874,91,47,993,-170,-442,-350
875,61,58,981,-127,-495,-331
876,74,50,988,-83,-411,-315
877,57,43,978,7,-329,-235
878,52,25,977,134,-278,-192
879,58,32,1025,281,-241,-170
880,66,36,1034,273,-256,-127
881,63,17,1048,199,-334,-100
882,68,27,1033,132,-348,-190
883,54,21,1019,29,-354,-258
884,61,10,1029,-24,-379,-254
885,71,27,1015,-75,-422,-282
886,88,42,981,-92,-422,-288
887,80,48,982,-57,-420,-270
888,90,38,994,-16,-418,-204
889,90,46,983,29,-409,-139
890,89,30,981,113,-401,-122
891,92,5,978,171,-407,-100
892,83,4,987,230,-391,-147
893,92,19,1006,240,-360,-247
894,103,15,1019,183,-354,-278
895,108,26,1028,44,-387,-270
896,118,42,992,-77,-438,-260
897,109,35,971,-167,-469,-206
898,112,21,937,-163,-428,-143
899,99,-5,921,-125,-333,-114
900,101,-8,948,-43,-225,-145
901,104,1,981,11,-118,-198
902,101,-6,985,-2,-77,-209
903,120,5,1001,-6,-63,-243
904,122,9,1006,-98,-116,-290
905,125,33,1009,-143,-186,-282
906,123,29,1014,-143,-250,-233
907,126,29,1002,-94,-303,-180
908,118,34,988,-53,-329,-163
909,131,8,964,-65,-333,-131
910,118,-7,944,-94,-292,-135
911,131,10,934,-73,-192,-182
912,135,8,929,-137,-86,-217
913,132,14,935,-206,-2,-211
914,134,19,954,-161,72,-235
915,145,22,957,-92,85,-221
916,159,25,963,-8,62,-211
917,141,41,979,31,48,-176
918,148,35,993,31,29,-102
919,148,32,994,37,0,-59
920,132,22,1006,41,-20,-47
921,122,-2,1005,66,-49,-45
922,126,-1,995,54,-38,-65
923,111,-8,989,41,-14,-40
924,105,-10,1019,103,64,-79
925,106,-10,1024,31,125,-125
926,122,0,1029,1,164,-141
927,134,5,1052,-43,156,-188
928,124,10,1045,-108,76,-186
929,114,9,1030,-145,21,-168
930,132,20,1016,-110,5,-122
931,120,17,1043,-16,-51,-61
932,107,-10,1024,109,-79,-49
933,105,-4,1042,175,-65,-49
934,102,-8,1022,101,-12,-65
935,120,-12,1031,-30,19,-83
936,125,-3,1007,-88,48,-124
937,121,14,1019,-118,58,-129
938,108,3,1006,-71,101,-94
939,115,-2,1036,0,138,-73
940,106,-11,1052,78,82,-53
941,108,-14,1086,125,17,-63
942,91,-15,1057,111,-8,-75
943,102,-31,1059,46,-57,-84
944,105,-6,1039,-14,-51,-143
945,106,12,1047,-77,-47,-145
946,122,15,1038,-83,-61,-120
947,111,4,1031,-32,-26,-131
948,110,15,1038,15,5,-100
949,110,-5,1022,-18,21,-94
950,100,-5,1026,-24,62,-108
951,105,-5,1028,-18,80,-118
952,102,-6,1067,1,56,-108
953,105,0,1063,0,25,-114
954,102,7,1053,-71,-20,-98
955,108,12,1046,-90,-65,-94
956,100,14,1002,-86,-104,-61
957,99,13,1004,-57,-84,-34
958,105,-3,999,9,-18,-55
959,102,-2,1013,39,35,-75
960,108,-11,1030,15,74,-90
961,100,6,1026,0,82,-88
962,107,23,1073,27,60,-96
963,114,13,1060,11,21,-65
964,106,15,1057,15,-16,-57
965,113,25,1060,9,-45,-42
966,112,24,1033,-12,-69,-40
967,96,23,1048,-12,-69,-36
968,98,18,1038,-4,-18,-45
969,98,18,1043,1,-28,-36
970,104,11,1039,-2,-61,-49
971,101,11,1029,3,-102,-57
972,95,3,1022,15,-102,-53
973,108,18,1039,54,-59,-53
974,108,17,1022,70,-28,-42
975,114,17,1038,31,-4,-43
976,117,26,1030,-34,-34,-12
977,114,32,1031,-43,-22,-4
978,101,16,1046,-18,11,21
979,115,22,1046,9,-22,44
980,89,6,1067,27,-57,35
981,86,-7,1058,1,-88,21
982,91,-7,1038,13,-112,-6
983,96,2,1038,-30,-124,-34
984,93,-13,1030,-40,-98,-36
985,93,-3,1042,-26,-38,-43
986,110,-12,1040,-36,-2,-36
987,106,4,1048,-40,-16,-38
988,103,1,1045,-4,-47,-16
989,108,-17,1055,33,-55,7
990,111,-13,1080,50,-100,0
991,101,-12,1083,23,-163,-10
992,100,-16,1070,-43,-174,-32
993,100,-17,1072,-137,-170,-84
994,102,3,1079,-200,-139,-141
995,116,20,1042,-209,-151,-131
996,131,29,1048,-98,-180,-100
997,128,41,1050,93,-178,-65
998,137,36,1050,248,-200,-12
999,135,36,1044,273,-223,21
1000,144,57,1024,187,-229,7
1001,153,63,1003,33,-268,21
1002,155,64,976,-2,-313,46
1003,151,60,937,41,-368,128
1004,133,11,882,109,-430,164
1005,143,4,845,183,-438,150
1006,158,7,809,83,-424,109
1007,178,40,736,-104,-420,58
1008,197,98,637,-313,-448,-38
1009,236,151,514,-436,-465,-38
1010,266,210,311,-508,-538,13
1011,306,226,88,-639,-590,107
1012,342,297,-155,-668,-493,326
1013,367,231,-359,-469,-407,572
1014,278,174,-551,-40,-319,908
1015,189,210,-529,751,-12,1251
1016,147,-109,-829,1765,439,1312
1017,47,-208,-760,2812,1031,1150
1018,-19,-314,-677,3253,1484,890
1019,-41,-334,-509,3349,1933,371
1020,-87,-206,-306,2941,2390,-305
1021,-146,-34,-89,2066,2847,-631
1022,-170,97,56,1224,3298,-686
1023,-153,233,168,947,3527,-495
1024,-218,298,365,1199,3763,-317
1025,-314,243,556,1712,3851,99
1026,-428,56,723,2259,3798,236
1027,-507,14,895,2623,3748,-225
1028,-592,48,1129,2136,3933,-719
1029,-601,136,1370,1281,4144,-831
1030,-580,235,1596,705,4306,-950
1031,-536,331,1808,515,4220,-979
1032,-609,506,2000,425,4193,-877
1033,-414,457,2048,361,4283,-442
1034,-479,472,2048,519,3847,-383
1035,-574,411,2048,361,3144,-374
1036,-631,326,2048,-194,2537,-268
1037,-634,223,2048,-756,2361,-266
1038,-645,208,2048,-1319,2304,-327
1039,-611,171,2048,-1510,2152,-313
1040,-593,164,2048,-1262,1951,-348
1041,-599,133,2048,-715,1542,-446
1042,-567,190,2048,-327,1148,-532
1043,-526,254,2048,-334,785,-534
1044,-478,295,2048,-530,380,-518
1045,-419,400,2048,-819,-241,-532
1046,-346,491,1921,-1188,-694,-469
1047,-258,595,1756,-1438,-1020,-385
1048,-208,680,1565,-1508,-1229,-336
1049,-166,760,1426,-1450,-1194,-223
1050,-101,842,1326,-1352,-1000,-75
1051,-80,933,1289,-1282,-895,140
1052,-84,952,1208,-1383,-885,486
1053,-52,939,1167,-1469,-752,896
1054,-35,916,1169,-1473,-825,1218
1055,-35,863,1097,-1430,-1092,1392
1056,-111,849,1034,-1389,-1305,1548
1057,-134,810,985,-1413,-1311,1828
1058,-132,734,927,-1500,-1229,2123
1059,-187,675,912,-1510,-1229,2361
1060,-248,609,854,-1530,-1204,2517
1061,-284,523,853,-1614,-1020,2765
1062,-303,389,860,-1846,-766,3037
1063,-343,296,890,-2038,-674,3087
1064,-333,183,904,-2067,-848,3089
1065,-357,121,893,-1905,-1049,3056
1066,-411,5,884,-1774,-1194,3072
1067,-370,-101,864,-1651,-1165,3048
1068,-367,-148,835,-1458,-1254,2873
1069,-347,-204,828,-1409,-1364,2769
1070,-450,-247,792,-1145,-1292,2775
1071,-449,-315,787,-1108,-1084,2812
1072,-394,-380,758,-1104,-668,2851
1073,-381,-433,764,-1004,-473,2705
1074,-384,-445,835,-766,-377,2562
1075,-374,-478,921,-469,-219,2480
1076,-357,-490,960,-344,-157,2402
1077,-339,-484,991,-327,-84,2316
1078,-330,-494,1014,-307,-139,2228
1079,-324,-486,1031,-321,-180,2125
1080,-297,-484,1042,-311,-270,1902
1081,-287,-433,1041,-231,-411,1621
1082,-313,-429,1010,-165,-512,1441
1083,-338,-448,960,-65,-448,1375
1084,-321,-446,991,-73,-161,1349
1085,-300,-498,1008,-157,123,1398
1086,-317,-529,1030,-233,326,1363
1087,-310,-562,1067,-139,414,1253
1088,-330,-589,1069,46,361,1083
1089,-305,-577,1135,132,236,783
1090,-290,-508,1146,80,95,429
1091,-268,-459,1142,19,-55,214
1092,-255,-407,1132,-2,-178,117
1093,-233,-364,1082,-77,-241,35
1094,-218,-339,1047,-180,-249,-8
1095,-204,-326,991,-323,-217,-55
1096,-188,-301,973,-403,-116,-90
1097,-180,-273,945,-348,-2,-163
1098,-155,-235,967,-83,41,-231
1099,-136,-181,1020,210,76,-293
1100,-130,-159,1039,404,80,-295
1101,-129,-141,1070,435,29,-272
1102,-133,-129,1052,302,-71,-309
1103,-141,-113,1023,58,-133,-321
1104,-127,-106,997,-84,-133,-315
1105,-138,-107,974,-172,-124,-295
1106,-128,-67,960,-180,-106,-286
1107,-133,-60,959,-127,-34,-262
1108,-144,-60,937,13,78,-233
1109,-155,-64,951,50,185,-243
1110,-152,-70,993,9,275,-247
1111,-137,-51,1020,21,304,-307
1112,-145,-48,1024,33,218,-368
1113,-142,-39,1056,68,128,-354
1114,-158,-49,1044,72,35,-295
1115,-146,-52,1018,111,-73,-280
1116,-169,-59,1006,193,-131,-297
1117,-170,-58,988,261,-73,-276
1118,-164,-54,974,236,31,-262
1119,-156,-53,985,160,177,-268
1120,-156,-28,1026,87,306,-252
1121,-141,-34,1066,52,347,-204
1122,-159,-41,1076,25,332,-165
1123,-165,-59,1082,-83,197,-151
1124,-164,-76,1069,-106,105,-172
1125,-167,-83,1067,-63,29,-211
1126,-171,-98,1046,0,-36,-237
1127,-175,-93,1016,62,-63,-272
1128,-163,-69,1021,136,-4,-299
1129,-174,-70,1017,185,85,-299
1130,-167,-50,1042,222,193,-297
1131,-138,-12,1080,250,236,-292
1132,-157,-40,1094,210,199,-213
1133,-186,-43,1104,142,136,-165
1134,-175,-63,1083,103,60,-182
1135,-183,-76,1069,66,-22,-235
1136,-179,-81,1056,27,-38,-297
1137,-194,-92,1055,74,-45,-325
1138,-202,-90,1036,179,-28,-348
1139,-188,-82,1041,220,50,-377
1140,-194,-86,1022,257,119,-389
1141,-189,-74,1043,279,193,-389
1142,-179,-69,1060,261,289,-352
1143,-172,-58,1087,236,314,-358
1144,-175,-67,1121,171,271,-389
1145,-166,-44,1132,70,140,-383
1146,-179,-62,1106,-2,-16,-399
1147,-183,-65,1079,-8,-112,-387
1148,-196,-74,1059,-8,-127,-370
1149,-209,-93,1021,-16,-26,-387
1150,-208,-104,1021,9,128,-383
1151,-204,-85,1063,82,267,-428
1152,-198,-88,1089,162,361,-454
1153,-190,-71,1118,218,371,-456
1154,-174,-77,1128,193,279,-459
1155,-173,-70,1139,103,85,-506
1156,-185,-49,1127,13,-104,-545
1157,-185,-46,1079,-36,-247,-518
1158,-191,-63,1036,-26,-268,-491
1159,-199,-75,999,44,-176,-493
1160,-190,-77,1001,148,-53,-528
1161,-175,-67,1009,304,78,-596
1162,-186,-57,1032,451,160,-690
1163,-186,-40,1058,455,218,-760
1164,-173,-25,1090,365,210,-758
1165,-165,-16,1091,240,97,-725
1166,-169,-12,1091,128,-55,-709
1167,-181,-25,1084,64,-208,-647
1168,-187,-41,1063,46,-286,-602
1169,-185,-28,1059,-4,-245,-614
1170,-191,-48,1035,-69,-204,-598
1171,-187,-31,1034,-59,-165,-579
1172,-193,-46,1022,-2,-102,-553
1173,-197,-52,1032,85,-53,-579
1174,-200,-41,1052,187,-28,-627
1175,-191,-26,1090,269,-63,-649
1176,-182,-2,1103,294,-141,-629
1177,-187,-14,1112,259,-258,-583
1178,-184,-21,1119,238,-354,-571
1179,-177,-19,1088,138,-452,-538
1180,-178,-19,1056,64,-510,-522
1181,-194,-41,1063,76,-530,-538
1182,-196,-35,1021,101,-430,-555
1183,-182,-37,1020,74,-325,-579
1184,-189,-29,1042,50,-223,-569
1185,-174,-13,1055,107,-178,-565
1186,-171,-17,1073,175,-200,-542
1187,-159,-20,1061,212,-250,-528
1188,-159,-16,1070,199,-325,-545
1189,-155,-14,1076,179,-383,-565
1190,-145,-13,1064,140,-471,-540
1191,-155,-11,1031,156,-524,-526
1192,-163,-23,1037,175,-512,-512
1193,-157,-32,1021,193,-454,-508
1194,-150,-6,1003,205,-407,-543
1195,-142,-7,1031,205,-348,-547
1196,-157,-11,1035,265,-292,-542
1197,-137,-1,1071,302,-286,-532
1198,-132,-4,1100,298,-372,-526
1199,-133,2,1080,208,-479,-524
1200,-118,-4,1079,183,-624,-557
1201,-149,-7,1029,187,-723,-524
1202,-144,-16,1009,240,-657,-524
1203,-135,-15,1016,222,-583,-526
1204,-134,-8,996,191,-471,-563
1205,-120,4,1010,138,-422,-575
1206,-116,15,997,175,-385,-577
1207,-112,23,1007,197,-350,-549
1208,-98,16,1020,251,-331,-497
1209,-93,0,1035,283,-356,-504
1210,-105,21,1037,248,-383,-512
1211,-105,16,1047,158,-405,-487
1212,-86,7,1038,72,-409,-491
1213,-100,4,1015,-47,-415,-522
1214,-97,3,998,-153,-413,-508
1215,-92,-3,973,-163,-350,-510
1216,-110,-12,975,-161,-266,-489
1217,-95,2,988,50,-182,-459
1218,-105,-3,1018,130,-145,-424
1219,-103,-4,1050,281,-124,-399
1220,-91,-5,1063,359,-157,-385
1221,-82,-8,1099,273,-280,-454
1222,-85,-8,1083,136,-417,-502
1223,-84,0,1064,13,-497,-577
1224,-81,20,1034,-22,-530,-592
1225,-87,23,1023,-2,-538,-606
1226,-98,21,1001,41,-489,-575
1227,-84,14,996,85,-417,-526
1228,-96,15,1002,130,-374,-491
1229,-74,12,1027,251,-344,-489
1230,-79,-4,1063,367,-348,-522
1231,-77,-8,1074,423,-387,-565
1232,-78,2,1086,359,-456,-606
1233,-68,22,1104,191,-545,-645
1234,-71,20,1062,-6,-657,-629
1235,-65,26,1026,-149,-680,-627
1236,-61,32,981,-229,-627,-627
1237,-59,37,972,-231,-567,-594
1238,-50,27,969,-135,-444,-567
1239,-38,17,997,-34,-364,-542
1240,-43,14,1014,44,-352,-540
1241,-35,21,1044,89,-317,-588
1242,-35,24,1053,11,-348,-647
1243,-22,35,1058,-75,-432,-663
1244,-20,27,1050,-163,-514,-655
1245,-20,54,1036,-170,-557,-659
1246,-13,52,1014,-77,-618,-610
1247,-11,48,987,126,-678,-528
1248,-10,46,978,363,-661,-481
1249,-10,48,999,419,-565,-428
1250,0,40,987,330,-467,-463
1251,-6,61,1033,205,-379,-512
1252,15,62,1038,0,-319,-553
1253,18,69,1020,-159,-358,-573
1254,6,66,1006,-206,-434,-577
1255,18,69,995,-139,-514,-526
1256,18,64,1013,25,-547,-436
1257,7,45,980,123,-561,-393
1258,11,33,986,169,-512,-389
1259,8,35,977,156,-409,-366
1260,25,37,996,115,-336,-389
1261,21,39,997,31,-221,-393
1262,29,50,1038,27,-124,-401
1263,36,53,1056,0,-159,-399
1264,41,66,1073,-24,-249,-399
1265,38,62,1089,-79,-342,-387
1266,29,53,1049,-114,-448,-340
1267,28,52,1020,-43,-504,-282
1268,20,40,1020,58,-491,-260
1269,15,12,997,222,-424,-249
1270,29,2,1032,273,-358,-274
1271,10,-1,1048,212,-286,-321
1272,20,9,1044,160,-196,-375
1273,32,21,1071,35,-192,-385
1274,35,47,1078,-67,-241,-391
1275,34,42,1066,-112,-350,-368
1276,23,33,1056,-84,-432,-325
1277,13,33,1043,13,-471,-288
1278,24,22,1045,105,-510,-286
1279,11,-1,1039,158,-504,-305
1280,21,-13,1034,126,-452,-338
1281,17,-6,1053,41,-434,-391
1282,32,3,1050,-42,-407,-469
1283,44,37,1042,-96,-381,-487
1284,67,55,1056,-112,-385,-467
1285,60,47,1036,-59,-418,-424
1286,71,52,1043,5,-475,-387
1287,70,41,1031,62,-534,-358
1288,69,26,1039,89,-579,-364
1289,56,21,1031,97,-577,-374
1290,65,16,1006,107,-540,-364
1291,75,19,1029,35,-465,-401
1292,77,41,1021,-43,-411,-438
1293,76,40,1010,-106,-360,-444
1294,76,48,1034,-135,-309,-399
1295,108,56,1020,-143,-276,-375
1296,108,54,1033,-211,-327,-354
1297,101,57,1003,-254,-354,-325
1298,112,63,989,-247,-368,-323
1299,112,71,1003,-153,-387,-307
1300,102,60,994,-20,-385,-286
1301,108,48,1001,-2,-372,-288
1302,108,64,988,-36,-327,-290
1303,120,66,988,-102,-303,-280
1304,119,71,991,-124,-252,-268
1305,123,75,1005,-135,-204,-211
1306,117,54,1015,-88,-176,-176
1307,112,64,1016,-73,-178,-196
1308,109,58,1030,-149,-200,-204
1309,111,51,996,-254,-204,-198
1310,117,45,982,-278,-231,-206
1311,114,37,989,-229,-229,-217
1312,117,36,983,-143,-239,-233
1313,85,47,1016,-59,-213,-209
1314,116,56,1029,-59,-59,-125
1315,176,42,1036,-120,-57,-165
1316,98,62,1033,-182,-299,-250
1317,127,56,1003,-280,-334,-221
1318,118,60,1003,-198,-299,-159
1319,116,45,1004,-75,-290,-94
1320,108,24,1011,1,-292,-57
1321,123,15,1019,70,-311,-73
1322,121,-4,976,37,-334,-149
1323,125,2,967,-22,-356,-252
1324,117,9,954,-71,-313,-333
1325,147,71,948,-192,-221,-325
1326,153,65,944,-215,-182,-348
1327,170,82,964,-155,-188,-270
1328,167,68,937,-57,-170,-178
1329,169,54,961,56,-161,-102
1330,150,40,970,177,-167,-84
1331,149,44,996,191,-157,-114
1332,147,16,997,76,-151,-155
1333,162,26,992,-28,-147,-217
1334,156,55,978,-96,-135,-278
1335,168,64,975,-102,-147,-250
1336,166,67,980,-104,-168,-211
1337,170,72,953,-83,-172,-141
1338,170,65,926,-16,-186,-92
1339,158,60,916,87,-94,-40
1340,169,38,937,212,-24,-16
1341,164,50,993,263,27,-55
1342,149,38,1014,218,109,-79
1343,164,45,1048,80,107,-110
1344,152,64,1042,-43,42,-143
1345,146,55,1024,-116,-12,-135
1346,150,56,1012,-84,-49,-100
1347,142,52,997,-30,-100,-55
1348,141,28,994,62,-108,-26
1349,147,20,1004,183,-110,0
1350,155,13,996,287,-90,-10
1351,146,28,1021,294,-59,-32
1352,161,37,1064,273,-16,-57
1353,150,64,1068,160,-10,-69
1354,165,82,1087,52,-32,-75
1355,161,88,1079,0,-69,-83
1356,146,83,1082,-108,-143,-83
1357,147,88,1047,-237,-143,-108
1358,143,88,1015,-299,-143,-79
1359,144,91,986,-280,-176,-12
1360,143,71,944,-143,-172,25
1361,152,59,907,-2,-170,82
1362,164,42,889,37,-151,115
1363,159,36,883,7,-129,91
1364,180,46,867,-98,-104,78
1365,187,41,808,-188,-100,74
1366,199,50,768,-424,-190,42
1367,206,92,678,-672,-262,31
1368,219,89,532,-756,-346,35
1369,236,114,334,-668,-477,64
1370,205,121,157,-536,-553,167
1371,216,158,10,-350,-456,250
1372,205,122,-159,-268,-272,292
1373,241,187,-327,-344,-24,400
1374,313,167,-466,-641,330,474
1375,237,112,-590,-663,609,511
1376,135,24,-676,-377,941,636
1377,47,-99,-660,425,1482,765
1378,-71,-187,-575,1261,1968,666
1379,-166,-241,-411,1804,2224,562
1380,-285,-268,-274,2113,2416,214
1381,-346,-240,-136,1921,2613,-125
1382,-398,-170,-13,1570,2804,-313
1383,-400,-114,124,1277,3042,-553
1384,-340,132,336,1019,3593,-860
1385,-341,311,663,892,4380,-667
1386,-367,329,896,1089,4824,-268
1387,-465,223,1145,1199,4783,-18
1388,-581,62,1304,792,4597,-22
1389,-652,-53,1454,85,4394,-96
1390,-588,-94,1608,-491,4478,-122
1391,-541,-28,1754,-639,4800,-383
1392,-596,118,2007,-206,4691,-440
1393,-616,155,2048,253,4683,-243
1394,-653,136,2048,503,4562,-63
1395,-590,62,2048,236,4111,35
1396,-628,51,2048,-360,3386,-167
1397,-661,34,2048,-959,2740,-225
1398,-601,-22,2048,-1149,2101,-131
1399,-592,16,2048,-915,1605,-268
1400,-563,98,2048,-670,1369,-409
1401,-510,176,2048,-284,1306,-479
1402,-439,293,2048,-43,1232,-514
1403,-387,368,2048,1,1021,-428
1404,-315,475,2048,-28,763,-311
1405,-278,554,2048,-157,384,-165
1406,-278,646,2048,-348,-125,-16
1407,-257,727,2048,-571,-516,177
1408,-213,807,1910,-833,-834,382
1409,-217,851,1770,-1147,-1127,619
1410,-179,861,1543,-1362,-1292,890
1411,-170,874,1414,-1264,-1448,1109
1412,-146,854,1264,-950,-1452,1363
1413,-203,785,1148,-709,-1383,1667
1414,-234,734,1057,-674,-1229,1960
1415,-216,656,988,-928,-952,2226
1416,-249,587,963,-1180,-809,2353
1417,-255,510,911,-1430,-790,2552
1418,-316,435,880,-1461,-924,2703
1419,-305,331,815,-1409,-989,2900
1420,-351,213,756,-1309,-1069,2968
1421,-346,136,692,-1168,-1131,2863
1422,-423,65,666,-1024,-1059,2796
1423,-424,-10,636,-917,-793,2935
1424,-427,-60,608,-754,-512,2880
1425,-448,-113,673,-834,-282,2875
1426,-438,-199,664,-838,-26,2941
1427,-445,-294,738,-756,62,2912
1428,-434,-374,790,-645,76,2767
1429,-459,-433,841,-536,-49,2617
1430,-490,-456,866,-375,-213,2425
1431,-477,-509,860,-239,-307,2246
1432,-508,-564,934,-81,-467,1990
1433,-551,-619,933,31,-473,1816
1434,-519,-626,937,33,-307,1656
1435,-475,-630,977,-36,-26,1482
1436,-424,-597,994,-159,294,1283
1437,-388,-551,1051,-266,445,1048
1438,-362,-520,1077,-389,410,878
1439,-346,-468,1084,-391,312,712
1440,-339,-419,1092,-356,156,554
1441,-323,-363,1083,-311,25,414
1442,-315,-332,1063,-250,-59,335
1443,-307,-305,1060,-225,-124,300
1444,-319,-311,1039,-241,-149,275
1445,-317,-290,1039,-264,-122,263
1446,-306,-284,1023,-301,-49,199
1447,-287,-219,1022,-268,-6,107
1448,-279,-188,1034,-229,1,54
1449,-269,-179,1046,-135,-6,42
1450,-259,-152,1030,-42,-63,-24
1451,-262,-130,1028,-10,-112,-75
1452,-251,-109,1031,-77,-135,-71
1453,-238,-88,1013,-204,-127,-104
1454,-235,-88,986,-311,-135,-133
1455,-224,-67,987,-270,-108,-151
1456,-236,-50,968,-184,-86,-157
1457,-233,-71,984,-90,-59,-135
1458,-243,-49,978,-61,3,-157
1459,-238,-32,978,-81,37,-151
1460,-224,-31,991,-88,58,-159
1461,-212,-32,988,-75,46,-168
1462,-210,-11,996,-106,21,-192
1463,-208,-15,994,-145,19,-221
1464,-209,7,1008,-127,31,-215
1465,-215,6,1012,-102,31,-202
1466,-225,-6,996,-2,27,-168
1467,-227,-19,996,85,23,-174
1468,-235,-9,996,107,56,-174
1469,-231,-9,1013,60,87,-153
1470,-230,-13,1020,27,107,-135
1471,-229,-15,1023,9,93,-141
1472,-247,-11,1038,5,56,-161
1473,-235,-17,1032,-42,46,-159
1474,-247,-14,1020,-96,23,-159
1475,-233,-26,1016,-122,3,-143
1476,-246,-16,1010,-112,-18,-133
1477,-243,-24,1004,-45,-36,-112
1478,-242,-12,985,1,-20,-122
1479,-232,-17,977,-14,13,-116
1480,-239,-9,984,-20,52,-98
1481,-238,-10,982,-4,66,-83
1482,-244,-15,994,35,95,-90
1483,-249,-26,999,82,103,-75
1484,-236,-33,1019,160,109,-92
1485,-252,-44,1039,193,117,-137
1486,-253,-29,1035,185,128,-172
1487,-266,-34,1041,146,119,-163
1488,-250,-34,1060,103,103,-143
1489,-252,-47,1059,68,74,-176
1490,-268,-48,1042,3,0,-159
1491,-263,-49,1050,-32,-40,-133
1492,-263,-56,1061,-53,-49,-168
1493,-252,-49,1051,-4,-40,-157
1494,-267,-52,1064,23,-129,-139
1495,-292,-81,1062,97,-88,-198
1496,-270,-76,1069,164,25,-266
1497,-267,-87,1071,130,60,-272
1498,-262,-64,1091,66,11,-311
1499,-268,-53,1083,23,13,-293
1500,-255,-53,1097,-4,-43,-278
1501,-251,-55,1080,-6,-139,-284
1502,-263,-52,1071,-20,-196,-299
1503,-258,-57,1032,-22,-209,-286
1504,-259,-57,1039,42,-188,-303
1505,-255,-64,1060,123,-153,-325
1506,-253,-73,1031,148,-112,-393
1507,-256,-56,1077,191,-94,-424
1508,-259,-63,1084,234,-63,-436
1509,-248,-37,1102,218,-59,-442
1510,-245,-32,1116,160,-88,-420
1511,-232,-27,1127,123,-98,-397
1512,-238,-3,1105,113,-153,-387
1513,-239,-20,1117,97,-200,-368
1514,-232,-17,1095,89,-219,-340
1515,-250,-29,1046,117,-217,-344
1516,-252,-23,1031,150,-180,-352
1517,-253,-36,1015,175,-110,-329
1518,-269,-46,1045,191,-4,-334
1519,-264,-38,1077,167,70,-333
1520,-232,-34,1064,95,64,-358
1521,-256,-17,1083,52,-8,-370
1522,-258,-11,1064,54,-79,-358
1523,-241,-11,1048,62,-149,-342
1524,-243,-2,1028,111,-188,-317
1525,-238,-8,1035,130,-223,-307
1526,-236,-8,1008,175,-258,-290
1527,-222,-14,1017,248,-309,-284
1528,-244,-28,1010,337,-292,-305
1529,-239,-33,1017,388,-245,-315
1530,-231,-35,1031,402,-153,-364
1531,-239,-17,1051,337,-112,-372
1532,-235,-14,1084,251,-59,-411
1533,-231,-2,1111,152,-14,-444
1534,-223,23,1102,41,-90,-450
1535,-219,14,1097,-40,-260,-424
1536,-223,2,1082,-77,-426,-381
1537,-239,1,1022,-20,-542,-364
1538,-243,-3,1025,91,-567,-319
1539,-241,-30,1007,160,-483,-309
1540,-241,-28,981,183,-395,-333
1541,-243,-23,1009,212,-319,-370
1542,-239,-10,1023,259,-188,-403
1543,-234,-9,1078,294,-120,-381
1544,-209,8,1108,259,-127,-385
1545,-220,18,1131,166,-239,-379
1546,-213,21,1120,3,-348,-366
1547,-194,13,1106,-131,-477,-315
1548,-195,-2,1078,-147,-610,-297
1549,-216,-9,1049,-65,-709,-319
1550,-215,-27,1021,78,-715,-292
1551,-220,-43,1016,269,-663,-323
1552,-225,-40,1005,394,-571,-383
1553,-245,-42,1031,373,-417,-422
1554,-213,-33,1076,294,-274,-430
1555,-203,-20,1087,220,-274,-444
1556,-208,-17,1098,169,-368,-461
1557,-208,-10,1092,117,-458,-471
1558,-190,-25,1065,83,-588,-485
1559,-192,-29,1070,101,-719,-520
1560,-185,-13,1034,152,-803,-528
1561,-197,-11,1015,240,-856,-530
1562,-186,-8,993,320,-825,-487
1563,-184,-27,989,330,-708,-495
1564,-189,-14,1008,261,-569,-530
1565,-167,3,1008,144,-442,-530
1566,-156,2,1009,52,-325,-518
1567,-154,-17,1024,21,-270,-500
1568,-156,-17,1008,-10,-358,-514
1569,-181,-17,978,-28,-461,-563
1570,-152,-6,988,74,-491,-569
1571,-144,-14,995,220,-538,-577
1572,-154,2,995,380,-606,-553
1573,-167,-12,992,484,-600,-547
1574,-168,-14,975,449,-518,-538
1575,-149,-19,991,291,-377,-549
1576,-139,13,999,117,-231,-569
1577,-127,9,1018,-8,-133,-563
1578,-129,28,1015,-98,-90,-557
1579,-122,25,1011,-118,-104,-600
1580,-122,43,1023,-102,-143,-598
1581,-129,52,1055,-26,-254,-622
1582,-108,49,1037,115,-389,-584
1583,-120,41,1033,283,-487,-547
1584,-124,27,1017,427,-508,-520
1585,-120,20,991,474,-465,-559
1586,-127,15,980,419,-397,-559
1587,-121,34,996,345,-299,-581
1588,-122,47,1008,255,-209,-618
1589,-110,70,1020,162,-163,-577
1590,-87,76,1027,156,-116,-575
1591,-81,90,1038,197,-129,-573
1592,-73,109,1086,166,-221,-551
1593,-90,96,1071,101,-303,-522
1594,-83,104,1057,37,-438,-450
1595,-100,86,1011,-22,-565,-397
1596,-77,84,977,72,-573,-428
1597,-125,57,982,230,-645,-366
1598,-111,38,962,287,-514,-399
1599,-105,52,961,390,-317,-413
1600,-93,68,994,333,-233,-436
1601,-104,60,1035,273,-102,-403
1602,-84,84,1048,291,-12,-424
1603,-73,85,1070,291,-88,-438
1604,-82,93,1072,238,-280,-471
1605,-75,83,1044,160,-428,-471
1606,-62,79,1042,148,-514,-436
1607,-72,77,1020,177,-612,-430
1608,-87,78,1008,171,-670,-417
1609,-97,56,979,138,-667,-368
1610,-88,58,974,156,-526,-389
1611,-65,79,991,126,-370,-418
1612,-67,82,1008,89,-307,-399
1613,-66,97,1039,68,-303,-368
1614,-50,100,1043,85,-276,-340
1615,-51,97,1034,-2,-301,-321
1616,-51,93,1051,-135,-438,-331
1617,-49,100,1016,-155,-504,-319
1618,-53,97,992,-153,-553,-299
1619,-41,91,1016,-79,-530,-268
1620,-45,78,989,23,-493,-262
1621,-47,84,990,85,-465,-292
1622,-61,82,979,62,-405,-325
1623,-46,78,975,5,-278,-344
1624,-50,60,993,0,-178,-336
1625,-41,77,1020,41,-94,-356
1626,-26,82,1053,9,-34,-368
1627,-36,81,1086,-94,-40,-317
1628,11,77,1094,-282,-163,-325
1629,-12,102,1071,-375,-360,-358
1630,-75,94,1038,-420,-500,-307
1631,-3,70,980,-264,-331,-122
1632,38,77,1020,-61,-250,-243
1633,-54,72,1030,-88,-520,-313
1634,-40,84,1041,-127,-415,-299
1635,-17,81,1041,-159,-208,-274
1636,-30,64,1036,-225,-221,-252
1637,-27,55,1072,-274,-247,-274
1638,-20,50,1093,-280,-276,-334
1639,-31,61,1103,-366,-358,-370
1640,-23,52,1103,-436,-534,-350
1641,-25,61,1074,-430,-637,-334
1642,-11,69,1034,-434,-725,-295
1643,-18,44,977,-383,-821,-301
1644,-22,34,962,-204,-817,-321
1645,-22,52,963,-88,-667,-323
1646,9,32,963,-149,-549,-292
1647,17,44,975,-194,-450,-333
1648,1,52,972,-209,-407,-348
1649,27,53,975,-225,-377,-331
1650,52,64,989,-198,-405,-344
1651,71,50,981,-200,-530,-309
1652,52,78,968,-137,-622,-305
1653,38,93,964,-18,-633,-243
1654,56,62,957,101,-569,-192
1655,44,56,951,152,-545,-170
1656,56,38,954,126,-504,-161
1657,57,39,953,29,-413,-227
1658,60,53,969,-81,-342,-264
1659,68,63,976,-172,-276,-280
1660,83,79,994,-200,-295,-280
1661,78,93,990,-184,-362,-276
1662,83,106,960,-188,-397,-227
1663,88,87,951,-147,-430,-161
1664,84,70,920,-16,-489,-94
1665,89,50,919,134,-475,-61
1666,96,49,925,156,-405,-61
1667,93,57,926,80,-290,-73
1668,103,57,932,-73,-168,-88
1669,98,62,942,-178,-61,-129
1670,102,73,964,-170,-26,-131
1671,95,74,991,-86,-34,-98
1672,97,69,1005,9,-67,-59
1673,88,62,999,72,-131,-38
1674,78,44,1006,148,-198,-10
1675,81,29,1003,187,-215,-6
1676,90,42,1005,150,-198,-36
1677,77,55,1005,83,-184,-61
1678,88,48,1001,-2,-157,-42
1679,94,48,1013,-73,-125,-71
1680,88,52,997,-133,-116,-88
1681,95,59,996,-165,-120,-94
1682,93,66,996,-170,-155,-88
1683,100,78,987,-178,-198,-53
1684,109,77,983,-204,-209,-34
1685,103,80,938,-272,-229,-4
1686,94,51,904,-292,-264,0
1687,110,38,869,-233,-254,0
1688,115,12,815,-211,-237,-22
1689,96,25,798,-186,-227,-61
1690,88,12,769,-213,-200,-83
1691,96,39,769,-264,-133,-86
1692,88,53,750,-331,-165,-98
1693,76,46,695,-418,-297,-104
1694,61,46,583,-571,-458,-155
1695,57,70,464,-790,-608,-233
1696,74,57,292,-1079,-641,-338
1697,111,54,123,-1354,-618,-366
1698,88,74,4,-1500,-506,-401
1699,133,80,-173,-1295,-299,-342
1700,118,77,-218,-901,248,-231
1701,100,54,-241,-303,804,-40
1702,55,-6,-290,222,1216,136
1703,-5,-60,-264,673,1458,189
1704,-23,-74,-239,1037,1689,193
1705,-62,-76,-200,1130,1943,220
1706,-132,-55,-186,1068,2138,224
1707,-201,-36,-136,1091,2437,257
1708,-262,-53,-73,1179,2976,201
1709,-314,-15,94,1291,3656,5
1710,-367,25,278,1181,4291,-98
1711,-429,29,436,820,4753,0
1712,-523,-1,652,572,4896,89
1713,-569,-68,929,511,4902,125
1714,-537,21,1204,681,4908,-18
1715,-592,88,1497,976,4662,-84
1716,-618,62,1710,1162,4357,-40
1717,-709,72,1850,1300,4113,-172
1718,-557,55,1973,873,3996,-131
1719,-606,87,2029,242,3753,-264
1720,-664,110,2048,-266,3298,-389
1721,-691,102,2048,-657,3091,-319
1722,-679,76,2048,-645,2992,-172
1723,-625,30,2048,-366,2642,-211
1724,-646,28,2048,-168,2095,-338
1725,-608,60,2048,27,1816,-393
1726,-567,88,2048,99,1683,-420
1727,-530,135,2048,9,1302,-420
1728,-517,132,2048,-129,859,-334
1729,-488,159,2048,-213,480,-276
1730,-471,182,2048,-313,93,-178
1731,-462,196,2048,-366,-184,-63
1732,-404,203,1968,-424,-333,-22
1733,-381,235,1888,-497,-481,-45
1734,-321,312,1805,-491,-606,-108
1735,-302,392,1740,-506,-743,-112
1736,-286,466,1682,-510,-897,-69
1737,-256,545,1625,-542,-1040,25
1738,-205,602,1554,-704,-1262,185
1739,-196,653,1438,-948,-1542,285
1740,-188,693,1274,-1256,-1678,392
1741,-170,717,1139,-1553,-1725,619
1742,-146,769,1038,-1649,-1584,859
1743,-104,762,953,-1665,-1405,1093
1744,-73,793,865,-1571,-1389,1298
1745,-119,819,860,-1368,-1440,1595
1746,-147,732,819,-1163,-1401,1982
1747,-167,710,825,-995,-1385,2212
1748,-190,710,808,-997,-1479,2410
1749,-234,620,778,-1186,-1518,2541
1750,-298,539,720,-1346,-1428,2785
1751,-365,446,694,-1459,-1350,3062
1752,-397,350,686,-1500,-1151,3349
1753,-376,244,659,-1342,-885,3537
1754,-425,160,739,-1137,-827,3613
1755,-457,-4,734,-1049,-840,3707
1756,-563,-184,805,-819,-1000,3652
1757,-622,-348,812,-733,-887,3593
1758,-636,-500,869,-885,-653,3425
1759,-646,-557,850,-1038,-385,3136
1760,-640,-611,908,-1047,-157,2869
1761,-613,-674,884,-915,-83,2697
1762,-587,-713,916,-688,-213,2439
1763,-560,-719,899,-430,-307,2232
1764,-548,-713,899,-198,-329,2083
1765,-510,-735,898,-167,-239,2001
1766,-466,-742,855,-250,-53,1800
1767,-445,-729,866,-331,148,1587
1768,-404,-681,907,-295,337,1353
1769,-365,-621,950,-219,412,1128
1770,-338,-578,963,-61,369,904
1771,-320,-519,999,154,257,673
1772,-312,-468,1002,306,146,490
1773,-299,-414,1032,378,27,396
1774,-301,-387,1042,283,-69,332
1775,-302,-348,1033,1,-84,322
1776,-301,-342,1017,-264,-100,371
1777,-298,-362,960,-358,-57,304
1778,-306,-349,934,-362,15,207
1779,-304,-326,967,-221,132,64
1780,-292,-272,981,-63,205,-71
1781,-288,-236,1030,58,250,-190
1782,-274,-195,1063,111,193,-237
1783,-257,-137,1077,27,103,-217
1784,-253,-130,1044,-63,-10,-153
1785,-242,-124,1022,-198,-34,-133
1786,-239,-115,996,-323,-24,-167
1787,-247,-98,990,-319,-8,-133
1788,-238,-106,983,-161,42,-104
1789,-235,-101,1004,-32,128,-204
1790,-250,-108,999,0,228,-274
1791,-234,-81,996,-30,265,-284
1792,-230,-74,1036,-14,263,-286
1793,-235,-52,1058,109,203,-280
1794,-217,-47,1059,136,125,-264
1795,-212,-30,1067,42,89,-292
1796,-208,-11,1094,-106,19,-247
1797,-216,-25,1050,-219,-61,-155
1798,-221,-42,1014,-249,-84,-71
1799,-219,-27,991,-219,-75,-98
1800,-228,-47,975,-202,-26,-147
1801,-236,-41,979,-143,23,-118
1802,-224,-45,975,-69,52,-98
1803,-239,-52,995,27,54,-125
1804,-241,-41,1006,91,35,-125
1805,-237,-50,1008,93,7,-86
1806,-231,-53,1027,46,-30,-108
1807,-222,-20,1032,-43,-102,-90
1808,-226,-33,1000,-129,-127,-71
1809,-226,-43,969,-131,-116,-34
1810,-236,-49,954,-145,-71,-57
1811,-247,-57,937,-139,-20,-57
1812,-239,-56,955,-59,62,-94
1813,-240,-71,969,66,128,-96
1814,-260,-60,989,130,158,-100
1815,-264,-60,1014,146,160,-63
1816,-252,-69,1016,158,113,-45
1817,-246,-64,1045,140,25,-59
1818,-244,-40,1032,62,-30,-71
1819,-232,-39,1021,31,-61,-40
1820,-248,-49,1016,46,-51,-40
1821,-238,-34,1016,44,-16,-43
1822,-248,-52,986,23,25,-65
1823,-249,-55,1020,37,46,-71
1824,-243,-63,1019,33,85,-75
1825,-240,-48,1026,48,103,-65
1826,-244,-32,1013,44,107,-90
1827,-248,-37,1058,1,103,-94
1828,-235,-33,1048,39,44,-47
1829,-243,-31,1043,46,-59,-47
1830,-240,-22,1010,62,-129,-14
1831,-239,-42,1006,41,-114,1
1832,-239,-48,979,-10,-92,17
1833,-246,-52,992,-45,-40,17
1834,-258,-65,969,-16,19,3
1835,-249,-68,993,17,68,-40
1836,-249,-61,1019,42,74,-53
1837,-256,-66,1052,80,33,-55
1838,-244,-58,1049,58,15,-43
1839,-242,-68,1030,-24,-6,-57
1840,-231,-52,1015,-81,-63,-81
1841,-234,-53,1019,-57,-100,-69
1842,-234,-68,989,7,-110,-51
1843,-237,-49,989,50,-47,-59
1844,-229,-43,1002,29,9,-38
1845,-229,-66,996,7,44,-20
1846,-249,-61,1002,-10,44,-36
1847,-245,-64,987,-42,48,-57
1848,-244,-53,1021,-42,64,-63
1849,-248,-77,998,-47,66,-45
1850,-252,-60,995,-49,35,-57
1851,-238,-64,999,-16,7,-77
1852,-261,-61,1000,13,1,-57
1853,-243,-61,1006,21,21,-49
1854,-242,-45,1016,0,21,-43
1855,-245,-57,1027,9,23,-65
1856,-247,-60,1014,0,15,-71
1857,-244,-53,1003,0,15,-65
1858,-256,-49,1011,-18,31,-36
1859,-243,-59,995,-43,62,-24
1860,-252,-54,1013,-75,58,-38
1861,-239,-54,997,-86,37,-43
1862,-238,-49,1006,-47,37,-45
1863,-241,-41,1015,-8,19,-43
1864,-244,-53,1021,-10,-2,-51
1865,-242,-48,991,0,0,-43
1866,-244,-48,991,21,11,-42
1867,-250,-54,1002,46,7,-59
1868,-240,-47,999,64,29,-57
1869,-259,-45,1022,46,56,-43
1870,-260,-43,1016,3,95,-45
1871,-243,-37,1013,-34,105,-30
1872,-250,-32,1018,-34,76,-4
1873,-245,-38,1024,-18,48,5
1874,-254,-55,1015,-4,33,23
1875,-259,-72,1014,5,29,5
1876,-264,-63,1031,23,21,-24
1877,-258,-59,1014,15,-14,-55
1878,-257,-46,1005,35,-20,-75
1879,-248,-51,1006,42,3,-61
1880,-245,-36,1013,39,21,-47
1881,-255,-34,997,27,29,-42
1882,-251,-41,1016,9,42,-10
1883,-241,-43,1012,7,48,11
1884,-252,-53,1034,5,52,13
1885,-258,-64,1014,-18,29,17
1886,-262,-60,1014,-30,19,15
1887,-266,-63,1028,-59,11,7
1888,-269,-61,1016,-49,-10,11
1889,-262,-58,1015,-28,-30,-28
1890,-257,-61,1020,-16,-38,-42
1891,-273,-60,1011,-2,-28,-47
1892,-249,-60,1017,-14,-8,-26
1893,-258,-61,1008,21,-30,-92
1894,-247,-36,1030,-6,-57,-65
1895,-263,-57,1015,-8,-40,-45
1896,-253,-46,1004,-12,-73,-32
1897,-310,-58,997,-43,-63,-22
1898,-221,-65,987,-88,111,125
1899,-217,-51,1009,-129,126,13
1900,-278,-51,1016,-43,-47,-90
1901,-239,-36,1000,1,11,-53
1902,-254,-60,1007,48,25,-40
1903,-255,-63,1025,42,7,-53
1904,-256,-41,1018,7,0,-59
1905,-259,-50,1028,-6,-10,-63
1906,-259,-40,1016,-12,-6,-36
1907,-262,-55,1013,-40,-12,-38
1908,-261,-53,999,-45,-26,-40
1909,-258,-43,1003,-51,-28,-38
1910,-260,-55,991,-43,7,-26
1911,-248,-57,993,-14,19,-16
1912,-255,-44,1000,0,7,-24
1913,-257,-43,1009,17,17,-26
1914,-256,-57,997,27,39,-8
1915,-259,-58,1009,37,27,-32
1916,-260,-54,1009,21,0,-45
1917,-261,-60,1021,15,0,-38
1918,-267,-63,1022,-14,-8,-42
1919,-255,-49,1019,-10,-22,-45
1920,-258,-61,1009,-28,-20,-45
1921,-251,-45,1017,-22,-28,-34
1922,-252,-59,1005,-2,-43,-40
1923,-263,-58,990,3,-20,-38
1924,-258,-47,990,5,11,-38
1925,-262,-59,1000,-14,35,-24
1926,-256,-53,1003,25,27,-14
1927,-259,-52,1010,52,15,-30
1928,-264,-45,1016,29,11,-18
1929,-265,-50,990,0,15,-26
1930,-263,-52,994,-10,11,-6
1931,-261,-62,994,-10,7,-8
1932,-266,-51,1002,23,0,-32
1933,-272,-58,1014,33,7,-20
1934,-261,-62,993,29,37,-30
1935,-264,-57,1002,48,64,-45
1936,-258,-46,1032,27,64,-38
1937,-264,-43,1018,0,66,-12
1938,-259,-55,1030,-12,35,-14
1939,-260,-51,1038,-6,11,-24
1940,-262,-54,1017,-6,-6,-4
1941,-259,-42,1038,-26,1,7
1942,-255,-55,1019,-42,-6,25
1943,-267,-44,1006,-40,-26,9
1944,-269,-43,992,-34,-14,-12
1945,-278,-60,1002,-2,25,-18
1946,-269,-65,1009,0,46,-18
1947,-274,-56,1004,-22,31,-32
1948,-270,-60,1020,-32,41,-43
1949,-270,-59,1025,9,42,-43
1950,-273,-52,1014,35,-8,-38
1951,-262,-39,1024,42,-30,-14
1952,-260,-49,1007,37,-26,-4
1953,-260,-53,1014,1,-28,-18
1954,-272,-59,994,-18,-30,0
1955,-266,-61,982,-20,9,21
1956,-262,-62,995,1,39,-6
1957,-267,-50,1014,21,33,-14
1958,-271,-59,1013,42,35,-10
1959,-264,-68,1022,44,27,-22
1960,-269,-71,1033,25,-12,-55
1961,-262,-54,1014,-8,-40,-69
1962,-275,-45,1019,-30,-45,-40
1963,-263,-60,1010,-42,-61,-20
1964,-254,-60,994,-65,-94,-20
1965,-264,-52,996,-49,-77,-55
1966,-267,-53,982,-32,-16,-63
1967,-273,-47,994,-6,0,-57
1968,-259,-40,1015,33,11,-59
1969,-255,-28,1019,23,15,-40
1970,-265,-55,1028,-16,-6,-14
1971,-263,-59,1013,-45,-22,-24
1972,-268,-62,1010,-77,-43,-6
1973,-269,-64,1007,-36,-26,-30
1974,-269,-76,993,-2,-10,-42
1975,-270,-61,1004,3,-16,-63
1976,-266,-55,1012,11,-38,-53
1977,-258,-42,1018,5,-47,-63
1978,-264,-44,988,-8,-38,-51
1979,-264,-41,988,-8,1,-28
1980,-260,-56,1006,-22,23,-20
1981,-257,-53,1020,-40,21,-32
1982,-268,-46,987,-22,5,-57
1983,-267,-50,1002,17,11,-51
1984,-268,-50,1015,33,9,-45
1985,-263,-46,1018,15,-14,-57
1986,-263,-42,1009,3,-26,-38
1987,-270,-40,1007,7,-22,-8
1988,-267,-49,1009,5,-22,-16
1989,-268,-55,1022,-24,-18,-38
1990,-259,-49,1007,-38,-24,-34
1991,-270,-49,1011,-32,-26,-18
1992,-270,-40,1003,-18,-22,-28
1993,-268,-36,1016,-22,-14,-51
1994,-268,-36,1009,9,-12,-59
1995,-269,-40,1014,27,-40,-26
1996,-262,-40,1004,23,-55,-38
1997,-262,-39,1010,-12,-42,-30
1998,-279,-52,994,-63,-28,0
1999,-265,-58,1019,-79,-18,-8
2000,-273,-55,999,-67,-20,-34
2001,-262,-41,1005,-53,7,-22
2002,-259,-49,1024,-26,13,9
2003,-269,-50,994,19,-6,-14
2004,-274,-65,1003,15,-4,-26
2005,-268,-57,1020,0,0,-26
2006,-264,-53,1023,-36,-24,-24
2007,-271,-65,1016,-55,-30,-43
2008,-269,-55,1007,-69,-42,-47
2009,-266,-50,993,-63,-43,-47
2010,-264,-42,971,-34,-49,-43
2011,-262,-42,1004,-2,-43,-38
2012,-266,-37,992,9,0,-18
2013,-256,-51,1003,1,17,-8
2014,-262,-58,1007,-20,19,-22
2015,-262,-50,1004,-45,19,-16
2016,-269,-55,1012,-36,-14,-22
2017,-272,-50,1011,-20,-49,-26
2018,-276,-62,1009,-4,-53,-24
2019,-273,-52,1011,-20,-36,-28
2020,-266,-44,990,-28,-34,-43
2021,-271,-40,1001,-22,-14,-22
2022,-264,-46,1005,-30,25,-12
2023,-262,-44,1016,-55,31,-6
2024,-263,-41,1024,-71,21,-8
2025,-272,-44,1022,-65,-12,-14
2026,-275,-52,1019,-32,-53,-14
2027,-273,-57,1009,13,-65,-42
2028,-269,-49,1002,29,-61,-20