sequence,AccelerometerX,AccelerometerY,AccelerometerZ,GyroscopeX,GyroscopeY,GyroscopeZ
0,-355,-121,978,85,-311,54
1,-346,-114,952,46,-311,56
2,-344,-120,957,-22,-284,35
3,-351,-130,949,-30,-225,-12
4,-338,-100,958,5,-167,-88
5,-336,-103,966,95,-176,-149
6,-341,-81,991,154,-254,-157
7,-380,-89,906,119,-292,-125
8,-308,-99,996,-12,-305,-104
9,-359,-72,978,50,-401,-180
10,-339,-72,959,-137,-481,-75
11,-393,-52,848,-243,-497,39
12,-322,-103,918,-81,-459,111
13,-334,-125,887,-42,-432,121
14,-413,-82,681,-143,-190,82
15,-313,-168,922,-590,183,-63
16,-296,-160,960,-243,312,-120
17,-326,-128,945,-100,177,-264
18,-330,-117,949,-188,46,-237
19,-327,-124,973,-307,3,-264
20,-308,-92,941,-241,-65,-249
21,-328,-127,917,-174,-129,-196
22,-343,-145,886,-211,-75,-108
23,-333,-156,891,-167,78,-79
24,-330,-157,869,-163,277,-112
25,-323,-162,858,-165,466,-165
26,-330,-135,907,-125,640,-208
27,-317,-113,976,-110,695,-178
28,-309,-81,1035,-67,517,-124
29,-333,-89,1036,0,199,-71
30,-330,-95,997,78,-86,1
31,-334,-108,950,144,-264,39
32,-344,-121,926,56,-301,52
33,-336,-140,888,-127,-256,42
34,-343,-142,865,-243,-118,-4
35,-334,-153,861,-299,85,-45
36,-339,-143,878,-315,277,-65
37,-305,-138,910,-319,398,-63
38,-319,-121,957,-266,345,-81
39,-322,-104,1001,-172,187,-90
40,-331,-103,999,-69,5,-53
41,-330,-107,972,13,-120,-10
42,-348,-110,986,56,-180,13
43,-361,-118,941,33,-174,56
44,-342,-135,924,35,-73,52
45,-349,-148,914,-28,27,21
46,-343,-142,930,-149,134,-16
47,-349,-128,950,-272,212,-40
48,-360,-131,981,-319,255,-75
49,-338,-123,985,-299,242,-86
50,-327,-123,1003,-284,162,-81
51,-330,-124,1008,-241,13,-73
52,-344,-122,1006,-221,-157,-77
53,-346,-120,969,-223,-268,-86
54,-351,-125,956,-262,-323,-59
55,-348,-156,925,-256,-288,-59
56,-350,-156,927,-227,-182,-63
57,-335,-160,940,-196,-75,-57
58,-343,-151,949,-184,-49,-59
59,-348,-165,974,-182,-79,-12
60,-344,-160,962,-133,-131,0
61,-339,-159,960,-127,-188,-14
62,-328,-163,946,-167,-209,-32
63,-331,-154,952,-157,-211,-24
64,-317,-165,928,-129,-192,-18
65,-319,-167,925,-100,-190,-16
66,-325,-171,916,-69,-151,-20
67,-329,-173,912,-51,-63,-32
68,-311,-173,936,-45,-12,-61
69,-327,-170,934,-63,-40,-102
70,-331,-148,948,-118,-57,-129
71,-332,-160,919,-174,-32,-124
72,-323,-157,925,-233,-2,-108
73,-330,-144,930,-215,-2,-116
74,-323,-147,919,-139,46,-92
75,-307,-151,934,-53,87,-84
76,-314,-133,942,7,111,-88
77,-329,-123,958,48,142,-53
78,-324,-118,964,64,121,25
79,-313,-137,973,78,78,76
80,-322,-128,975,95,21,42
81,-341,-139,992,48,-63,-34
82,-351,-132,991,0,-81,-71
83,-350,-125,986,-88,-61,-47
84,-356,-134,981,-129,-32,-38
85,-343,-143,966,-112,11,-10
86,-347,-141,967,-90,13,7
87,-332,-132,964,-88,1,23
88,-341,-132,974,-75,-28,39
89,-332,-135,982,-53,-65,35
90,-340,-143,959,-12,-122,21
91,-352,-132,963,52,-159,-22
92,-350,-152,946,-34,-137,1
93,-353,-160,932,-90,-32,21
94,-342,-177,918,-106,83,1
95,-336,-164,914,-127,199,-4
96,-334,-154,942,-147,255,-12
97,-334,-160,938,-141,259,-4
98,-334,-148,964,-102,248,-12
99,-333,-159,981,-42,212,-38
100,-330,-160,976,-43,150,-45
101,-322,-169,967,-88,83,-77
102,-338,-152,947,-143,27,-106
103,-339,-161,925,-178,64,-92
104,-332,-161,908,-149,169,-79
105,-327,-163,899,-135,226,-57
106,-335,-167,923,-145,259,-63
107,-333,-168,911,-96,326,-69
108,-342,-167,939,-34,345,-81
109,-336,-163,969,-4,302,-84
110,-343,-154,978,21,203,-104
111,-343,-156,977,-14,68,-92
112,-346,-152,962,-65,-26,-65
113,-356,-157,941,-75,-57,-71
114,-364,-162,912,-77,-16,-71
115,-356,-168,902,-94,85,-83
116,-352,-163,895,-120,201,-104
117,-344,-147,927,-151,304,-94
118,-353,-152,941,-127,369,-73
119,-336,-164,981,-28,326,-77
120,-343,-146,1006,37,189,-100
121,-353,-147,1008,27,-10,-106
122,-352,-141,984,7,-165,-92
123,-370,-153,951,-10,-235,-106
124,-370,-151,929,-67,-174,-90
125,-359,-167,908,-143,-49,-88
126,-358,-170,901,-168,72,-88
127,-350,-163,918,-139,166,-94
128,-358,-162,935,-84,212,-106
129,-355,-169,983,-26,177,-124
130,-356,-144,998,-2,42,-139
131,-364,-150,975,-38,-88,-129
132,-359,-155,954,-16,-167,-118
133,-353,-146,925,-6,-174,-77
134,-358,-158,923,-26,-127,-59
135,-344,-152,907,-73,-16,-55
136,-358,-149,922,-100,117,-45
137,-361,-153,952,-100,175,-51
138,-361,-164,993,-53,154,-47
139,-353,-159,1000,-20,62,-49
140,-364,-154,1003,-42,-61,-67
141,-362,-164,982,-73,-147,-84
142,-373,-150,969,-86,-174,-77
143,-364,-141,959,-79,-180,-49
144,-355,-157,939,-49,-143,-28
145,-359,-167,919,-28,-94,-22
146,-353,-173,909,-61,-32,-26
147,-342,-164,917,-120,15,-45
148,-351,-171,921,-131,27,-79
149,-348,-165,931,-94,21,-96
150,-350,-146,954,-67,-36,-116
151,-353,-153,934,-77,-86,-110
152,-333,-149,923,-94,-106,-88
153,-347,-146,917,-79,-116,-90
154,-339,-158,890,-59,-84,-79
155,-332,-157,903,-38,-26,-61
156,-335,-151,889,-38,50,-59
157,-325,-154,925,-65,111,-65
158,-335,-161,935,-75,123,-81
159,-332,-153,956,-92,85,-90
160,-348,-149,966,-90,11,-86
161,-331,-158,975,-84,-47,-69
162,-336,-156,942,-79,-110,-57
163,-339,-167,926,-100,-133,-51
164,-346,-168,919,-104,-98,-42
165,-341,-162,916,-96,-38,-24
166,-335,-171,920,-77,33,-20
167,-341,-159,911,-67,95,-30
168,-340,-154,929,-88,150,-26
169,-345,-168,934,-102,187,-8
170,-338,-163,956,-61,166,-16
171,-341,-147,952,-43,105,-18
172,-350,-160,982,-84,13,-26
173,-347,-156,963,-145,-71,-30
174,-361,-154,930,-188,-96,-40
175,-361,-157,916,-194,-45,-14
176,-343,-182,910,-143,54,31
177,-346,-176,911,-47,148,60
178,-353,-172,929,5,199,85
179,-355,-172,946,9,218,87
180,-354,-176,968,11,193,60
181,-351,-188,1006,-12,119,21
182,-372,-177,991,-57,-2,-28
183,-362,-173,980,-118,-98,-42
184,-360,-189,954,-159,-112,-32
185,-363,-192,933,-149,-94,-57
186,-355,-188,916,-168,-63,-61
187,-361,-183,908,-159,-12,-49
188,-342,-188,890,-84,62,-47
189,-359,-175,917,-32,132,-26
190,-348,-180,937,11,171,-16
191,-358,-180,963,29,109,-40
192,-359,-167,944,-16,21,-55
193,-366,-167,933,-57,-28,-47
194,-363,-172,947,-36,-47,-42
195,-359,-162,921,-45,-30,-26
196,-360,-162,920,-81,29,-20
197,-379,-163,931,-110,113,-20
198,-364,-171,932,-98,193,-28
199,-367,-162,932,-84,226,-18
200,-363,-172,962,-67,240,-8
201,-365,-161,978,-47,212,5
202,-356,-171,987,-36,113,0
203,-363,-176,980,-43,-14,-16
204,-351,-174,966,-73,-118,-32
205,-364,-151,943,-114,-153,-38
206,-363,-166,910,-112,-108,-38
207,-359,-178,915,-86,-38,-32
208,-343,-170,903,-26,56,-26
209,-360,-167,920,0,132,-26
210,-360,-169,954,7,152,-26
211,-363,-165,960,7,109,-30
212,-368,-163,967,-26,23,-42
213,-358,-168,955,-86,-38,-36
214,-365,-160,947,-108,-86,-43
215,-358,-168,936,-124,-104,-47
216,-363,-159,909,-149,-77,-38
217,-353,-163,913,-149,-26,-34
218,-354,-165,897,-98,33,-20
219,-349,-162,912,-28,93,-8
220,-356,-165,913,9,128,15
221,-347,-176,922,3,125,3
222,-364,-169,954,-26,105,-10
223,-356,-162,951,-57,52,-14
224,-364,-165,930,-75,-12,-12
225,-346,-161,935,-75,-59,-20
226,-355,-161,915,-96,-63,-22
227,-342,-172,893,-124,-14,-40
228,-346,-171,884,-157,72,-57
229,-346,-166,892,-159,132,-65
230,-334,-151,908,-120,158,-47
231,-338,-150,910,-77,140,-16
232,-348,-147,924,-42,105,0
233,-350,-134,924,-63,101,-4
234,-353,-139,953,-124,126,7
235,-357,-145,962,-174,150,27
236,-351,-138,994,-163,177,33
237,-346,-147,1021,-65,242,44
238,-336,-119,1075,130,365,107
239,-367,-100,1165,507,503,150
240,-444,-65,1340,1076,609,173
241,-487,-28,1498,1574,609,210
242,-556,5,1651,1773,460,304
243,-608,28,1782,1687,185,392
244,-675,24,1903,1390,-161,460
245,-734,12,1942,1058,-559,507
246,-779,-18,1982,636,-1036,611
247,-810,-52,1983,242,-1444,710
248,-815,-88,1930,44,-1864,816
249,-841,-120,1869,-6,-2258,904
250,-845,-135,1821,91,-2538,1003
251,-816,-169,1795,527,-2817,1183
252,-823,-197,1754,1093,-3114,1343
253,-842,-183,1754,1455,-3268,1439
254,-832,-188,1785,1585,-3440,1517
255,-841,-213,1811,1509,-3749,1517
256,-825,-219,1803,1277,-4208,1427
257,-842,-222,1725,871,-4733,1250
258,-823,-233,1611,283,-5250,1091
259,-741,-224,1478,-135,-5678,1042
260,-738,-206,1338,-209,-6036,984
261,-679,-229,1185,-90,-6245,994
262,-621,-250,1029,-49,-6467,1021
263,-565,-259,879,-98,-6614,910
264,-493,-247,739,-358,-6680,755
265,-398,-218,578,-659,-6747,601
266,-302,-192,420,-807,-6784,468
267,-219,-178,228,-870,-6790,335
268,-123,-164,22,-872,-6651,228
269,-7,-81,-147,-696,-6186,132
270,97,-25,-254,-221,-5571,85
271,240,13,-307,388,-4952,224
272,287,64,-330,880,-4344,439
273,340,60,-360,1292,-3694,687
274,406,52,-327,1525,-2999,876
275,441,32,-265,1611,-2360,1042
276,459,17,-192,1666,-1799,1105
277,485,11,-96,1910,-1313,1044
278,489,4,6,2154,-952,882
279,477,25,74,2154,-704,703
280,487,32,165,1876,-461,533
281,527,61,244,1468,-254,353
282,527,124,311,1156,-176,240
283,507,168,370,1117,-125,250
284,517,190,424,1066,-22,382
285,494,196,452,826,66,464
286,506,177,466,529,179,425
287,523,209,495,292,335,339
288,512,238,496,173,417,292
289,492,233,491,31,511,343
290,457,237,492,-186,597,349
291,424,207,497,-432,748,353
292,387,179,477,-647,927,433
293,379,143,461,-750,1109,519
294,377,152,430,-819,1308,587
295,355,122,397,-696,1419,632
296,390,153,379,-508,1582,691
297,367,238,380,-120,1748,726
298,346,252,384,292,1863,917
299,308,246,343,417,2027,1074
300,225,235,296,140,2216,1101
301,187,179,232,-403,2423,1099
302,134,81,193,-1034,2503,1074
303,183,100,163,-1637,2650,941
304,124,138,173,-1520,2955,822
305,153,174,237,-823,3410,996
306,205,159,315,-24,3832,1343
307,132,151,353,496,4044,1501
308,99,152,388,425,4148,1458
309,145,153,459,-333,4177,1460
310,17,278,526,-614,4238,1466
311,-143,255,591,-59,4240,1669
312,-232,111,652,332,4375,2205
313,-288,-61,708,349,4556,2468
314,-338,-239,785,68,4734,2298
315,-307,-366,902,-475,4763,1884
316,-334,-285,1014,-766,4808,1333
317,-482,-221,1101,-743,4740,974
318,-567,-239,1227,-625,4740,958
319,-593,-179,1349,-399,4746,966
320,-597,-178,1494,-245,4671,1068
321,-605,-181,1668,-196,4537,1283
322,-610,-206,1811,-59,4195,1494
323,-649,-324,1901,107,3625,1587
324,-683,-419,1925,33,2917,1437
325,-739,-415,1906,-352,2367,1031
326,-751,-431,1868,-811,1982,708
327,-672,-457,1817,-1100,1714,482
328,-634,-402,1764,-1190,1492,207
329,-644,-363,1708,-983,1292,9
330,-645,-379,1682,-754,1140,5
331,-626,-379,1685,-676,976,-22
332,-607,-371,1668,-844,732,-110
333,-584,-295,1633,-973,453,-178
334,-516,-272,1566,-848,226,-47
335,-449,-226,1491,-542,-24,132
336,-418,-204,1364,-133,-239,279
337,-398,-189,1281,226,-270,347
338,-401,-176,1207,394,-167,296
339,-413,-152,1180,322,5,179
340,-398,-138,1168,109,214,42
341,-375,-99,1145,-190,345,-34
342,-353,-85,1163,-245,337,-47
343,-331,-79,1165,25,134,-53
344,-329,-31,1130,330,-200,-67
345,-339,-31,1082,380,-481,-28
346,-351,-12,1047,337,-620,-6
347,-339,-25,996,169,-649,25
348,-320,-60,943,-30,-584,17
349,-309,-104,906,-274,-471,-57
350,-312,-110,870,-502,-325,-180
351,-305,-142,888,-696,-211,-313
352,-304,-98,891,-860,-141,-458
353,-295,-42,930,-793,-73,-442
354,-286,2,942,-329,-65,-252
355,-288,17,939,281,-102,27
356,-288,-46,925,537,-131,250
357,-298,-70,925,462,-86,261
358,-304,-83,895,189,0,164
359,-280,-70,913,-157,87,78
360,-283,-71,907,-340,105,5
361,-277,-76,933,-344,101,-38
362,-290,-66,935,-352,93,-102
363,-302,-33,966,-327,70,-110
364,-300,-17,1013,-153,52,-47
365,-302,-43,1017,-53,-63,37
366,-315,-65,1002,-129,-172,113
367,-315,-110,945,-256,-190,95
368,-307,-126,937,-372,-125,33
369,-305,-139,913,-469,-42,-10
370,-311,-140,902,-547,44,-77
371,-314,-128,931,-543,136,-125
372,-297,-114,947,-436,226,-143
373,-288,-101,962,-254,212,-147
374,-271,-82,993,-55,123,-120
375,-277,-56,996,136,3,-67
376,-267,-61,987,166,-133,27
377,-285,-76,965,130,-190,33
378,-277,-70,946,1,-163,64
379,-281,-71,927,-112,-124,64
380,-290,-85,931,-200,-47,64
381,-283,-92,927,-174,64,56
382,-289,-103,946,-65,119,11
383,-288,-101,983,17,140,-36
384,-279,-98,996,11,89,-81
385,-285,-85,1000,-77,-18,-114
386,-306,-79,996,-137,-102,-120
387,-312,-77,970,-143,-161,-77
388,-310,-104,960,-94,-178,-18
389,-316,-114,928,-67,-129,0
390,-307,-120,928,-139,-51,-24
391,-300,-130,941,-170,29,-38
392,-293,-137,942,-102,80,-69
393,-297,-127,963,-47,101,-96
394,-307,-110,979,-40,109,-127
395,-313,-128,1012,-83,83,-149
396,-315,-124,1011,-106,0,-149
397,-303,-142,1000,-108,-92,-168
398,-305,-160,975,-114,-157,-196
399,-312,-148,979,-221,-167,-241
400,-300,-163,962,-389,-116,-272
401,-300,-169,950,-454,-71,-292
402,-303,-146,935,-360,-14,-297
403,-290,-151,955,-174,27,-256
404,-281,-168,977,-18,46,-250
405,-288,-154,982,-12,1,-286
406,-301,-149,976,-112,-43,-303
407,-295,-141,981,-161,-47,-317
408,-291,-144,992,-258,-67,-315
409,-302,-173,952,-350,-94,-313
410,-288,-173,934,-331,-77,-323
411,-305,-179,927,-217,-28,-301
412,-286,-188,928,-75,41,-276
413,-282,-188,961,7,74,-327
414,-296,-181,954,-8,76,-393
415,-297,-167,982,-49,76,-438
416,-299,-144,998,-116,50,-499
417,-292,-140,1017,-258,-2,-526
418,-290,-144,1002,-383,-75,-553
419,-293,-144,977,-418,-145,-565
420,-303,-151,935,-370,-137,-542
421,-294,-166,935,-258,-81,-538
422,-304,-168,926,-159,21,-522
423,-288,-145,912,-73,126,-495
424,-291,-159,938,-16,191,-483
425,-285,-148,937,-51,230,-491
426,-274,-147,984,-112,230,-530
427,-284,-142,990,-174,132,-553
428,-287,-153,982,-176,19,-565
429,-291,-144,973,-153,-40,-567
430,-295,-148,958,-102,-47,-543
431,-315,-150,931,-4,-12,-542
432,-307,-161,938,25,95,-524
433,-302,-161,958,25,171,-524
434,-310,-158,949,42,228,-528
435,-297,-159,956,70,279,-528
436,-292,-167,962,60,279,-540
437,-294,-135,986,13,244,-575
438,-298,-124,1011,-79,156,-553
439,-287,-147,994,-106,52,-555
440,-312,-147,992,-75,-32,-579
441,-312,-170,969,-122,-77,-561
442,-300,-171,937,-190,-81,-584
443,-284,-183,928,-254,-42,-633
444,-291,-163,913,-241,21,-653
445,-291,-141,919,-153,93,-618
446,-275,-143,936,13,150,-540
447,-284,-138,951,195,136,-473
448,-277,-139,957,357,87,-424
449,-294,-141,949,396,9,-407
450,-318,-142,962,316,-12,-417
451,-303,-151,990,156,11,-444
452,-309,-150,986,1,-10,-469
453,-313,-160,973,-57,-38,-483
454,-310,-171,953,-14,-2,-493
455,-329,-180,954,66,54,-506
456,-318,-176,973,115,132,-530
457,-310,-148,979,107,117,-561
458,-306,-117,1025,128,58,-551
459,-304,-112,1006,205,-24,-497
460,-306,-127,996,240,-84,-442
461,-298,-144,971,173,-149,-397
462,-304,-159,964,76,-168,-364
463,-308,-192,930,25,-102,-413
464,-315,-186,926,27,21,-516
465,-308,-195,939,-42,148,-618
466,-296,-176,951,-135,183,-684
467,-301,-162,954,-77,130,-696
468,-296,-136,946,113,109,-657
469,-289,-137,961,322,76,-583
470,-281,-115,956,476,37,-543
471,-285,-131,953,445,-12,-524
472,-300,-139,942,355,-36,-502
473,-299,-145,920,275,0,-495
474,-299,-149,922,228,80,-510
475,-306,-147,941,189,181,-514
476,-284,-115,967,195,261,-510
477,-274,-114,988,257,228,-481
478,-287,-110,989,369,140,-450
479,-295,-116,1010,472,72,-420
480,-296,-117,977,519,-6,-395
481,-308,-139,989,466,-71,-409
482,-307,-130,952,355,-45,-456
483,-309,-132,945,214,23,-504
484,-308,-135,935,121,128,-508
485,-298,-129,969,115,195,-493
486,-302,-126,958,160,193,-473
487,-300,-121,980,250,156,-459
488,-313,-115,985,349,117,-471
489,-309,-108,987,386,66,-463
490,-318,-108,990,365,21,-450
491,-325,-117,963,267,31,-436
492,-309,-150,947,173,95,-446
493,-302,-146,922,70,138,-475
494,-296,-138,936,-28,195,-508
495,-305,-132,940,-57,220,-485
496,-303,-132,958,80,195,-446
497,-298,-143,969,232,128,-409
498,-292,-159,979,347,37,-417
499,-291,-155,966,351,-38,-471
500,-300,-150,949,238,-49,-561
501,-300,-154,942,64,1,-643
502,-309,-127,947,-137,89,-704
503,-298,-117,949,-290,166,-696
504,-296,-120,949,-227,177,-645
505,-288,-100,945,-30,195,-561
506,-265,-122,955,125,173,-489
507,-306,-118,941,167,103,-459
508,-293,-112,951,171,103,-500
509,-302,-109,949,125,117,-563
510,-298,-113,948,-38,148,-598
511,-287,-121,946,-180,208,-608
512,-300,-124,969,-204,212,-598
513,-313,-131,976,-49,193,-584
514,-321,-118,988,193,164,-563
515,-325,-100,986,332,134,-524
516,-314,-112,983,300,109,-508
517,-299,-98,981,197,50,-549
518,-294,-103,959,80,-12,-563
519,-296,-98,947,62,-51,-542
520,-306,-103,928,128,-59,-483
521,-306,-106,907,265,0,-418
522,-312,-121,901,472,66,-381
523,-326,-123,915,654,130,-374
524,-321,-131,933,728,179,-409
525,-308,-118,937,697,134,-436
526,-299,-106,962,593,58,-465
527,-310,-92,963,478,-14,-469
528,-289,-91,964,451,-47,-434
529,-305,-66,966,505,-63,-424
530,-302,-57,952,509,-36,-426
531,-300,-72,951,408,23,-432
532,-311,-81,944,279,72,-452
533,-299,-85,930,154,125,-477
534,-322,-82,962,85,119,-514
535,-312,-74,963,56,130,-536
536,-319,-90,953,15,130,-536
537,-314,-77,970,-61,140,-520
538,-299,-83,968,-79,132,-504
539,-305,-82,959,-10,52,-458
540,-317,-89,949,64,17,-424
541,-321,-89,941,74,42,-389
542,-314,-89,938,44,82,-383
543,-324,-86,929,-14,140,-383
544,-307,-93,962,-22,205,-375
545,-316,-103,960,39,195,-417
546,-327,-96,965,56,146,-430
547,-330,-102,964,21,171,-442
548,-329,-109,978,-6,179,-446
549,-324,-101,962,-20,177,-434
550,-342,-109,988,-12,175,-454
551,-329,-110,959,-24,212,-473
552,-315,-100,982,-28,193,-479
553,-324,-87,997,-24,156,-493
554,-319,-96,1003,-79,144,-497
555,-320,-100,1006,-141,93,-524
556,-321,-97,998,-168,29,-547
557,-328,-102,982,-139,-18,-504
558,-327,-108,988,-28,-38,-428
559,-331,-123,972,107,-45,-399
560,-347,-110,962,201,13,-426
561,-333,-111,984,189,95,-440
562,-317,-96,975,117,119,-461
563,-323,-84,988,103,103,-483
564,-313,-74,1018,128,64,-483
565,-305,-65,1016,113,1,-473
566,-325,-62,1018,85,-65,-448
567,-327,-57,1002,72,-110,-418
568,-340,-54,993,78,-131,-377
569,-318,-58,967,107,-120,-317
570,-335,-69,959,148,-77,-303
571,-326,-77,958,169,-18,-297
572,-314,-69,961,113,42,-329
573,-332,-63,973,0,85,-350
574,-318,-60,995,-83,68,-354
575,-306,-64,980,-131,-24,-368
576,-324,-74,960,-174,-122,-372
577,-318,-80,959,-180,-133,-354
578,-332,-69,938,-116,-129,-313
579,-321,-84,923,-18,-118,-258
580,-317,-97,926,70,-67,-250
581,-322,-102,934,125,9,-233
582,-331,-101,949,142,85,-237
583,-321,-101,961,107,125,-274
584,-318,-89,979,68,103,-299
585,-318,-85,1004,44,35,-307
586,-315,-94,995,-20,-65,-299
587,-315,-92,982,-100,-163,-313
588,-310,-103,950,-141,-206,-329
589,-315,-117,906,-161,-204,-344
590,-321,-127,897,-170,-129,-379
591,-314,-123,886,-182,-28,-407
592,-315,-115,914,-90,50,-426
593,-312,-100,932,0,93,-401
594,-319,-92,938,25,119,-366
595,-302,-92,957,-10,154,-323
596,-298,-87,976,-63,117,-311
597,-301,-95,967,-133,46,-303
598,-297,-101,964,-161,-20,-317
599,-312,-110,950,-209,-79,-319
600,-300,-122,914,-260,-43,-323
601,-309,-96,914,-211,52,-309
602,-304,-100,926,-67,132,-264
603,-288,-87,935,85,179,-204
604,-305,-98,942,140,185,-161
605,-298,-74,956,107,199,-127
606,-290,-84,983,89,179,-86
607,-292,-72,966,107,121,-94
608,-292,-84,962,95,54,-86
609,-292,-74,939,44,31,-73
610,-309,-75,924,-8,44,-55
611,-321,-72,927,-4,138,-47
612,-319,-82,938,11,236,-14
613,-313,-103,973,37,275,3
614,-322,-90,976,17,261,-22
615,-319,-96,990,-61,212,13
616,-330,-89,1010,-53,162,25
617,-322,-98,989,15,103,50
618,-335,-103,965,29,44,46
619,-327,-121,959,-30,29,21
620,-337,-130,955,-112,74,-20
621,-334,-122,948,-167,123,-36
622,-330,-119,967,-127,136,-34
623,-324,-117,971,-81,156,-22
624,-330,-113,1003,-47,148,-22
625,-326,-115,1018,-51,83,-16
626,-321,-112,1005,-81,-2,-16
627,-327,-106,980,-88,-69,3
628,-328,-119,958,-69,-81,9
629,-336,-124,953,-75,-47,-4
630,-327,-133,951,-155,29,-18
631,-333,-129,962,-233,91,-47
632,-331,-126,976,-170,128,-28
633,-335,-130,1000,-34,111,15
634,-331,-148,1006,78,70,25
635,-328,-151,1032,85,17,1
636,-331,-133,1037,19,-30,-26
637,-319,-104,1045,23,-36,-28
638,-325,-102,1079,78,-43,-10
639,-344,-70,1108,134,-4,-22
640,-340,-51,1171,113,82,-20
641,-365,-11,1238,95,253,-20
642,-367,7,1348,152,371,-4
643,-412,12,1476,242,283,50
644,-430,12,1581,404,52,128
645,-446,30,1664,501,-264,261
646,-502,30,1727,570,-581,408
647,-580,15,1781,660,-815,582
648,-639,-15,1815,724,-1043,720
649,-672,-36,1837,724,-1258,853
650,-711,-96,1822,714,-1542,906
651,-686,-113,1813,656,-1840,876
652,-697,-118,1784,599,-2219,841
653,-672,-143,1724,558,-2711,814
654,-658,-116,1659,556,-3159,806
655,-637,-110,1581,544,-3590,839
656,-612,-93,1527,595,-3887,876
657,-584,-86,1458,628,-4077,880
658,-546,-56,1406,591,-4135,898
659,-493,-42,1359,582,-4217,976
660,-465,-33,1312,667,-4352,1109
661,-448,-35,1262,794,-4461,1171
662,-409,-46,1232,746,-4510,1220
663,-381,-32,1168,484,-4625,1277
664,-362,-42,1123,287,-4758,1353
665,-326,-86,1047,191,-4827,1380
666,-308,-103,964,187,-4850,1322
667,-276,-131,876,48,-4889,1316
668,-225,-150,792,-108,-4899,1318
669,-204,-162,670,-145,-4885,1251
670,-135,-178,551,-53,-4842,1218
671,-89,-151,479,132,-4756,1140
672,-9,-170,398,406,-4555,1056
673,73,-153,335,513,-4301,968
674,120,-136,260,552,-4057,828
675,170,-122,227,613,-3833,695
676,237,-84,206,791,-3518,609
677,277,-34,231,1000,-3206,523
678,311,16,264,1123,-2944,490
679,316,20,269,1003,-2698,550
680,337,2,290,794,-2479,589
681,371,-8,318,587,-2276,519
682,386,-7,329,394,-2127,396
683,393,15,303,259,-1983,257
684,451,38,295,205,-1731,125
685,462,85,290,316,-1569,0
686,468,144,303,484,-1504,-71
687,498,218,280,505,-1459,-65
688,515,290,247,316,-1502,-12
689,549,345,155,169,-1518,7
690,563,385,61,78,-1458,50
691,528,398,-33,-47,-1284,132
692,524,415,-114,-167,-942,218
693,498,400,-203,-389,-551,285
694,478,414,-254,-717,-129,361
695,449,433,-269,-1075,291,414
696,430,495,-313,-1237,675,511
697,390,512,-333,-989,1091,751
698,370,480,-315,-616,1486,1130
699,439,409,-284,-217,1917,1453
700,425,367,-250,-88,2332,1611
701,353,319,-211,-225,2720,1734
702,302,254,-143,-413,3144,1830
703,228,184,-58,-579,3476,1888
704,142,177,51,-508,3748,1857
705,72,191,213,-241,4001,1839
706,8,155,383,111,4263,2013
707,-52,72,552,382,4517,2339
708,-118,-72,702,615,4707,2558
709,-213,-187,805,521,4802,2625
710,-273,-357,953,89,4835,2492
711,-266,-449,1089,-463,4755,2089
712,-302,-371,1188,-860,4583,1591
713,-386,-333,1299,-1026,4435,1375
714,-363,-271,1461,-825,4548,1488
715,-300,-331,1594,-790,4562,1703
716,-367,-328,1589,-772,4257,1718
717,-418,-364,1556,-905,3884,1769
718,-409,-414,1503,-1129,3667,1820
719,-428,-445,1485,-1178,3431,1693
720,-354,-426,1450,-983,3435,1515
721,-385,-421,1496,-504,3501,1367
722,-384,-442,1521,-200,3417,1275
723,-387,-420,1528,-120,3324,1046
724,-444,-337,1548,-354,3234,867
725,-410,-336,1553,-485,3027,882
726,-412,-248,1583,-407,2789,832
727,-373,-226,1572,-575,2626,820
728,-296,-259,1541,-903,2375,1007
729,-322,-303,1472,-790,2011,1056
730,-325,-344,1423,-192,1748,1068
731,-348,-345,1401,511,1595,970
732,-394,-259,1405,767,1630,728
733,-395,-253,1447,365,1750,556
734,-370,-252,1512,-211,1724,371
735,-338,-266,1503,-799,1455,322
736,-321,-274,1486,-1000,1054,408
737,-358,-308,1442,-788,677,507
738,-360,-340,1412,-379,412,607
739,-395,-336,1404,-8,261,546
740,-406,-335,1359,232,201,501
741,-388,-347,1322,310,201,396
742,-370,-317,1287,128,181,203
743,-321,-297,1238,-233,111,48
744,-314,-288,1187,-452,-26,-92
745,-315,-254,1146,-454,-102,-209
746,-326,-227,1142,-374,-184,-254
747,-308,-200,1123,-176,-252,-217
748,-300,-172,1093,113,-340,-151
749,-288,-159,1082,373,-354,-124
750,-275,-152,1056,373,-333,-125
751,-262,-137,1038,216,-307,-167
752,-259,-138,990,54,-325,-194
753,-264,-127,971,-40,-342,-211
754,-248,-134,943,-112,-282,-198
755,-256,-132,959,-157,-221,-206
756,-249,-131,954,-120,-145,-209
757,-254,-130,954,-16,-114,-194
758,-259,-135,963,105,-55,-186
759,-240,-141,974,99,13,-200
760,-252,-147,995,-22,15,-249
761,-247,-108,1007,-190,-51,-315
762,-242,-90,1013,-288,-168,-286
763,-243,-113,981,-325,-348,-208
764,-237,-142,942,-235,-430,-133
765,-257,-174,894,-83,-436,-102
766,-265,-193,889,48,-313,-98
767,-268,-176,900,83,-84,-174
768,-253,-168,933,-51,126,-239
769,-233,-173,969,-237,230,-278
770,-229,-181,978,-260,220,-344
771,-242,-167,1015,-172,101,-411
772,-245,-143,1028,-106,-26,-436
773,-246,-126,1005,-159,-190,-424
774,-234,-115,970,-217,-315,-411
775,-238,-131,936,-235,-340,-350
776,-221,-152,883,-262,-270,-284
777,-241,-184,861,-182,-110,-268
778,-227,-202,866,-110,101,-250
779,-239,-195,902,-8,281,-303
780,-235,-208,937,-30,376,-323
781,-225,-225,960,-49,384,-413
782,-232,-196,998,-75,281,-516
783,-220,-189,998,-102,169,-522
784,-223,-188,995,-42,23,-518
785,-217,-190,953,91,-30,-504
786,-222,-218,934,156,13,-489
787,-239,-230,914,171,134,-542
788,-263,-226,923,91,306,-618
789,-257,-235,936,-24,453,-715
790,-250,-231,962,-135,552,-860
791,-227,-201,1009,-262,531,-999
792,-238,-170,1041,-430,337,-1024
793,-228,-125,1055,-430,85,-915
794,-254,-134,1024,-225,-147,-741
795,-258,-170,986,46,-266,-618
796,-253,-166,940,101,-250,-616
797,-275,-181,898,-104,-98,-680
798,-258,-169,913,-299,123,-721
799,-233,-144,920,-274,261,-758
800,-241,-121,957,-98,294,-735
801,-239,-87,961,107,279,-647
802,-258,-84,996,285,210,-542
803,-258,-87,1013,347,113,-530
804,-267,-86,1012,173,11,-596
805,-259,-85,1012,-151,-96,-618
806,-272,-87,971,-356,-165,-608
807,-264,-110,932,-385,-118,-565
808,-252,-137,898,-272,1,-528
809,-267,-141,906,-81,97,-510
810,-265,-110,916,97,232,-485
811,-282,-114,975,171,339,-446
812,-277,-114,1018,181,339,-411
813,-281,-103,1030,193,257,-415
814,-258,-103,1036,136,134,-387
815,-249,-120,1000,52,7,-377
816,-265,-136,961,27,-81,-391
817,-255,-131,940,66,-112,-377
818,-263,-144,907,144,-67,-405
819,-274,-142,885,181,70,-432
820,-257,-138,907,181,267,-450
821,-258,-112,957,158,408,-479
822,-264,-100,996,82,417,-448
823,-254,-91,1017,58,335,-409
824,-257,-103,1025,17,189,-381
825,-270,-121,1014,-28,27,-368
826,-264,-127,1002,-16,-92,-342
827,-270,-140,953,46,-174,-305
828,-263,-174,922,126,-110,-282
829,-268,-164,902,201,58,-321
830,-279,-146,924,214,279,-385
831,-254,-134,954,111,447,-393
832,-265,-134,996,29,455,-379
833,-262,-118,1034,76,369,-333
834,-268,-133,1039,164,160,-290
835,-270,-135,1014,154,-45,-292
836,-277,-148,986,105,-120,-272
837,-289,-151,955,48,-108,-254
838,-280,-152,938,42,-6,-282
839,-274,-149,908,54,158,-290
840,-270,-164,934,109,304,-315
841,-268,-156,961,132,400,-385
842,-285,-114,999,42,460,-407
843,-278,-113,1053,-34,416,-403
844,-266,-118,1099,-92,199,-385
845,-283,-134,1068,-168,-77,-377
846,-293,-152,1008,-155,-249,-362
847,-293,-167,942,-116,-264,-350
848,-299,-180,919,-86,-174,-372
849,-296,-165,899,-28,9,-401
850,-282,-157,950,60,195,-403
851,-280,-142,976,99,263,-401
852,-297,-140,996,80,242,-403
853,-280,-119,1017,15,185,-381
854,-259,-116,1039,-57,64,-364
855,-274,-133,1017,-102,-100,-356
856,-280,-138,991,-96,-186,-344
857,-281,-157,950,-40,-182,-319
858,-282,-172,925,41,-108,-319
859,-286,-166,939,146,37,-362
860,-274,-159,946,203,154,-393
861,-267,-137,965,136,218,-411
862,-276,-109,1006,21,242,-428
863,-265,-114,1028,-141,179,-424
864,-255,-129,1004,-297,23,-383
865,-279,-142,960,-278,-112,-362
866,-272,-165,948,-110,-124,-301
867,-273,-180,931,7,-65,-270
868,-283,-176,913,91,35,-292
869,-290,-184,947,109,164,-301
870,-279,-184,965,103,250,-323
871,-281,-172,965,60,250,-364
872,-276,-162,989,-18,234,-397
873,-271,-153,1011,-122,199,-389
874,-266,-143,1021,-143,85,-362
875,-278,-146,997,-65,-43,-317
876,-271,-182,964,0,-112,-262
877,-289,-208,938,41,-120,-252
878,-282,-209,917,41,-36,-290
879,-279,-217,930,11,58,-336
880,-286,-182,952,27,121,-448
881,-268,-165,963,7,189,-479
882,-273,-156,997,-53,187,-461
883,-266,-160,989,-42,136,-444
884,-261,-149,980,23,35,-420
885,-265,-159,963,126,-71,-407
886,-261,-146,950,152,-104,-381
887,-271,-167,937,128,-79,-358
888,-275,-170,921,132,-6,-364
889,-281,-173,937,103,89,-409
890,-274,-173,955,-16,144,-440
891,-274,-168,968,-133,173,-489
892,-267,-161,995,-186,162,-532
893,-260,-124,993,-81,87,-542
894,-270,-112,993,113,0,-477
895,-272,-121,986,208,-57,-397
896,-278,-138,978,201,-98,-374
897,-289,-153,951,107,-57,-389
898,-277,-138,961,-49,21,-413
899,-273,-143,954,-161,72,-418
900,-268,-131,943,-108,95,-397
901,-268,-145,937,80,103,-334
902,-255,-149,953,261,93,-303
903,-269,-134,967,292,74,-307
904,-283,-136,982,261,54,-307
905,-296,-149,989,201,68,-309
906,-291,-160,981,74,58,-331
907,-289,-173,1003,-61,68,-387
908,-281,-179,1006,-180,76,-411
909,-278,-178,974,-247,31,-403
910,-283,-173,974,-184,1,-393
911,-278,-171,976,15,9,-344
912,-281,-189,966,234,-32,-311
913,-265,-190,965,269,-53,-342
914,-263,-182,937,152,-49,-413
915,-270,-164,972,41,-22,-477
916,-259,-145,960,-55,1,-487
917,-264,-159,951,-94,-8,-493
918,-259,-168,944,-86,5,-495
919,-264,-153,937,-49,31,-442
920,-283,-130,961,162,54,-397
921,-275,-151,953,347,113,-329
922,-266,-156,960,369,146,-309
923,-274,-157,970,189,193,-364
924,-273,-160,959,-49,216,-405
925,-248,-163,994,-174,212,-432
926,-266,-161,982,-151,93,-479
927,-278,-171,972,-149,-16,-483
928,-296,-162,960,-131,-49,-483
929,-298,-172,942,-86,-49,-469
930,-300,-146,935,-26,-24,-471
931,-300,-149,929,48,33,-477
932,-275,-154,951,50,66,-499
933,-268,-152,952,-12,42,-528
934,-270,-152,918,-65,33,-526
935,-262,-142,919,-36,50,-502
936,-272,-131,931,37,85,-458
937,-269,-139,890,140,128,-379
938,-264,-157,908,218,195,-354
939,-262,-146,927,214,271,-350
940,-271,-158,940,154,343,-362
941,-282,-136,972,70,408,-370
942,-279,-157,981,21,392,-362
943,-282,-167,985,-26,324,-379
944,-269,-176,987,-92,187,-405
945,-287,-206,963,-168,78,-438
946,-281,-201,926,-168,48,-493
947,-299,-190,897,-63,107,-532
948,-290,-161,928,80,244,-497
949,-278,-148,946,257,326,-483
950,-277,-139,976,257,322,-469
951,-293,-104,997,207,314,-456
952,-280,-106,1001,48,275,-407
953,-264,-101,997,-73,175,-411
954,-278,-117,966,-112,70,-397
955,-272,-110,925,-57,48,-393
956,-281,-105,923,-26,97,-377
957,-289,-80,916,9,195,-338
958,-284,-81,920,117,304,-278
959,-301,-99,950,162,357,-206
960,-278,-105,974,107,371,-206
961,-292,-86,977,-55,351,-209
962,-304,-97,991,-168,308,-184
963,-302,-94,1003,-145,238,-143
964,-297,-123,972,-69,166,-86
965,-293,-145,957,13,134,-77
966,-309,-144,928,48,167,-120
967,-305,-143,947,103,253,-141
968,-315,-137,973,167,310,-159
969,-317,-118,975,103,326,-184
970,-307,-116,983,-51,287,-174
971,-293,-118,991,-172,230,-159
972,-302,-100,981,-168,160,-129
973,-309,-114,969,-73,119,-65
974,-305,-140,966,64,95,-20
975,-331,-167,954,125,85,-12
976,-334,-161,945,113,156,-32
977,-323,-147,960,48,283,-83
978,-301,-124,997,-55,351,-83
979,-319,-93,1019,-77,302,-73
980,-313,-93,1007,-73,205,-34
981,-319,-111,1000,-120,95,-6
982,-319,-120,983,-151,-8,0
983,-334,-114,958,-75,-42,21
984,-342,-125,930,72,11,58
985,-343,-134,953,113,125,64
986,-336,-139,955,0,244,23
987,-327,-101,991,-196,312,-24
988,-324,-78,1031,-334,302,0
989,-335,-93,1046,-342,230,58
990,-329,-105,1056,-270,134,107
991,-343,-126,1081,-254,19,140
992,-353,-146,1065,-247,-42,167
993,-352,-170,1108,-184,-96,160
994,-356,-162,1125,-151,-143,107
995,-350,-161,1121,-182,-153,60
996,-352,-171,1166,-268,-120,39
997,-359,-150,1219,-313,-90,-10
998,-369,-113,1281,-348,-114,-30
999,-368,-79,1352,-344,-188,0
1000,-387,-53,1407,-186,-340,76
1001,-383,-75,1429,-40,-563,253
1002,-400,-133,1427,-20,-737,404
1003,-436,-148,1455,-34,-793,447
1004,-474,-162,1485,-67,-813,482
1005,-492,-178,1497,-32,-795,507
1006,-517,-176,1538,115,-827,501
1007,-496,-182,1552,251,-895,537
1008,-491,-208,1580,337,-1114,537
1009,-497,-186,1580,341,-1454,468
1010,-484,-148,1568,169,-1770,464
1011,-471,-102,1568,113,-2038,486
1012,-463,-94,1549,218,-2268,515
1013,-494,-77,1513,416,-2456,589
1014,-485,-108,1479,472,-2508,693
1015,-465,-95,1494,398,-2489,707
1016,-471,-102,1481,330,-2565,769
1017,-484,-103,1492,416,-2690,845
1018,-512,-96,1481,535,-2862,955
1019,-494,-117,1526,474,-3032,1142
1020,-490,-160,1506,519,-3295,1228
1021,-520,-201,1476,548,-3637,1308
1022,-543,-233,1419,648,-3913,1396
1023,-555,-286,1361,824,-4049,1441
1024,-580,-351,1354,957,-4096,1412
1025,-628,-458,1357,892,-4028,1382
1026,-638,-578,1347,753,-4124,1230
1027,-631,-616,1365,740,-4391,904
1028,-618,-588,1340,626,-4676,634
1029,-556,-533,1284,531,-5165,369
1030,-521,-455,1168,587,-5749,29
1031,-460,-354,977,552,-6333,-213
1032,-360,-281,767,242,-6747,-338
1033,-268,-134,553,-145,-6942,-411
1034,-134,-87,328,-499,-7022,-504
1035,-14,-23,66,-741,-6784,-579
1036,14,58,-33,-510,-6258,-612
1037,121,85,-127,44,-5495,-479
1038,212,136,-156,613,-4622,-241
1039,236,139,-154,1103,-3891,21
1040,332,91,-165,1210,-3307,261
1041,393,98,-163,1105,-2899,365
1042,439,102,-162,1054,-2627,421
1043,506,104,-166,1117,-2440,566
1044,536,82,-211,1423,-2268,691
1045,569,23,-229,1851,-1989,824
1046,593,-37,-251,2187,-1553,894
1047,584,-58,-241,2404,-963,730
1048,605,-8,-149,2310,-219,417
1049,646,88,-28,1808,433,177
1050,668,158,114,1068,818,103
1051,674,187,204,587,1001,197
1052,698,199,318,460,1029,353
1053,701,202,381,660,982,480
1054,680,171,408,904,892,619
1055,653,120,420,947,841,669
1056,622,120,462,765,904,644
1057,599,101,519,464,1021,583
1058,563,114,567,152,1111,511
1059,549,110,590,-57,1158,480
1060,530,98,645,-118,1189,458
1061,489,84,649,-102,1171,425
1062,469,84,663,-141,1095,390
1063,431,107,660,-208,1001,371
1064,409,88,639,-233,927,304
1065,382,98,607,-393,900,267
1066,389,130,570,-575,986,300
1067,349,124,526,-602,1138,296
1068,365,143,494,-702,1373,371
1069,376,155,482,-745,1591,453
1070,354,158,478,-598,1748,566
1071,327,121,491,-411,1892,658
1072,297,128,488,-356,1968,689
1073,253,211,500,-280,2082,734
1074,195,219,473,-65,2140,855
1075,181,169,467,56,2201,994
1076,210,140,409,9,2316,1029
1077,145,131,382,-194,2414,927
1078,181,89,349,-569,2634,927
1079,116,67,331,-909,2839,849
1080,97,69,313,-1124,3054,759
1081,41,114,341,-1100,3337,824
1082,2,97,429,-485,3582,1021
1083,-26,70,521,185,3859,1195
1084,-74,81,598,468,4009,1201
1085,-103,56,710,267,4117,1189
1086,-144,-15,761,-379,4093,1189
1087,-164,-106,756,-1167,3802,1101
1088,-198,-122,659,-1772,3523,1035
1089,-284,-112,623,-1788,3371,1062
1090,-305,-119,641,-1018,3750,1277
1091,-323,-170,738,193,4414,1546
1092,-287,-238,889,1195,5011,1753
1093,-339,-256,1079,1500,5373,1730
1094,-378,-252,1314,1353,5314,1437
1095,-467,-223,1527,853,4939,1089
1096,-544,-124,1783,550,4558,658
1097,-556,-83,1946,37,4210,673
1098,-522,-163,2037,-911,3714,998
1099,-518,-294,1985,-1704,3021,1253
1100,-574,-420,1926,-1852,2351,1308
1101,-596,-491,1832,-1608,1939,1330
1102,-609,-547,1782,-1172,1716,1167
1103,-609,-522,1782,-657,1683,849
1104,-564,-476,1803,-272,1660,666
1105,-543,-447,1804,-147,1455,468
1106,-489,-342,1772,-290,1189,339
1107,-459,-287,1741,-522,882,314
1108,-441,-262,1667,-631,509,332
1109,-458,-260,1571,-694,156,339
1110,-471,-295,1449,-862,-94,408
1111,-434,-324,1353,-997,-176,421
1112,-390,-332,1281,-901,-145,335
1113,-343,-332,1225,-622,-127,167
1114,-317,-253,1182,-170,-131,97
1115,-302,-231,1141,283,-143,-10
1116,-308,-154,1155,570,-61,-129
1117,-304,-80,1202,386,17,-172
1118,-264,-56,1221,-98,-16,-106
1119,-237,-63,1176,-428,-198,-20
1120,-257,-84,1146,-469,-430,66
1121,-258,-131,1071,-590,-551,210
1122,-259,-148,1011,-571,-559,240
1123,-273,-181,971,-327,-485,185
1124,-249,-175,950,-34,-325,76
1125,-256,-172,933,119,-165,-67
1126,-250,-137,974,95,-34,-108
1127,-222,-99,986,23,-22,-96
1128,-241,-73,1005,21,-114,-69
1129,-242,-44,1016,-36,-178,-30
1130,-247,-85,1011,-227,-272,13
1131,-245,-109,964,-370,-342,50
1132,-246,-151,890,-370,-268,64
1133,-261,-168,885,-231,-75,27
1134,-260,-168,916,-94,169,-42
1135,-264,-144,956,-26,308,-125
1136,-273,-119,982,-40,388,-143
1137,-254,-89,1041,-26,416,-77
1138,-246,-97,1105,-6,259,-42
1139,-247,-103,1086,-137,-69,-4
1140,-262,-133,1012,-293,-348,3
1141,-258,-128,977,-329,-497,39
1142,-273,-154,903,-307,-499,31
1143,-266,-163,864,-239,-295,23
1144,-265,-160,870,-106,46,-49
1145,-255,-164,942,-47,269,-96
1146,-256,-121,988,-57,369,-124
1147,-241,-103,1019,-6,333,-92
1148,-234,-117,1044,78,119,-65
1149,-249,-135,1037,48,-125,-69
1150,-242,-135,999,-51,-270,-94
1151,-264,-130,969,-135,-356,-131
1152,-245,-143,917,-151,-301,-122
1153,-264,-160,887,-61,-147,-145
1154,-241,-159,884,-51,80,-168
1155,-220,-124,900,-129,259,-202
1156,-219,-84,930,-141,312,-151
1157,-227,-77,954,25,296,-84
1158,-223,-98,963,224,253,7
1159,-228,-123,985,210,158,-10
1160,-229,-138,982,78,97,-36
1161,-244,-147,967,-36,35,-69
1162,-245,-150,957,-69,31,-139
1163,-255,-154,941,-129,52,-174
1164,-253,-152,928,-190,158,-196
1165,-264,-119,955,-219,263,-250
1166,-258,-81,989,-223,308,-194
1167,-253,-88,1003,-129,277,-88
1168,-266,-113,991,27,197,-43
1169,-253,-149,975,3,146,-18
1170,-255,-163,993,-96,76,-71
1171,-281,-160,974,-112,15,-168
1172,-278,-150,954,-104,9,-204
1173,-293,-154,956,-57,56,-223
1174,-290,-178,965,-16,152,-223
1175,-287,-151,1000,27,189,-245
1176,-267,-107,1013,95,164,-256
1177,-255,-98,1012,164,87,-198
1178,-280,-98,1004,177,-30,-172
1179,-268,-110,1006,132,-63,-165
1180,-267,-114,1001,23,-73,-215
1181,-261,-121,980,-100,-59,-254
1182,-276,-114,985,-198,-20,-282
1183,-267,-112,965,-225,74,-284
1184,-270,-124,974,-167,115,-270
1185,-255,-111,979,-36,91,-249
1186,-247,-93,984,138,66,-186
1187,-274,-108,973,240,0,-137
1188,-274,-114,990,238,-34,-133
1189,-269,-129,978,123,-38,-153
1190,-266,-148,981,-79,-40,-196
1191,-280,-153,967,-231,-12,-250
1192,-276,-145,947,-282,56,-274
1193,-272,-156,954,-217,87,-268
1194,-269,-142,937,-120,95,-239
1195,-277,-143,950,54,125,-182
1196,-277,-152,966,181,171,-124
1197,-271,-155,1005,201,199,-151
1198,-275,-167,1043,125,167,-217
1199,-279,-162,1044,-8,91,-276
1200,-283,-164,1020,-84,11,-297
1201,-278,-183,1016,-98,-32,-325
1202,-281,-188,1026,-157,-28,-364
1203,-284,-199,1005,-209,-45,-413
1204,-290,-208,989,-233,-79,-411
1205,-285,-214,981,-192,-42,-411
1206,-270,-217,988,-55,-12,-440
1207,-271,-192,1004,-59,-61,-483
1208,-274,-187,991,-112,-102,-536
1209,-259,-162,990,-202,-129,-584
1210,-262,-128,992,-307,-168,-602
1211,-242,-128,969,-428,-213,-555
1212,-244,-153,938,-448,-245,-518
1213,-251,-163,911,-344,-215,-473
1214,-246,-181,915,-180,-96,-469
1215,-250,-176,909,-18,-18,-504
1216,-266,-170,924,68,85,-543
1217,-251,-135,956,66,152,-528
1218,-250,-129,982,85,136,-487
1219,-239,-134,992,107,85,-463
1220,-247,-130,1005,3,15,-446
1221,-249,-142,988,-98,-38,-450
1222,-261,-135,981,-141,-84,-485
1223,-271,-125,988,-155,-106,-493
1224,-254,-141,952,-108,-73,-463
1225,-254,-158,925,5,-57,-461
1226,-257,-152,924,132,-18,-463
1227,-263,-170,919,189,52,-471
1228,-274,-152,952,138,134,-504
1229,-266,-138,977,7,201,-534
1230,-266,-121,996,-170,197,-534
1231,-262,-140,998,-260,134,-510
1232,-241,-140,1003,-241,35,-510
1233,-242,-150,971,-182,-69,-516
1234,-253,-144,976,-100,-124,-497
1235,-257,-142,954,7,-102,-469
1236,-259,-145,950,46,-51,-430
1237,-265,-158,926,60,25,-426
1238,-258,-158,930,17,115,-444
1239,-250,-143,950,-65,179,-444
1240,-246,-151,965,-168,208,-456
1241,-245,-153,968,-219,177,-483
1242,-241,-152,981,-163,123,-485
1243,-251,-159,973,-75,42,-477
1244,-246,-156,959,-28,1,-465
1245,-255,-157,925,-34,19,-458
1246,-264,-155,930,-28,64,-442
1247,-242,-155,948,21,146,-409
1248,-251,-153,949,68,189,-411
1249,-253,-157,947,15,218,-397
1250,-247,-154,965,-118,259,-383
1251,-243,-176,989,-184,240,-417
1252,-240,-173,970,-174,158,-479
1253,-262,-170,960,-127,31,-512
1254,-275,-160,975,-69,-40,-493
1255,-266,-160,945,-61,-32,-438
1256,-268,-152,936,-38,1,-456
1257,-271,-167,932,-69,101,-479
1258,-261,-189,921,-184,195,-471
1259,-268,-195,925,-274,238,-475
1260,-273,-206,928,-278,259,-483
1261,-264,-220,947,-190,261,-497
1262,-268,-197,959,-4,269,-567
1263,-285,-164,979,54,242,-561
1264,-278,-152,1003,85,218,-512
1265,-271,-166,986,113,160,-471
1266,-259,-177,989,103,91,-459
1267,-267,-162,981,39,82,-467
1268,-257,-156,967,-90,78,-452
1269,-255,-163,965,-170,101,-422
1270,-267,-173,930,-137,115,-409
1271,-283,-197,937,-2,173,-426
1272,-274,-194,946,109,236,-448
1273,-270,-198,967,107,261,-483
1274,-264,-169,980,29,285,-534
1275,-280,-150,1026,-57,259,-534
1276,-282,-157,1013,-59,208,-506
1277,-274,-170,995,-51,126,-495
1278,-282,-171,995,-59,64,-495
1279,-275,-170,972,-40,48,-463
1280,-287,-178,960,13,42,-399
1281,-293,-217,962,87,39,-344
1282,-283,-225,959,242,109,-399
1283,-290,-221,961,283,164,-481
1284,-291,-224,999,218,193,-540
1285,-296,-192,1004,99,220,-616
1286,-288,-158,1023,-30,208,-622
1287,-277,-151,1022,-96,144,-579
1288,-272,-165,1006,-71,54,-549
1289,-262,-174,965,-26,3,-516
1290,-289,-193,961,-2,-16,-461
1291,-291,-214,960,29,21,-413
1292,-298,-239,961,107,82,-450
1293,-301,-230,961,193,125,-520
1294,-297,-225,987,185,162,-575
1295,-295,-209,987,82,154,-637
1296,-280,-207,1006,-81,101,-674
1297,-273,-172,986,-145,42,-686
1298,-262,-163,978,-94,-10,-625
1299,-274,-153,982,56,-42,-569
1300,-276,-161,959,136,-65,-506
1301,-259,-169,937,87,-59,-446
1302,-275,-196,925,19,-12,-454
1303,-272,-198,929,37,82,-526
1304,-271,-197,947,0,160,-602
1305,-264,-190,961,-135,173,-622
1306,-281,-159,971,-178,162,-610
1307,-266,-141,963,-106,138,-557
1308,-254,-168,964,29,93,-524
1309,-267,-151,955,128,44,-491
1310,-277,-137,951,167,50,-434
1311,-281,-162,934,156,82,-383
1312,-287,-173,946,109,136,-395
1313,-292,-187,939,7,232,-432
1314,-282,-194,970,-92,259,-481
1315,-277,-188,970,-145,212,-516
1316,-285,-196,957,-55,162,-549
1317,-288,-172,951,29,103,-565
1318,-301,-154,970,140,39,-561
1319,-300,-136,977,248,-28,-522
1320,-296,-133,962,324,-57,-471
1321,-295,-139,950,255,-67,-436
1322,-286,-157,941,85,-51,-391
1323,-279,-181,917,-22,1,-409
1324,-283,-161,896,-108,95,-420
1325,-267,-161,927,-135,205,-407
1326,-251,-157,937,-49,238,-418
1327,-272,-136,950,117,189,-395
1328,-278,-124,957,240,146,-346
1329,-287,-120,973,275,130,-309
1330,-291,-131,1006,146,142,-249
1331,-275,-111,991,-38,119,-196
1332,-293,-154,985,-204,76,-223
1333,-272,-166,966,-338,56,-198
1334,-291,-183,941,-356,1,-200
1335,-279,-222,921,-303,13,-209
1336,-293,-227,922,-139,68,-282
1337,-301,-207,948,21,140,-366
1338,-297,-176,962,97,207,-331
1339,-293,-176,989,150,214,-303
1340,-272,-168,994,146,181,-274
1341,-280,-137,978,130,111,-217
1342,-281,-136,981,29,82,-180
1343,-272,-159,976,0,29,-161
1344,-272,-151,964,-57,-65,-168
1345,-272,-162,943,-47,-100,-211
1346,-288,-173,931,-8,-65,-217
1347,-289,-195,916,70,25,-252
1348,-295,-192,906,111,132,-317
1349,-267,-163,929,68,257,-368
1350,-279,-130,962,27,296,-350
1351,-291,-96,993,64,267,-252
1352,-285,-122,1015,146,177,-147
1353,-283,-135,1011,171,72,-104
1354,-288,-132,979,107,21,-67
1355,-281,-149,985,107,1,-34
1356,-280,-178,970,126,-42,-30
1357,-300,-207,963,171,-45,-100
1358,-316,-194,936,175,37,-176
1359,-314,-170,979,185,107,-250
1360,-300,-152,996,103,177,-262
1361,-287,-115,1023,23,128,-254
1362,-281,-126,1020,-2,3,-192
1363,-272,-122,995,105,-98,-137
1364,-268,-132,961,183,-147,-69
1365,-285,-160,950,197,-141,-18
1366,-289,-172,940,166,-84,9
1367,-300,-177,938,179,15,-8
1368,-298,-186,945,267,125,-104
1369,-285,-172,974,228,162,-139
1370,-286,-159,971,160,167,-170
1371,-292,-136,986,64,142,-178
1372,-288,-119,1013,-43,101,-124
1373,-285,-138,1018,-73,11,-92
1374,-297,-145,985,-20,-122,-34
1375,-289,-167,961,23,-165,50
1376,-285,-178,958,42,-172,121
1377,-270,-189,947,70,-143,78
1378,-284,-179,938,130,-135,-32
1379,-292,-175,920,148,-67,-133
1380,-285,-174,927,78,21,-172
1381,-297,-158,988,-2,89,-174
1382,-280,-138,1010,-124,101,-174
1383,-267,-122,1033,-168,1,-145
1384,-273,-144,1028,-73,-122,-59
1385,-284,-160,984,3,-202,-49
1386,-279,-178,953,-57,-227,-53
1387,-283,-173,945,-116,-231,-75
1388,-288,-177,941,-100,-188,-102
1389,-290,-167,929,29,-118,-149
1390,-276,-194,940,54,-55,-149
1391,-261,-179,954,80,-42,-163
1392,-263,-147,955,46,-51,-184
1393,-268,-129,964,35,-55,-157
1394,-253,-115,958,15,-75,-145
1395,-250,-133,961,-47,-110,-110
1396,-256,-141,957,-61,-118,-81
1397,-271,-153,948,-32,-96,-30
1398,-270,-167,946,78,-61,0
1399,-273,-168,951,216,-30,9
1400,-281,-170,950,294,-20,0
1401,-268,-163,975,263,-12,-4
1402,-262,-157,960,216,-8,-8
1403,-274,-160,986,166,-6,7
1404,-266,-165,975,87,7,17
1405,-257,-162,966,25,-10,9
1406,-272,-148,964,27,-61,9
1407,-267,-140,959,56,-83,27
1408,-264,-148,955,158,-100,39
1409,-282,-157,944,251,-84,48
1410,-270,-137,943,291,-18,29
1411,-273,-137,964,224,42,3
1412,-264,-139,973,80,76,-26
1413,-259,-119,972,-135,138,-61
1414,-266,-113,984,-290,160,-57
1415,-267,-133,1001,-292,105,-12
1416,-271,-153,989,-167,25,23
1417,-271,-162,977,-55,-24,48
1418,-270,-168,972,-10,-42,44
1419,-278,-172,955,-55,-18,23
1420,-274,-178,966,-98,-8,-14
1421,-297,-173,968,-143,19,-49
1422,-288,-173,989,-182,54,-79
1423,-282,-187,975,-202,66,-92
1424,-268,-180,1003,-209,35,-88
1425,-265,-175,1006,-223,-55,-106
1426,-275,-153,981,-182,-122,-102
1427,-266,-150,982,-79,-133,-75
1428,-265,-159,967,41,-155,-55
1429,-266,-164,957,111,-165,-67
1430,-259,-153,950,11,-127,-114
1431,-230,-168,934,-94,-88,-190
1432,-278,-146,941,-168,-32,-254
1433,-258,-146,943,-209,19,-155
1434,-255,-150,950,-180,1,-155
1435,-264,-137,953,-159,-6,-129
1436,-270,-131,970,-49,-10,-61
1437,-262,-146,984,93,3,11
1438,-285,-161,968,105,-61,21
1439,-282,-154,958,64,-45,15
1440,-283,-173,970,0,0,1
1441,-274,-181,975,-75,19,-36
1442,-283,-183,962,-180,41,-92
1443,-286,-173,981,-256,44,-108
1444,-274,-171,981,-239,37,-98
1445,-287,-171,974,-141,-12,-83
1446,-285,-179,977,-42,-51,-43
1447,-268,-183,978,48,-51,-32
1448,-270,-178,1005,97,-51,-47
1449,-287,-177,992,68,-79,-61
1450,-262,-170,970,23,-73,-84
1451,-267,-159,982,-67,-94,-108
1452,-255,-172,992,-139,-110,-129
1453,-257,-159,979,-151,-135,-159
1454,-253,-148,972,-131,-172,-167
1455,-258,-141,962,-88,-159,-131
1456,-255,-134,955,-28,-112,-73
1457,-254,-142,949,25,-79,-45
1458,-253,-145,958,15,-69,-32
1459,-252,-154,971,-22,-88,-20
1460,-256,-150,958,-84,-79,-67
1461,-259,-142,959,-176,-53,-81
1462,-245,-148,971,-235,-28,-83
1463,-262,-140,983,-262,-43,-90
1464,-259,-140,977,-241,-45,-83
1465,-263,-137,976,-161,-43,-24
1466,-262,-149,972,-55,-47,37
1467,-274,-154,974,-2,-36,64
1468,-259,-163,983,62,-43,80
1469,-253,-183,975,101,-73,78
1470,-264,-182,983,37,-88,33
1471,-252,-154,971,-104,-110,-8
1472,-259,-158,973,-196,-110,-26
1473,-256,-150,957,-235,-92,-49
1474,-261,-148,971,-215,-67,-47
1475,-261,-167,976,-153,-47,-22
1476,-257,-172,964,-96,-18,5
1477,-263,-172,975,-40,7,21
1478,-255,-179,977,29,21,29
1479,-258,-164,1011,23,-4,27
1480,-255,-165,1003,-2,-43,33
1481,-259,-168,979,-61,-116,23
1482,-259,-172,961,-94,-147,11
1483,-249,-170,939,-102,-129,3
1484,-258,-181,950,-100,-116,23
1485,-249,-181,923,-49,-65,5
1486,-251,-154,952,-34,-2,-36
1487,-250,-156,950,5,46,-12
1488,-249,-153,988,39,58,27
1489,-259,-163,973,29,42,21
1490,-248,-172,969,-8,9,15
1491,-238,-176,978,-61,-8,23
1492,-237,-166,974,-77,-49,-6
1493,-232,-167,965,-124,-71,-26
1494,-248,-157,958,-102,-88,-26
1495,-249,-161,955,-61,-51,-14
1496,-255,-176,952,-55,3,-6
1497,-267,-183,957,-83,33,-16
1498,-250,-185,958,-84,76,-20
1499,-248,-167,980,-55,87,-24
1500,-257,-168,999,-14,50,-26
1501,-263,-154,1010,1,23,-10
1502,-259,-149,1004,-20,-28,11
1503,-254,-149,990,-16,-81,33
1504,-258,-163,980,1,-112,64
1505,-251,-170,949,7,-116,72
1506,-258,-195,938,-20,-75,78
1507,-266,-198,934,-40,15,33
1508,-255,-203,959,-108,105,-59
1509,-261,-170,981,-182,158,-96
1510,-257,-160,990,-227,136,-98
1511,-245,-146,1011,-159,70,-77
1512,-264,-141,990,-32,-36,-32
1513,-263,-160,974,80,-100,48
1514,-256,-170,959,138,-81,52
1515,-250,-181,960,80,-69,23
1516,-244,-162,963,-14,-42,-4
1517,-247,-155,970,-79,-6,-20
1518,-250,-166,988,-69,21,-28
1519,-253,-175,966,-69,41,-51
1520,-239,-180,982,-124,41,-86
1521,-239,-153,989,-165,13,-110
1522,-264,-137,991,-145,-42,-90
1523,-258,-125,1010,-59,-83,-28
1524,-253,-149,978,50,-133,29
1525,-251,-168,949,78,-182,42
1526,-260,-171,960,15,-178,31
1527,-254,-177,950,-90,-124,13
1528,-255,-172,929,-159,-84,-12
1529,-272,-171,936,-194,-28,-67
1530,-257,-167,935,-196,70,-61
1531,-248,-160,972,-96,105,-55
1532,-250,-153,984,1,72,-32
1533,-252,-153,976,35,15,-12
1534,-250,-175,967,0,-12,-4
1535,-255,-169,998,-94,-26,-10
1536,-255,-181,969,-176,-69,-12
1537,-262,-178,957,-209,-92,-32
1538,-259,-189,955,-206,-61,-32
1539,-259,-191,930,-172,-14,-38
1540,-268,-198,953,-141,37,-57
1541,-254,-197,972,-96,76,-94
1542,-250,-188,968,-55,97,-114
1543,-252,-161,1011,-34,80,-96
1544,-244,-142,1011,33,17,-69
1545,-248,-145,989,56,-65,-40
1546,-248,-158,966,-2,-114,-14
1547,-241,-159,955,-94,-77,-12
1548,-254,-166,934,-135,-26,-26
1549,-256,-177,932,-135,7,-28
1550,-260,-180,946,-125,62,-51
1551,-254,-174,966,-120,126,-88
1552,-256,-171,960,-98,119,-98
1553,-238,-163,970,-69,80,-88
1554,-261,-156,980,-18,56,-73
1555,-253,-135,998,37,29,-45
1556,-255,-137,981,27,5,5
1557,-258,-157,976,1,-28,15
1558,-244,-163,973,-47,-49,0
1559,-240,-160,945,-88,-57,-18
1560,-242,-171,932,-106,-18,-30
1561,-257,-181,931,-122,56,-40
1562,-251,-166,945,-84,136,-55
1563,-249,-161,961,-34,158,-59
1564,-264,-143,981,0,158,-30
1565,-254,-147,996,9,125,23
1566,-245,-162,1011,11,78,23
1567,-251,-173,992,-30,21,11
1568,-266,-180,975,-94,-16,11
1569,-264,-185,991,-98,1,-8
1570,-273,-188,980,-108,23,-32
1571,-271,-179,977,-125,25,-51
1572,-258,-172,981,-139,50,-53
1573,-255,-160,989,-108,52,-42
1574,-256,-156,995,-53,25,-26
1575,-258,-161,995,-38,-6,-6
1576,-252,-154,1006,-36,-55,11
1577,-249,-164,979,-6,-83,48
1578,-264,-181,963,31,-96,58
1579,-267,-193,953,27,-79,37
1580,-268,-197,929,-28,-24,-8
1581,-265,-187,944,-100,52,-61
1582,-259,-162,982,-125,101,-84
1583,-253,-146,973,-106,101,-92
1584,-237,-134,986,-65,46,-34
1585,-244,-143,998,27,-6,21
1586,-256,-145,995,54,-38,60