sequence,AccelerometerX,AccelerometerY,AccelerometerZ,GyroscopeX,GyroscopeY,GyroscopeZ
0,315,34,937,-4,-62,-4
1,331,34,926,-8,59,-101
2,320,41,913,-17,-16,-47
3,328,35,947,0,123,-98
4,344,44,962,12,147,-84
5,346,59,965,26,117,-90
6,346,55,957,24,88,-115
7,349,52,976,37,63,-84
8,350,70,973,35,35,-57
9,334,63,966,-15,16,-45
10,337,41,971,-76,45,20
11,338,37,932,-62,12,-10
12,317,42,964,-90,57,24
13,329,34,967,-125,68,10
14,329,36,971,-164,88,4
15,330,30,970,-172,92,14
16,319,28,957,-158,82,24
17,330,39,973,-103,70,25
18,329,39,964,-53,70,-8
19,337,27,971,-21,51,-25
20,329,29,968,0,41,-25
21,339,22,969,-19,35,-35
22,342,30,964,-62,22,-57
23,342,33,962,-109,6,-80
24,321,38,993,-99,22,-109
25,319,59,986,-53,47,-117
26,341,59,998,-4,65,-88
27,338,56,1005,26,76,-68
28,338,62,988,22,47,-62
29,337,37,982,0,2,-37
30,329,30,981,-56,-21,-23
31,321,36,955,-121,-27,-18
32,308,38,950,-152,4,-18
33,301,46,961,-152,45,-14
34,315,49,980,-109,67,-2
35,329,48,976,-80,45,2
36,331,39,973,-62,0,4
37,332,40,978,-35,-31,2
38,321,36,964,-2,-64,-6
39,311,34,951,6,-80,-18
40,300,26,946,14,-62,-29
41,305,37,954,4,-21,-53
42,308,42,972,24,24,-64
43,317,51,963,55,65,-84
44,325,49,969,67,98,-80
45,339,53,981,61,76,-45
46,321,51,974,33,16,8
47,308,35,955,10,-19,31
48,305,36,950,26,-14,18
49,304,21,932,29,16,-4
50,298,18,962,29,43,-23
51,311,28,965,16,49,-55
52,308,27,982,8,49,-72
53,327,22,997,8,39,-80
54,327,20,993,-19,0,-94
55,323,18,988,-64,-49,-90
56,322,20,983,-115,-103,-74
57,320,30,952,-170,-146,-57
58,314,37,938,-177,-150,-39
59,305,50,955,-158,-113,-49
60,307,52,940,-129,-35,-74
61,315,53,957,-84,33,-88
62,323,42,958,-4,74,-47
63,336,47,972,45,86,-29
64,340,37,991,55,63,-41
65,347,33,1006,37,24,-29
66,339,35,973,18,-16,-14
67,336,28,985,-9,-47,-35
68,334,37,969,-47,-53,-43
69,325,35,972,-47,-45,-16
70,321,20,956,-33,-14,-16
71,336,18,946,-9,10,-10
72,324,17,956,-39,-17,-53
73,340,30,965,-47,10,-86
74,347,25,949,-72,12,-76
75,336,47,947,-123,-23,-43
76,344,44,946,-134,-58,8
77,337,29,963,-113,-70,27
78,332,24,952,-68,-76,23
79,332,14,938,-52,-62,-10
80,336,17,943,-58,-53,-25
81,334,13,922,-80,-39,-39
82,331,-5,922,-95,-45,-55
83,333,8,918,-131,-39,-55
84,333,15,894,-158,4,-66
85,334,13,892,-162,51,-96
86,339,24,909,-156,67,-121
87,342,31,904,-146,49,-131
88,328,42,913,-144,12,-117
89,321,41,908,-152,-35,-103
90,316,51,908,-131,-41,-107
91,327,62,908,-64,18,-127
92,316,64,916,8,109,-135
93,331,56,943,53,170,-111
94,322,46,936,37,197,-86
95,336,40,927,-13,180,-57
96,328,38,926,-52,156,-29
97,317,30,913,-74,156,-27
98,337,36,900,-95,164,-61
99,332,33,896,-127,156,-55
100,332,31,895,-168,143,-43
101,332,20,880,-238,119,-31
102,320,10,855,-349,70,12
103,306,-22,805,-513,10,41
104,293,-61,748,-691,-80,86
105,270,-106,687,-943,-201,184
106,215,-133,590,-1343,-371,283
107,160,-139,480,-1926,-549,447
108,180,-164,327,-2556,-871,672
109,193,-106,195,-3025,-996,760
110,107,-71,67,-2959,-830,539
111,30,-63,-28,-2013,-570,80
112,-7,-39,-91,-588,-193,-412
113,-32,-30,-128,752,270,-830
114,-76,-31,-143,1633,703,-1070
115,-118,-51,-161,1948,1078,-1135
116,-163,-107,-168,1762,1358,-1049
117,-180,-143,-218,1149,1529,-894
118,-216,-161,-271,184,1619,-818
119,-221,-109,-327,-1006,1668,-918
120,-180,29,-346,-2222,1848,-1164
121,-210,235,-353,-3146,2291,-1412
122,-307,458,-297,-3302,2965,-1559
123,-426,734,-146,-2426,3838,-1539
124,-548,913,87,-644,4879,-1207
125,-613,965,413,1623,5940,-592
126,-645,905,774,3707,7008,-12
127,-646,766,1280,5157,7809,289
128,-530,695,1874,5737,7947,22
129,-392,720,2048,5258,7430,-228
130,-272,789,2048,3473,6096,18
131,-276,832,2048,987,4322,867
132,-408,792,2048,-1070,3318,2025
133,-413,696,2048,-2211,3059,2938
134,-397,634,2048,-2299,3430,3205
135,-405,612,2048,-1476,3858,3037
136,-409,620,2048,-211,4076,2701
137,-391,505,2048,797,3973,2397
138,-278,401,2048,1457,3463,2047
139,-194,378,2048,1699,2621,1707
140,-145,419,2048,1776,1621,1625
141,-149,454,2048,1641,791,1844
142,-178,430,2048,1373,250,2244
143,-145,415,2048,1022,-115,2656
144,-118,362,2048,668,-367,2861
145,-111,322,2048,625,-557,2918
146,-116,274,2048,811,-721,2941
147,-144,242,2048,1073,-742,2879
148,-166,163,2048,1268,-664,2816
149,-219,108,2048,1354,-666,2816
150,-206,25,2048,1323,-849,2830
151,-130,1,2048,1149,-1244,2801
152,-118,-36,2048,963,-2008,2789
153,-165,-109,2048,818,-2871,2897
154,-208,-255,2048,686,-3496,3024
155,-236,-395,2048,430,-3926,3137
156,-280,-546,2048,61,-4351,3102
157,-295,-647,2048,-291,-4877,2936
158,-328,-658,1900,-523,-5320,2684
159,-363,-628,1695,-693,-5576,2297
160,-406,-598,1490,-795,-5676,1885
161,-426,-593,1299,-779,-5613,1545
162,-417,-565,1130,-713,-5449,1152
163,-391,-542,967,-721,-5301,768
164,-368,-506,813,-758,-5203,484
165,-348,-460,716,-746,-5121,240
166,-314,-411,622,-701,-5004,-6
167,-266,-348,552,-596,-4861,-166
168,-229,-321,498,-418,-4781,-285
169,-193,-266,471,-254,-4777,-445
170,-133,-222,448,-236,-4723,-555
171,-111,-169,412,-287,-4623,-592
172,-81,-92,349,-410,-4494,-582
173,-67,-32,263,-533,-4318,-605
174,-38,-3,188,-584,-4064,-596
175,-27,9,64,-562,-3707,-529
176,6,21,-24,-525,-3271,-498
177,53,33,-80,-549,-2828,-498
178,96,102,-147,-471,-2558,-451
179,143,141,-228,-287,-2348,-312
180,185,126,-285,-103,-2125,-156
181,216,87,-302,113,-1922,-39
182,236,70,-340,293,-1730,-21
183,245,80,-368,414,-1494,-86
184,270,91,-362,574,-1154,-225
185,282,127,-299,742,-758,-359
186,308,189,-257,801,-285,-463
187,325,244,-186,799,207,-543
188,333,286,-89,723,647,-560
189,397,332,10,670,1031,-488
190,446,347,122,707,1283,-424
191,468,375,215,836,1332,-373
192,473,345,340,914,1350,-228
193,486,283,488,899,1361,-23
194,544,242,640,838,1234,45
195,573,249,711,693,1000,-59
196,546,282,771,524,707,-193
197,485,292,840,346,504,-334
198,455,334,868,82,486,-402
199,487,363,877,-195,582,-310
200,497,364,868,-324,598,-141
201,512,365,855,-264,568,18
202,497,367,854,-101,568,47
203,478,348,844,94,662,104
204,486,305,864,252,824,197
205,483,277,891,320,1047,227
206,470,267,951,297,1252,201
207,459,213,1029,227,1326,168
208,466,188,1103,160,1260,154
209,487,186,1110,45,1149,92
210,480,190,1144,-162,942,29
211,473,204,1141,-355,641,55
212,455,208,1121,-469,340,133
213,453,202,1089,-504,123,164
214,450,188,1038,-428,22,125
215,448,194,987,-324,-23,106
216,445,176,964,-273,-41,182
217,440,160,934,-238,-37,283
218,422,140,896,-185,2,354
219,433,111,897,-139,76,375
220,427,114,885,-107,164,342
221,431,132,893,-135,272,281
222,439,132,924,-189,354,262
223,449,142,948,-146,361,227
224,436,140,946,-55,287,145
225,439,142,933,74,227,47
226,438,151,932,186,186,-64
227,436,141,919,276,141,-105
228,432,130,940,307,111,-49
229,431,141,937,258,104,-31
230,448,157,916,166,100,-18
231,447,183,931,45,39,98
232,449,198,918,-66,-68,227
233,447,214,894,-174,-193,272
234,443,238,890,-236,-264,297
235,423,235,857,-252,-279,330
236,413,212,848,-211,-217,322
237,402,192,837,-146,-53,207
238,418,152,822,-51,127,76
239,434,132,839,55,248,20
240,439,120,875,156,313,-62
241,427,109,887,213,340,-205
242,443,121,927,184,359,-357
243,442,153,952,70,389,-439
244,441,191,977,-62,350,-406
245,455,236,977,-168,242,-285
246,455,254,984,-205,111,-94
247,443,231,955,-189,-14,78
248,429,200,923,-101,-98,152
249,438,187,904,2,-141,152
250,425,168,903,88,-119,94
251,425,154,891,152,-17,-27
252,433,156,902,164,84,-150
253,436,158,901,68,174,-180
254,422,164,934,-80,231,-166
255,446,174,931,-234,272,-168
256,460,181,949,-381,248,-164
257,457,217,948,-445,166,-152
258,448,231,942,-426,70,-101
259,443,217,913,-293,-14,-17
260,441,214,933,-98,-45,61
261,438,203,913,86,-55,84
262,431,172,892,236,-84,59
263,426,158,875,324,-88,57
264,429,151,875,307,-45,66
265,429,129,871,190,-10,55
266,433,141,868,23,2,33
267,441,154,883,-133,10,10
268,430,161,874,-232,47,-2
269,438,181,895,-223,98,-6
270,432,186,892,-129,96,12
271,437,191,894,-12,63,-2
272,427,179,911,72,57,-29
273,423,153,885,125,65,10
274,425,130,897,147,84,65
275,430,118,911,147,115,59
276,429,90,889,137,141,18
277,433,80,918,113,168,-25
278,429,70,919,45,176,-66
279,424,61,936,-74,182,-90
280,440,57,949,-193,197,-121
281,447,65,951,-303,197,-193
282,449,64,976,-394,147,-291
283,438,91,980,-420,53,-346
284,424,104,967,-373,-21,-357
285,433,104,976,-260,-45,-361
286,434,113,979,-100,-45,-400
287,430,112,964,29,-66,-416
288,440,109,969,33,-119,-389
289,423,109,948,-27,-176,-350
290,415,95,931,-84,-193,-316
291,418,70,907,-109,-148,-328
292,416,71,897,-170,-55,-398
293,431,69,919,-248,10,-449
294,405,79,921,-318,29,-496
295,422,98,924,-389,43,-545
296,421,117,950,-398,65,-568
297,430,142,935,-355,67,-525
298,443,154,954,-305,22,-484
299,429,157,935,-223,-57,-449
300,413,157,933,-68,-123,-416
301,415,152,926,88,-158,-392
302,422,118,926,190,-154,-396
303,413,94,922,174,-135,-428
304,408,93,904,16,-86,-514
305,406,97,905,-264,-29,-582
306,407,97,891,-559,12,-617
307,400,113,894,-807,27,-633
308,397,143,904,-955,63,-644
309,406,156,934,-873,88,-676
310,407,168,923,-607,65,-725
311,407,187,922,-291,35,-754
312,409,184,938,-16,-23,-746
313,421,176,952,125,-96,-721
314,408,178,931,94,-150,-689
315,390,162,910,-60,-172,-652
316,391,142,916,-221,-139,-654
317,392,170,913,-361,-78,-707
318,388,175,893,-461,-33,-721
319,383,188,930,-459,12,-711
320,390,208,914,-402,72,-728
321,396,201,955,-330,98,-725
322,400,200,972,-232,55,-668
323,410,191,956,-156,8,-629
324,404,175,980,-166,-33,-623
325,384,165,974,-269,-98,-601
326,396,170,948,-408,-135,-560
327,390,157,938,-547,-154,-560
328,401,152,910,-682,-158,-594
329,390,144,901,-764,-141,-621
330,388,157,885,-809,-135,-633
331,387,190,887,-732,-101,-670
332,391,189,880,-500,-74,-713
333,396,198,904,-254,-31,-715
334,402,190,905,-53,8,-719
335,401,181,906,66,10,-691
336,401,142,918,92,-31,-644
337,405,117,898,-10,-101,-631
338,405,110,889,-234,-174,-635
339,381,133,874,-488,-152,-668
340,389,136,879,-672,-78,-680
341,387,145,872,-756,16,-641
342,383,172,904,-775,90,-619
343,373,199,899,-760,137,-607
344,375,185,912,-664,137,-551
345,376,177,921,-488,108,-514
346,400,174,914,-289,72,-574
347,418,183,913,-29,-2,-672
348,393,213,918,264,-82,-777
349,380,198,913,430,-109,-807
350,375,194,918,447,-62,-725
351,367,171,926,338,57,-641
352,384,160,935,143,172,-609
353,397,165,966,-56,262,-598
354,395,174,998,-232,291,-572
355,399,182,999,-379,264,-574
356,396,179,1013,-461,166,-545
357,400,168,1008,-517,61,-477
358,389,157,982,-550,-41,-441
359,379,146,977,-541,-131,-447
360,379,158,958,-486,-195,-488
361,368,161,951,-416,-189,-498
362,363,155,935,-341,-174,-480
363,373,136,943,-226,-129,-488
364,368,121,946,-156,-55,-551
365,367,137,961,-205,-2,-619
366,389,133,969,-312,-14,-652
367,390,142,949,-439,-37,-660
368,374,140,956,-591,-84,-641
369,366,149,972,-693,-90,-602
370,373,162,982,-738,-78,-588
371,368,168,984,-724,-109,-557
372,382,160,963,-623,-158,-580
373,386,155,943,-465,-207,-611
374,380,147,910,-308,-248,-644
375,356,139,891,-222,-297,-646
376,353,108,866,-224,-320,-600
377,366,113,836,-293,-275,-600
378,366,121,847,-455,-203,-654
379,351,135,848,-605,-115,-721
380,353,162,871,-609,35,-797
381,372,186,916,-500,147,-885
382,399,228,948,-269,176,-965
383,400,261,963,26,131,-1059
384,388,290,973,315,41,-1068
385,387,303,994,522,-39,-930
386,383,301,985,618,-139,-738
387,391,263,975,614,-273,-598
388,372,244,953,547,-375,-557
389,372,249,939,432,-410,-586
390,355,271,919,285,-367,-603
391,351,292,910,80,-308,-582
392,357,314,874,-199,-252,-475
393,362,324,875,-402,-189,-332
394,358,324,869,-443,-119,-248
395,348,324,887,-322,-25,-258
396,373,334,938,-134,70,-277
397,378,330,970,71,137,-269
398,395,321,969,243,141,-240
399,406,303,987,307,88,-180
400,401,308,987,207,-23,-82
401,386,289,964,4,-154,57
402,380,255,921,-150,-254,166
403,376,241,910,-213,-297,203
404,372,231,872,-203,-287,201
405,350,220,870,-168,-211,207
406,362,204,870,-93,-88,168
407,355,194,881,-15,29,125
408,368,192,915,18,113,115
409,379,188,925,34,143,125
410,385,189,921,24,139,133
411,391,175,946,8,92,148
412,396,180,943,20,-2,127
413,389,184,945,-2,-105,113
414,393,175,916,-39,-183,156
415,378,164,902,-56,-223,197
416,376,133,860,-64,-187,221
417,380,120,878,-64,-80,191
418,364,116,883,-52,51,127
419,371,126,900,-23,156,76
420,390,131,917,16,199,35
421,410,138,923,37,147,10
422,414,152,925,20,76,0
423,398,151,920,-33,10,16
424,395,158,915,-31,-25,49
425,395,159,937,-6,-27,55
426,390,165,946,49,4,61
427,399,152,943,102,27,61
428,409,149,947,116,24,41
429,399,147,944,86,-21,41
430,399,138,938,20,-51,27
431,395,134,924,-60,-57,-41
432,397,136,916,-164,-47,-107
433,393,156,905,-259,-57,-125
434,396,181,884,-318,-60,-107
435,395,181,872,-353,-68,-82
436,397,174,871,-418,-90,-35
437,388,183,847,-465,-96,-23
438,388,197,843,-466,-88,-29
439,373,188,826,-424,-78,-33
440,378,193,802,-363,-64,-39
441,390,169,786,-320,-66,-29
442,371,149,736,-345,-105,-19
443,356,145,722,-459,-178,6
444,335,113,659,-634,-258,18
445,315,94,582,-863,-361,57
446,310,64,465,-1154,-488,131
447,304,21,356,-1500,-650,213
448,293,34,264,-1906,-756,250
449,246,35,168,-2252,-697,184
450,201,52,124,-2246,-557,72
451,166,87,51,-2058,-439,4
452,135,96,-24,-1744,-238,-6
453,68,69,-116,-1496,-121,51
454,18,32,-195,-1377,22,68
455,-19,18,-341,-1455,234,37
456,-19,12,-412,-1750,531,12
457,-70,53,-492,-2101,902,-137
458,-154,79,-530,-2209,1418,-359
459,-234,166,-526,-2012,2207,-560
460,-276,292,-475,-1553,3209,-641
461,-357,393,-367,-935,4149,-560
462,-466,413,-231,-62,4914,-295
463,-510,373,-83,973,5455,-100
464,-543,365,112,1871,5904,-68
465,-607,328,280,2477,6486,-174
466,-691,323,554,3098,7170,-447
467,-698,337,861,3842,7859,-719
468,-609,347,1250,4373,8326,-912
469,-496,486,1707,4311,8274,-1215
470,-478,612,2048,3506,7609,-1336
471,-448,708,2048,2213,6608,-943
472,-380,839,2048,1016,5600,-275
473,-343,899,2048,86,4815,447
474,-291,912,2048,-412,4108,1131
475,-303,920,2048,-648,3283,1484
476,-333,909,2048,-855,2500,1625
477,-317,907,2048,-1043,1858,1891
478,-330,904,2048,-914,1467,2119
479,-316,873,2048,-637,1404,2160
480,-255,804,2048,-412,1461,2164
481,-205,786,2048,-246,1313,2217
482,-210,833,2048,-219,1067,2295
483,-266,840,2048,-158,961,2506
484,-304,821,2048,104,1186,2834
485,-287,772,2048,461,1494,3141
486,-313,690,2048,940,1611,3361
487,-273,597,2048,1576,1522,3473
488,-268,465,2048,2100,1297,3479
489,-251,272,2048,2291,918,3533
490,-188,129,2048,2365,240,3529
491,-193,-12,2048,2254,-842,3463
492,-203,-128,2048,1891,-2105,3477
493,-242,-172,2048,1194,-3127,3553
494,-329,-206,2048,459,-3807,3619
495,-366,-267,2048,-43,-4219,3727
496,-359,-279,2048,-342,-4486,3703
497,-362,-297,1968,-488,-4693,3479
498,-368,-354,1817,-390,-4912,3221
499,-340,-417,1665,-164,-5070,2982
500,-344,-449,1538,0,-5117,2748
501,-351,-476,1419,20,-5092,2568
502,-344,-505,1280,-107,-5094,2492
503,-322,-552,1166,-297,-5180,2457
504,-300,-565,1046,-515,-5361,2295
505,-285,-568,895,-797,-5596,1981
506,-276,-580,762,-990,-5861,1572
507,-269,-579,601,-1131,-6035,1088
508,-256,-529,440,-1291,-6111,629
509,-236,-456,286,-1494,-6027,246
510,-199,-361,196,-1611,-5830,-59
511,-179,-267,71,-1545,-5517,-268
512,-147,-205,-5,-1234,-5039,-422
513,-92,-135,-25,-746,-4433,-600
514,-37,-67,-52,-252,-3875,-769
515,51,19,-66,86,-3433,-896
516,117,112,-61,268,-3129,-984
517,150,178,-91,274,-2937,-1010
518,183,247,-110,151,-2715,-828
519,225,301,-105,41,-2437,-475
520,262,265,-105,51,-2101,-96
521,265,207,-70,147,-1767,154
522,287,188,-28,143,-1418,201
523,316,133,26,121,-1043,113
524,362,99,111,139,-783,-14
525,395,132,160,63,-601,-156
526,431,187,234,-31,-473,-213
527,433,189,290,-53,-361,-193
528,491,201,351,29,-219,-221
529,502,213,425,121,-51,-326
530,503,200,460,186,96,-465
531,501,214,498,153,137,-576
532,511,232,515,-19,78,-576
533,529,255,523,-242,-53,-502
534,529,292,518,-392,-187,-412
535,518,321,498,-418,-217,-332
536,507,318,473,-355,-215,-244
537,491,325,447,-295,-182,-176
538,460,378,472,-187,53,-201
539,452,398,527,55,436,-215
540,503,391,595,342,775,-184
541,510,384,664,557,1006,-203
542,525,358,705,653,1094,-268
543,543,319,742,547,1086,-240
544,556,293,771,338,945,-84
545,553,259,788,100,742,123
546,566,213,782,-148,512,242
547,553,196,770,-361,318,188
548,503,227,787,-519,346,84
549,516,258,791,-533,465,76
550,546,275,763,-496,553,92
551,549,288,759,-455,594,61
552,511,292,789,-365,621,68
553,507,282,815,-199,695,148
554,528,252,832,55,742,213
555,538,230,829,282,686,231
556,533,208,821,438,604,215
557,526,189,849,510,555,188
558,508,186,869,524,551,150
559,496,175,893,455,588,88
560,492,179,921,334,652,25
561,484,186,938,170,729,22
562,491,187,954,0,787,12
563,501,194,963,-134,785,0
564,498,193,982,-230,729,39
565,503,201,970,-291,592,107
566,498,196,924,-285,402,150
567,491,187,903,-232,250,182
568,477,188,879,-199,145,180
569,456,183,853,-258,108,174
570,452,158,845,-373,154,145
571,449,161,854,-513,256,88
572,460,193,876,-648,375,57
573,483,222,906,-701,451,68
574,483,239,929,-681,471,107
575,489,241,944,-523,434,145
576,470,252,972,-224,420,129
577,498,230,971,119,397,61
578,498,200,979,352,332,43
579,490,166,976,387,233,61
580,496,145,941,213,117,78
581,472,143,941,-88,35,92
582,459,147,913,-369,20,115
583,464,142,911,-539,67,129
584,456,158,914,-584,151,72
585,448,188,935,-529,223,-19
586,467,215,922,-365,248,-92
587,468,226,931,-148,236,-111
588,479,224,923,86,217,-100
589,471,207,933,256,162,-55
590,489,184,919,326,76,-19
591,484,156,902,317,-16,-4
592,474,143,894,180,-62,-14
593,435,152,874,-21,-27,-29
594,451,141,877,-211,76,-19
595,476,151,864,-322,158,-6
596,469,152,894,-365,166,4
597,457,149,857,-377,117,20
598,455,141,865,-427,68,33
599,450,140,855,-422,74,22
600,463,146,834,-373,88,-35
601,472,160,833,-340,74,-59
602,452,161,810,-248,74,-64
603,436,155,820,-138,104,-61
604,437,153,829,-27,201,-94
605,449,140,836,63,338,-123
606,457,132,872,88,440,-146
607,464,136,902,39,483,-189
608,475,151,930,-54,461,-197
609,482,128,951,-183,393,-131
610,463,126,962,-357,277,-94
611,459,125,967,-560,145,-86
612,447,142,954,-740,51,-72
613,455,170,936,-832,-2,-68
614,443,184,901,-771,-39,-82
615,444,196,901,-621,-51,-109
616,443,193,883,-418,-27,-131
617,454,195,878,-267,22,-150
618,432,188,863,-179,82,-150
619,439,167,868,-142,143,-131
620,440,166,870,-174,188,-117
621,431,160,883,-254,217,-88
622,436,154,900,-332,234,-59
623,452,166,912,-394,229,2
624,458,181,912,-441,203,78
625,444,185,909,-412,145,96
626,442,190,901,-242,94,78
627,417,177,897,18,104,66
628,416,160,891,284,188,41
629,432,136,901,461,256,-21
630,427,113,915,461,305,-43
631,444,99,935,371,307,-74
632,437,110,948,182,299,-98
633,440,113,950,-117,281,-53
634,424,114,953,-398,258,18
635,431,132,975,-529,246,64
636,438,121,982,-463,217,55
637,436,114,967,-300,137,29
638,432,117,964,-121,57,-25
639,418,115,964,57,12,-94
640,425,102,966,127,-16,-123
641,431,90,948,112,-25,-129
642,424,91,928,28,-39,-135
643,417,74,902,-129,-16,-164
644,405,73,896,-320,67,-201
645,409,47,907,-468,133,-170
646,414,56,906,-523,180,-139
647,420,45,916,-523,192,-172
648,428,46,949,-443,197,-242
649,444,71,965,-283,182,-293
650,444,64,967,-70,145,-332
651,429,63,982,67,59,-350
652,436,65,964,116,-51,-375
653,436,83,923,14,-168,-414
654,426,92,878,-158,-225,-373
655,397,80,878,-283,-166,-299
656,404,72,862,-310,-45,-299
657,411,70,883,-271,70,-352
658,411,81,899,-195,178,-404
659,407,85,920,-96,258,-418
660,414,93,934,47,315,-426
661,411,72,958,160,352,-410
662,428,75,990,237,358,-391
663,443,44,1016,250,279,-428
664,435,41,1039,172,145,-488
665,436,46,1021,-2,-4,-533
666,447,42,1006,-236,-154,-510
667,420,52,968,-500,-279,-461
668,391,59,926,-697,-320,-459
669,386,58,891,-748,-275,-469
670,387,48,876,-742,-207,-477
671,382,35,870,-709,-119,-480
672,385,62,882,-609,35,-527
673,400,60,916,-406,125,-643
674,405,56,917,-113,150,-756
675,411,71,917,113,156,-836
676,415,59,932,219,102,-850
677,408,56,935,174,68,-818
678,404,46,922,59,41,-777
679,398,36,932,-142,-16,-775
680,388,33,940,-289,-41,-777
681,386,54,931,-367,-35,-844
682,383,66,913,-381,-2,-922
683,387,68,938,-340,43,-943
684,396,97,960,-289,90,-963
685,407,123,973,-248,123,-984
686,393,125,957,-244,31,-978
687,392,123,956,-203,-25,-914
688,379,128,941,-109,-55,-918
689,387,118,952,33,-64,-996
690,391,140,937,170,-31,-1092
691,383,167,939,156,-19,-1131
692,383,167,949,74,-10,-1068
693,382,176,960,12,-6,-1012
694,373,182,958,-12,-19,-1002
695,372,185,975,-21,-31,-992
696,381,182,973,-51,-49,-1010
697,379,191,982,-92,-80,-1014
698,371,206,969,-203,-135,-939
699,374,209,957,-312,-174,-881
700,372,219,959,-379,-191,-836
701,374,208,933,-431,-207,-812
702,374,209,922,-459,-176,-803
703,362,207,906,-525,-168,-777
704,347,213,913,-527,-146,-789
705,368,230,895,-373,-96,-797
706,374,209,895,-211,-109,-795
707,370,185,911,-111,-119,-758
708,361,185,922,-62,-111,-732
709,361,168,928,-25,-123,-750
710,370,151,910,6,-142,-789
711,374,145,896,-72,-193,-799
712,347,134,889,-219,-187,-789
713,347,145,883,-357,-133,-783
714,354,160,889,-400,4,-787
715,368,177,886,-400,117,-748
716,369,187,893,-385,117,-734
717,374,176,892,-287,80,-752
718,361,186,922,-111,70,-783
719,374,200,927,115,92,-838
720,383,191,947,272,63,-863
721,384,198,955,358,41,-855
722,378,189,954,326,-8,-848
723,372,184,944,170,-43,-824
724,373,188,923,-41,-68,-785
725,355,190,932,-226,-84,-730
726,345,194,932,-285,-51,-705
727,347,208,930,-262,12,-715
728,348,204,949,-191,47,-734
729,366,207,951,-99,47,-752
730,370,226,963,-45,57,-785
731,363,245,965,-94,16,-775
732,364,259,978,-176,-72,-695
733,350,250,955,-205,-139,-627
734,350,247,943,-195,-172,-613
735,348,235,912,-164,-195,-621
736,341,213,915,-168,-201,-613
737,347,197,913,-228,-160,-611
738,333,193,914,-310,-103,-643
739,342,203,921,-371,-37,-680
740,340,216,946,-414,31,-707
741,350,255,976,-424,106,-715
742,374,272,990,-416,117,-682
743,385,268,997,-428,-10,-592
744,381,258,968,-418,-187,-547
745,353,254,954,-410,-326,-562
746,329,246,941,-359,-355,-560
747,330,261,928,-291,-308,-531
748,338,285,927,-275,-236,-518
749,356,283,935,-244,-172,-473
750,339,273,934,-172,-146,-430
751,348,283,952,-80,-105,-451
752,345,290,935,-35,-74,-486
753,345,295,926,-47,-78,-461
754,353,296,945,-27,-96,-389
755,358,293,965,12,-105,-369
756,367,311,963,6,-127,-402
757,357,309,970,-58,-207,-371
758,348,305,960,-107,-256,-301
759,353,312,916,-98,-301,-205
760,349,317,941,-109,-279,-258
761,354,303,873,-60,-336,-148
762,348,299,860,-19,-357,-96
763,346,287,829,4,-332,-60
764,342,283,836,27,-246,-37
765,348,272,831,43,-117,-59
766,348,262,838,68,8,-70
767,358,273,858,108,123,-39
768,375,267,903,152,182,4
769,386,252,916,168,131,41
770,385,226,914,139,12,98
771,370,226,921,82,-68,117
772,365,218,905,10,-103,106
773,368,213,888,-78,-105,125
774,374,202,869,-178,-94,190
775,358,187,860,-244,-64,246
776,349,168,854,-262,-6,227
777,349,161,835,-301,59,162
778,364,158,854,-277,125,107
779,355,168,880,-223,203,51
780,375,175,916,-150,275,18
781,388,191,953,-88,295,0
782,390,207,977,-33,234,-4
783,398,203,968,22,125,20
784,388,203,971,29,-19,72
785,371,186,945,-10,-141,131
786,364,156,934,-47,-180,154
787,365,162,902,-58,-150,160
788,374,144,892,-72,-74,135
789,370,137,912,-90,2,63
790,360,161,936,-94,88,-29
791,372,164,952,-99,162,-59
792,379,178,979,-115,203,-29
793,390,193,980,-135,199,-4
794,387,194,986,-101,117,2
795,387,199,1009,-49,29,-12
796,385,205,975,-33,-31,-8
797,380,197,970,-58,-96,41
798,365,189,949,-88,-133,102
799,377,175,927,-78,-121,125
800,378,163,916,-45,-58,115
801,366,142,936,8,18,80
802,375,136,944,61,57,27
803,389,137,958,74,41,-66
804,392,149,971,12,-8,-133
805,390,168,986,-119,-66,-146
806,384,193,948,-246,-103,-94
807,386,197,932,-340,-144,-2
808,386,184,924,-314,-187,80
809,382,185,909,-209,-223,66
810,374,159,900,-99,-232,16
811,375,155,894,29,-197,-8
812,380,146,900,125,-137,-31
813,391,139,891,139,-68,-74
814,382,149,908,14,-35,-98
815,382,144,885,-152,-25,-62
816,373,159,878,-275,-6,-49
817,382,165,897,-312,18,-70
818,379,187,911,-279,39,-94
819,387,187,915,-176,51,-84
820,386,184,921,-53,35,-76
821,384,163,937,43,-6,-74
822,387,162,928,82,-74,-80
823,381,165,901,16,-152,-64
824,386,150,859,-119,-215,-37
825,370,143,849,-262,-250,-18
826,353,136,817,-379,-242,-39
827,351,153,774,-474,-207,-109
828,339,157,749,-564,-156,-162
829,328,158,739,-646,-111,-199
830,322,142,682,-767,-103,-205
831,292,121,649,-951,-154,-156
832,262,90,576,-1185,-256,-101
833,223,81,516,-1457,-424,-64
834,226,56,394,-1639,-678,-39
835,217,32,265,-1730,-1033,-41
836,180,36,116,-1810,-1449,-39
837,120,3,-48,-2027,-1933,-129
838,35,-24,-207,-2289,-2238,-228
839,-75,-7,-378,-2476,-2193,-369
840,-139,44,-498,-2732,-1777,-557
841,-201,91,-632,-3008,-1168,-742
842,-297,191,-743,-3219,-420,-781
843,-342,285,-824,-3344,541,-584
844,-415,369,-844,-3103,1736,-371
845,-511,411,-828,-2414,3082,-119
846,-512,446,-682,-1291,4373,43
847,-456,500,-517,129,5502,-131
848,-493,482,-264,1565,6395,-447
849,-531,574,52,2856,7061,-932
850,-606,722,459,3867,7787,-1394
851,-575,895,1000,4508,8270,-1557
852,-622,1096,1469,4746,8223,-1361
853,-564,1071,1926,3844,7322,-693
854,-543,897,2048,2254,6272,311
855,-611,773,2048,500,5664,1551
856,-639,678,2040,-1100,5092,2613
857,-617,606,1977,-2031,4902,3258
858,-596,585,1975,-2176,5067,3438
859,-626,613,2048,-1422,5443,3168
860,-588,637,2048,-64,5688,2725
861,-481,663,2048,1014,5461,2426
862,-383,726,2048,1682,4807,2430
863,-355,771,2048,1943,4086,2695
864,-366,800,2048,1885,3535,3172
865,-406,757,2048,1774,3346,3582
866,-462,719,2048,1785,3484,3832
867,-444,679,2048,1947,3762,3887
868,-436,616,2048,1971,3871,3832
869,-408,529,2048,1631,3711,3887
870,-320,405,2048,1115,3344,4147
871,-246,264,2048,691,2664,4484
872,-183,113,2048,322,1658,4746
873,-154,-29,2048,-14,430,4908
874,-144,-189,2048,-332,-777,4922
875,-171,-314,2048,-533,-1846,4764
876,-204,-374,2048,-576,-2717,4346
877,-243,-392,2048,-617,-3437,3756
878,-285,-369,2048,-656,-4123,3285
879,-332,-376,2048,-676,-4764,3096
880,-361,-373,2048,-644,-5234,2953
881,-398,-382,2048,-533,-5521,2658
882,-406,-393,1992,-396,-5689,2358
883,-426,-394,1846,-463,-5851,2205
884,-434,-423,1654,-723,-6094,2184
885,-445,-423,1476,-1016,-6314,2238
886,-467,-439,1315,-1301,-6512,2211
887,-476,-469,1145,-1439,-6672,2002
888,-490,-496,979,-1381,-6805,1604
889,-482,-515,816,-1279,-6908,1154
890,-467,-478,641,-1309,-6912,772
891,-474,-433,446,-1439,-6824,455
892,-470,-387,282,-1547,-6666,191
893,-440,-327,84,-1586,-6463,-53
894,-382,-246,-42,-1490,-6142,-246
895,-300,-152,-208,-1277,-5699,-445
896,-231,-61,-323,-973,-5168,-631
897,-186,19,-418,-637,-4615,-789
898,-123,100,-496,-377,-4017,-865
899,-61,158,-533,-332,-3316,-810
900,-17,170,-519,-387,-2451,-641
901,64,191,-511,-549,-1682,-441
902,141,266,-483,-857,-1064,-211
903,219,295,-436,-1039,-533,41
904,264,324,-327,-904,-172,197
905,293,314,-254,-344,-8,164
906,307,272,-155,406,70,2
907,345,225,-62,1074,154,-246
908,364,168,25,1572,295,-459
909,384,143,83,1703,498,-592
910,396,129,199,1457,746,-642
911,381,140,313,910,1100,-529
912,398,103,410,164,1471,-225
913,422,52,518,-560,1637,127
914,472,11,614,-1137,1516,299
915,493,33,683,-1328,1201,158
916,491,66,752,-1064,830,-211
917,491,148,793,-543,516,-656
918,482,292,806,-57,365,-1002
919,455,362,829,215,338,-1027
920,440,390,828,326,350,-777
921,442,361,810,371,385,-459
922,449,282,772,320,492,-215
923,458,242,806,119,662,-125
924,443,215,829,-98,910,-127
925,443,190,883,-232,1109,-125
926,482,201,926,-430,1160,-180
927,508,282,978,-707,990,-346
928,516,358,988,-789,775,-445
929,496,392,1009,-586,582,-295
930,475,386,1021,-213,344,-33
931,451,342,977,338,221,137
932,456,285,924,707,197,145
933,426,244,903,709,203,154
934,416,172,869,586,320,279
935,422,120,856,416,477,344
936,432,113,897,207,609,285
937,433,114,943,14,693,190
938,424,128,966,-117,742,162
939,418,153,976,-172,768,174
940,436,133,1004,-115,740,205
941,465,129,989,-6,582,172
942,456,120,987,57,340,125
943,443,122,948,94,53,108
944,422,106,922,137,-152,176
945,401,74,886,213,-226,229
946,391,36,865,203,-183,195
947,390,3,854,111,-16,104
948,392,-17,837,4,180,14
949,392,-33,859,-92,342,-41
950,396,-43,896,-137,457,-100
951,408,-54,941,-166,479,-164
952,419,-41,976,-168,453,-310
953,440,5,1005,-137,389,-478
954,447,7,1020,-131,262,-572
955,442,22,1016,-180,100,-553
956,444,22,999,-307,-39,-527
957,425,41,988,-469,-100,-557
958,418,49,963,-586,-125,-601
959,394,74,947,-650,-129,-603
960,388,107,939,-662,-72,-613
961,393,112,949,-605,24,-617
962,375,151,965,-547,164,-631
963,380,198,994,-465,307,-644
964,414,243,997,-336,399,-644
965,424,239,994,-199,363,-559
966,419,230,990,-62,275,-457
967,429,265,1009,37,188,-488
968,404,261,973,14,92,-521
969,389,245,972,-49,29,-447
970,365,225,965,-98,33,-344
971,371,187,945,-174,51,-271
972,380,146,956,-305,61,-203
973,350,134,979,-402,100,-180
974,376,133,984,-355,143,-232
975,372,135,989,-183,166,-338
976,384,118,993,33,166,-447
977,386,122,1018,121,149,-531
978,412,140,1012,29,102,-537
979,409,143,986,-154,-25,-459
980,394,130,978,-281,-154,-353
981,376,110,945,-307,-230,-367
982,357,100,928,-312,-242,-490
983,373,116,906,-305,-230,-521
984,366,106,886,-256,-174,-482
985,355,114,890,-215,-101,-496
986,355,119,882,-100,-45,-578
987,363,99,870,-39,-8,-670
988,377,99,896,0,53,-684
989,382,120,911,41,117,-678
990,385,141,949,63,133,-664
991,387,162,960,49,94,-621
992,389,141,971,6,39,-537
993,387,125,956,-49,-16,-484
994,384,120,956,-111,-100,-480
995,365,86,951,-172,-180,-490
996,380,88,936,-205,-215,-549
997,370,89,906,-271,-211,-656
998,365,103,900,-342,-142,-723
999,369,116,891,-430,-82,-685
1000,367,125,907,-514,-39,-625
1001,367,137,919,-498,-6,-623
1002,354,143,933,-426,-2,-646
1003,374,149,916,-310,-25,-664
1004,381,149,916,-185,-70,-713
1005,381,158,893,-64,-131,-730
1006,358,153,867,37,-182,-728
1007,338,144,858,149,-123,-691
1008,347,141,877,211,37,-668
1009,347,148,913,240,193,-717
1010,377,149,949,178,270,-736
1011,393,170,974,4,244,-701
1012,404,197,970,-189,137,-643
1013,391,194,954,-297,-39,-584
1014,384,201,935,-297,-133,-533
1015,393,197,919,-416,-221,-383
1016,378,215,904,-572,-256,-232
1017,348,214,920,-469,-246,-150
1018,365,189,915,-160,-201,-133
1019,364,166,947,231,-25,-240
1020,350,140,973,524,92,-402
1021,378,123,1000,555,141,-572
1022,388,135,1009,225,113,-609
1023,385,125,989,-275,14,-525
1024,357,158,982,-672,-121,-402
1025,356,185,986,-803,-168,-359
1026,347,177,964,-687,-141,-373
1027,359,163,971,-461,-103,-437
1028,357,163,949,-273,-96,-545
1029,344,155,947,-162,-144,-609
1030,342,153,925,-100,-187,-635
1031,338,143,928,-86,-191,-644
1032,339,155,943,-100,-105,-703
1033,356,161,965,-144,-35,-818
1034,367,192,938,-256,-47,-908
1035,367,224,942,-514,-119,-896
1036,359,226,918,-773,-191,-764
1037,337,234,886,-982,-191,-644
1038,335,230,897,-1082,-115,-560
1039,337,227,897,-1035,-2,-535
1040,344,244,912,-861,59,-518
1041,352,230,898,-482,55,-531
1042,361,221,908,-88,18,-562
1043,370,222,901,158,-10,-676
1044,354,208,921,192,-55,-721
1045,370,210,922,57,-2,-664
1046,367,235,944,-135,22,-600
1047,370,248,936,-305,-10,-523
1048,366,246,929,-373,-105,-402
1049,380,226,907,-340,-178,-264
1050,387,233,889,-394,-246,-131
1051,350,211,873,-392,-287,-41
1052,330,195,879,-305,-240,-23
1053,334,181,884,-166,-84,-45
1054,338,151,909,65,94,-90
1055,353,138,956,299,201,-187
1056,364,127,995,406,277,-346
1057,372,115,1009,330,268,-441
1058,382,118,1050,78,223,-478
1059,372,142,1060,-291,147,-488
1060,387,179,1040,-697,20,-410
1061,378,200,1023,-896,-92,-314
1062,358,228,973,-832,-207,-316
1063,342,235,948,-633,-264,-391
1064,331,256,951,-424,-248,-437
1065,333,261,942,-248,-197,-416
1066,342,260,937,-55,-131,-369
1067,356,233,902,76,-100,-396
1068,379,242,909,102,-57,-408
1069,363,255,927,-18,-51,-451
1070,335,275,943,-168,-66,-400
1071,329,286,936,-228,-31,-264
1072,351,295,944,-209,-53,-176
1073,349,286,938,-156,-96,-125
1074,358,268,923,-100,-109,-57
1075,352,258,893,-105,-94,20
1076,334,234,898,-105,-62,76
1077,332,218,884,-80,-23,66
1078,329,214,875,-70,49,22
1079,330,203,872,-90,127,-10
1080,346,187,896,-156,192,18
1081,345,191,889,-213,248,76
1082,349,171,898,-254,231,158
1083,344,147,919,-236,207,213
1084,323,116,916,-211,209,203
1085,344,117,923,-240,209,186
1086,368,106,919,-305,199,184
1087,363,120,903,-377,182,147
1088,354,123,898,-391,141,109
1089,337,120,895,-340,158,119
1090,339,108,899,-217,188,125
1091,340,87,924,-100,234,80
1092,342,91,943,12,256,18
1093,355,96,974,88,233,-12
1094,369,111,971,107,211,-27
1095,359,121,974,39,149,-17
1096,356,126,977,-57,98,18
1097,345,121,974,-98,68,37
1098,353,124,975,-103,59,35
1099,355,130,962,-64,74,33
1100,354,136,999,-21,119,14
1101,355,136,999,6,152,-31
1102,350,118,1018,-18,141,-31
1103,349,111,1004,-68,117,2
1104,339,101,1004,-125,80,37
1105,334,97,1008,-158,82,14
1106,344,100,974,-150,68,-19
1107,353,107,980,-150,24,-57
1108,370,138,962,-187,-76,-72
1109,363,157,926,-264,-170,-31
1110,332,134,906,-254,-203,68
1111,307,127,900,-117,-107,57
1112,314,108,897,59,35,-37
1113,337,117,912,160,150,-121
1114,349,100,938,148,193,-117
1115,358,98,928,61,184,-70
1116,353,85,944,-35,147,-74
1117,353,96,943,-121,68,-86
1118,351,108,945,-170,20,-86
1119,340,129,943,-146,27,-78
1120,335,147,944,-62,47,-88
1121,350,151,958,-16,20,-107
1122,333,128,931,-25,-25,-82
1123,335,109,884,-76,-57,-60
1124,330,94,855,-158,-51,-60
1125,333,83,831,-273,-19,-68
1126,321,82,819,-367,41,-90
1127,324,91,794,-400,121,-119
1128,314,128,789,-437,192,-139
1129,322,132,795,-461,221,-123
1130,311,138,788,-418,229,-107
1131,309,123,753,-355,219,-113
1132,304,99,732,-367,203,-117
1133,298,74,713,-465,143,-125
1134,281,51,665,-666,14,-146
1135,261,28,581,-1014,-172,-176
1136,225,23,469,-1553,-383,-240
1137,185,18,357,-2197,-598,-252
1138,165,13,225,-2809,-687,-238
1139,134,4,64,-3268,-725,-182
1140,132,18,-14,-3484,-746,-43
1141,95,-9,-108,-3242,-791,55
1142,62,-63,-199,-2568,-791,-154
1143,-10,-18,-234,-1734,-367,-574
1144,-104,47,-199,-1182,422,-922
1145,-132,108,-149,-924,1291,-1070
1146,-119,222,-124,-920,2043,-976
1147,-148,292,-80,-1004,2637,-680
1148,-191,320,-64,-916,3022,-291
1149,-208,353,-73,-709,3279,39
1150,-204,330,-107,-393,3475,277
1151,-220,367,-68,29,3727,201
1152,-371,499,61,664,4305,-31
1153,-514,459,249,1547,5111,-74
1154,-564,407,574,2529,5856,-29
1155,-535,366,830,3354,6307,-14
1156,-480,338,1153,3479,6326,-219
1157,-517,420,1446,2832,5861,-361
1158,-569,454,1609,1838,5178,-35
1159,-593,500,1658,1070,4668,647
1160,-604,596,1735,629,4500,1262
1161,-585,613,1812,639,4510,1539
1162,-536,586,1872,832,4676,1561
1163,-514,613,1938,766,4770,1566
1164,-513,617,1932,318,4565,1799
1165,-511,594,1922,-338,4193,2193
1166,-519,580,2016,-699,3988,2397
1167,-511,615,2048,-506,3951,2162
1168,-456,699,2048,342,3826,1727
1169,-347,751,2048,1334,3557,1404
1170,-272,798,2048,2039,2951,1441
1171,-255,769,2048,2037,2016,1900
1172,-259,695,2048,1459,1190,2570
1173,-267,602,2048,643,742,3234
1174,-261,464,2048,0,504,3795
1175,-252,343,2048,-275,416,4104
1176,-221,242,2048,-133,375,4098
1177,-240,172,2048,305,266,3914
1178,-287,124,2048,596,47,3764
1179,-299,62,2048,701,-170,3752
1180,-279,-25,2048,805,-348,3809
1181,-204,-57,2048,1145,-644,3731
1182,-144,-39,2048,1592,-1125,3529
1183,-108,-45,2048,1988,-1851,3258
1184,-124,-81,2048,2297,-2682,3072
1185,-185,-115,2048,2279,-3514,3102
1186,-278,-120,2048,1742,-4176,3215
1187,-318,-163,2048,910,-4662,3471
1188,-352,-279,2037,209,-5000,3744
1189,-360,-373,1864,-287,-5191,3807
1190,-367,-479,1680,-752,-5353,3645
1191,-385,-488,1537,-1162,-5416,3342
1192,-417,-501,1401,-1412,-5457,3063
1193,-424,-540,1265,-1406,-5527,2848
1194,-410,-606,1133,-1100,-5603,2465
1195,-378,-592,1004,-719,-5771,1856
1196,-391,-554,877,-531,-6006,1205
1197,-398,-495,726,-467,-6252,723
1198,-389,-478,539,-498,-6461,455
1199,-358,-439,323,-568,-6519,291
1200,-345,-413,154,-758,-6392,113
1201,-327,-380,-10,-1066,-6031,-70
1202,-249,-344,-136,-1361,-5502,-264
1203,-226,-262,-209,-1596,-4826,-465
1204,-178,-161,-251,-1672,-4094,-617
1205,-127,-48,-259,-1695,-3394,-635
1206,-46,73,-303,-1678,-2699,-559
1207,57,156,-334,-1463,-2082,-486
1208,141,216,-345,-937,-1641,-514
1209,191,278,-301,-213,-1351,-701
1210,176,312,-254,477,-1135,-869
1211,138,299,-214,1004,-795,-828
1212,167,273,-127,1307,-355,-650
1213,220,242,-51,1262,141,-512
1214,272,214,65,1031,615,-475
1215,338,239,165,711,965,-459
1216,376,263,279,342,1182,-478
1217,399,282,390,45,1207,-437
1218,418,285,466,-230,1125,-328
1219,434,268,549,-398,998,-185
1220,435,253,627,-475,752,-86
1221,420,253,662,-521,459,-41
1222,396,246,678,-561,275,-31
1223,380,218,716,-549,313,-53
1224,393,200,757,-469,500,-72
1225,409,175,801,-375,662,-142
1226,416,216,811,-328,748,-258
1227,423,234,834,-318,701,-301
1228,434,272,816,-320,627,-299
1229,407,287,821,-312,623,-307
1230,388,302,862,-271,688,-303
1231,418,332,897,-123,754,-291
1232,436,352,930,119,715,-256
1233,422,310,945,293,504,-154
1234,400,243,907,443,272,-8
1235,382,166,910,496,170,47
1236,392,119,885,371,186,-6
1237,399,158,885,123,344,-185
1238,402,250,920,-217,525,-344
1239,413,277,929,-508,684,-203
1240,429,271,928,-639,797,57
1241,425,249,905,-570,820,209
1242,419,189,917,-426,762,252
1243,419,171,925,-254,693,201
1244,410,166,934,-49,670,129
1245,425,137,949,119,625,72
1246,423,130,947,209,563,25
1247,413,143,942,178,529,-27
1248,409,132,939,20,510,-31
1249,398,120,916,-184,490,-10
1250,387,128,927,-318,504,-10
1251,388,148,951,-350,490,-66
1252,383,153,990,-252,477,-142
1253,379,177,1018,-72,488,-154
1254,391,190,1058,113,465,-135
1255,390,181,1057,254,418,-158
1256,384,185,1086,303,309,-166
1257,376,178,1066,172,152,-119
1258,387,159,1005,-80,-29,-25
1259,372,147,957,-310,-129,51
1260,340,143,970,-426,-123,63
1261,333,170,951,-418,-21,29
1262,338,150,962,-267,106,-43
1263,360,156,954,-64,131,-113
1264,362,149,963,111,106,-160
1265,360,143,965,193,78,-215
1266,351,140,965,156,74,-244
1267,349,158,940,29,55,-193
1268,359,151,942,-72,31,-135
1269,366,172,921,-45,6,-146
1270,353,168,919,82,22,-189
1271,348,193,922,322,92,-258
1272,354,201,949,619,193,-336
1273,357,203,966,836,258,-383
1274,382,206,1002,908,233,-381
1275,390,213,988,801,92,-340
1276,382,216,950,535,-68,-256
1277,371,178,927,264,-156,-158
1278,350,160,905,59,-154,-88
1279,338,150,900,-105,-107,-113
1280,342,165,902,-285,-25,-205
1281,351,212,915,-506,43,-228
1282,372,216,923,-715,67,-143
1283,371,215,916,-783,55,-14
1284,351,212,923,-719,22,41
1285,357,213,913,-471,33,10
1286,346,201,932,-103,67,-68
1287,352,170,919,266,109,-80
1288,366,133,935,527,141,-101
1289,354,125,939,566,164,-156
1290,344,121,965,410,217,-191
1291,347,110,992,152,305,-219
1292,365,127,1018,-141,365,-236
1293,373,150,1017,-389,348,-211
1294,387,139,1005,-545,225,-141
1295,380,130,995,-557,61,-135
1296,363,117,969,-600,-86,-184
1297,342,101,959,-830,-150,-189
1298,329,101,964,-1105,-100,-131
1299,324,121,947,-1197,0,-101
1300,324,117,939,-1008,76,-162
1301,332,114,937,-588,88,-287
1302,344,136,934,-164,63,-408
1303,358,129,904,96,39,-449
1304,361,107,898,197,47,-457
1305,342,110,893,133,80,-435
1306,343,108,887,-37,150,-398
1307,340,111,909,-197,231,-348
1308,327,125,926,-273,301,-340
1309,337,143,931,-344,318,-324
1310,335,128,941,-371,332,-293
1311,337,112,944,-289,346,-281
1312,340,92,946,-219,350,-268
1313,349,63,936,-168,334,-279
1314,343,51,946,-103,287,-344
1315,331,43,950,-41,250,-414
1316,326,15,957,20,215,-476
1317,319,27,984,49,217,-572
1318,324,31,978,0,217,-656
1319,329,53,986,-137,234,-693
1320,322,89,1001,-293,231,-713
1321,310,98,990,-453,211,-672
1322,319,86,984,-471,199,-615
1323,307,102,996,-426,192,-607
1324,300,93,983,-389,205,-650
1325,298,101,991,-359,211,-676
1326,300,111,985,-287,182,-685
1327,313,114,980,-176,139,-726
1328,310,139,1006,-31,106,-836
1329,312,142,1002,10,47,-908
1330,298,143,991,-37,-12,-920
1331,288,176,983,-70,-29,-904
1332,278,183,978,-68,-37,-922
1333,276,172,980,6,-37,-932
1334,293,185,991,80,-19,-941
1335,289,200,977,109,14,-975
1336,300,222,1004,100,20,-963
1337,298,228,984,65,-17,-887
1338,299,221,981,55,-74,-830
1339,279,219,946,59,-111,-838
1340,267,221,965,49,-92,-838
1341,273,218,954,31,-66,-805
1342,293,205,963,-17,-88,-783
1343,295,189,975,-105,-168,-781
1344,277,184,951,-250,-246,-775
1345,285,190,929,-422,-283,-728
1346,274,186,909,-594,-275,-691
1347,276,204,909,-656,-176,-633
1348,271,217,898,-658,-70,-588
1349,273,220,901,-486,14,-613
1350,268,214,911,-166,65,-664
1351,274,215,939,127,109,-695
1352,287,211,956,328,137,-676
1353,280,184,964,379,111,-668
1354,276,190,980,352,74,-715
1355,266,195,957,272,35,-752
1356,262,194,976,170,35,-717
1357,273,182,985,82,67,-695
1358,270,177,985,29,72,-728
1359,266,186,1012,0,68,-777
1360,269,207,1028,-55,39,-807
1361,269,224,1011,-164,-10,-793
1362,260,246,1023,-271,-60,-734
1363,266,257,1007,-299,-137,-660
1364,273,247,990,-201,-193,-617
1365,263,237,987,-4,-211,-627
1366,267,238,986,188,-209,-652
1367,268,233,982,326,-226,-672
1368,263,218,974,334,-242,-652
1369,273,205,967,223,-228,-641
1370,267,210,976,29,-215,-652
1371,276,227,956,-180,-191,-672
1372,283,238,979,-312,-164,-650
1373,281,237,974,-318,-154,-613
1374,270,227,986,-217,-168,-619
1375,270,234,991,-174,-172,-635
1376,270,245,1018,-170,-137,-639
1377,287,251,1020,-228,-146,-582
1378,289,238,1020,-308,-236,-519
1379,286,238,996,-353,-307,-467
1380,274,234,988,-381,-365,-435
1381,265,233,978,-326,-410,-471
1382,264,232,941,-264,-449,-541
1383,257,234,920,-199,-422,-559
1384,266,243,930,-178,-332,-531
1385,279,249,920,-180,-230,-478
1386,282,244,911,-215,-183,-426
1387,276,241,921,-230,-183,-379
1388,274,228,951,-174,-156,-361
1389,273,233,954,-45,-90,-369
1390,290,228,973,65,-51,-383
1391,295,229,972,108,-88,-373
1392,296,216,959,115,-135,-307
1393,272,200,972,121,-142,-252
1394,277,189,966,113,-144,-246
1395,285,176,971,69,-139,-297
1396,288,178,973,-2,-154,-422
1397,298,208,966,-139,-207,-531
1398,295,231,943,-267,-271,-592
1399,288,250,944,-347,-332,-539
1400,270,273,922,-306,-346,-469
1401,272,270,890,-176,-307,-437
1402,269,279,890,8,-262,-447
1403,276,286,902,213,-193,-473
1404,286,303,908,387,-146,-508
1405,299,326,920,438,-156,-471
1406,298,303,925,426,-182,-373
1407,299,280,904,393,-201,-307
1408,297,274,895,338,-195,-307
1409,279,267,915,190,-168,-307
1410,281,260,897,-8,-142,-271
1411,281,245,909,-187,-121,-217
1412,285,248,905,-312,-90,-187
1413,303,238,904,-373,-68,-213
1414,310,257,905,-416,-33,-264
1415,323,278,883,-500,-31,-258
1416,309,282,903,-564,-25,-160
1417,296,302,907,-543,0,-49
1418,292,282,921,-398,4,0
1419,286,282,927,-183,0,-31
1420,294,282,932,20,24,-57
1421,295,253,918,153,41,-53
1422,297,261,943,174,80,-41
1423,295,235,944,65,102,-4
1424,283,224,941,-92,90,55
1425,282,217,931,-222,74,90
1426,294,229,932,-279,63,72
1427,297,224,909,-287,65,35
1428,291,232,945,-283,96,12
1429,294,261,967,-205,150,-16
1430,300,270,967,-185,143,8
1431,303,259,964,-197,80,92
1432,299,248,955,-230,-8,178
1433,281,217,910,-254,-80,225
1434,276,211,891,-258,-92,234
1435,280,196,885,-254,-53,207
1436,281,183,866,-262,6,164
1437,276,171,860,-297,53,129
1438,277,164,837,-367,82,86
1439,274,151,835,-504,94,47
1440,286,166,805,-713,74,68
1441,279,148,771,-1002,-10,78
1442,265,119,724,-1271,-94,92
1443,240,111,641,-1580,-137,166
1444,231,80,563,-1941,-178,295
1445,212,29,473,-2361,-273,406
1446,200,-23,374,-2801,-398,549
1447,226,-57,235,-3293,-625,682
1448,191,-63,140,-3758,-789,637
1449,132,-4,53,-4004,-758,459
1450,43,43,-30,-3849,-461,238
1451,1,75,-111,-3172,-94,70
1452,-7,98,-166,-2101,342,-27
1453,5,108,-212,-972,846,-62
1454,7,93,-264,-156,1266,-19
1455,-9,88,-287,264,1619,-16
1456,-77,91,-283,397,2055,-66
1457,-163,123,-239,338,2629,-62
1458,-198,196,-163,141,3307,-27
1459,-254,345,-63,-150,4149,37
1460,-316,447,51,-291,5045,338
1461,-370,513,195,-158,5705,809
1462,-363,562,362,205,6016,1320
1463,-413,566,495,738,6231,1848
1464,-530,456,722,1426,6535,2297
1465,-550,390,982,2213,6608,2289
1466,-570,378,1253,2856,6473,1889
1467,-544,415,1504,3065,6121,1490
1468,-542,545,1737,2951,5719,1266
1469,-599,660,1889,2506,5600,1449
1470,-594,656,1976,1697,5484,2043
1471,-602,620,1979,707,5145,2631
1472,-575,552,1920,-469,4555,3033
1473,-566,570,1874,-1365,4205,3145
1474,-596,678,1878,-1756,4289,2959
1475,-620,776,2018,-1596,4555,2717
1476,-586,893,2048,-801,4590,2582
1477,-566,996,2048,51,4272,2492
1478,-488,998,2048,664,3590,2404
1479,-472,1023,2048,867,2619,2482
1480,-523,1014,2048,609,1693,3020
1481,-584,945,2048,90,1084,3875
1482,-633,860,2048,-498,690,4594
1483,-658,766,2048,-1068,553,5094
1484,-631,663,2048,-1670,541,5531
1485,-650,566,2048,-2406,443,5854
1486,-676,497,2041,-3055,309,5981
1487,-707,450,1896,-3203,254,5900
1488,-739,413,1796,-2728,318,5822
1489,-808,348,1792,-1799,565,5635
1490,-831,248,1902,-660,707,5275
1491,-743,136,2011,522,440,4824
1492,-699,9,2048,1385,-78,4408
1493,-715,-208,2048,1764,-842,4166
1494,-775,-509,2048,1895,-1646,3893
1495,-764,-681,2048,1840,-2398,3348
1496,-746,-781,2048,1279,-3146,2693
1497,-734,-797,2048,166,-3994,2297
1498,-800,-696,2048,-1226,-4891,2152
1499,-883,-670,2048,-2586,-5473,2275
1500,-860,-699,1876,-3514,-5668,2613
1501,-771,-740,1596,-3894,-5902,2688
1502,-734,-750,1329,-3859,-6117,2486
1503,-698,-785,1105,-3330,-6332,2041
1504,-639,-813,926,-2293,-6449,1463
1505,-590,-782,751,-1230,-6441,912
1506,-548,-776,644,-498,-6267,570
1507,-511,-810,546,-27,-5953,340
1508,-429,-781,435,182,-5535,123
1509,-351,-755,339,90,-5217,-84
1510,-330,-758,267,-111,-4975,-361
1511,-296,-627,211,-389,-4687,-676
1512,-236,-511,139,-707,-4316,-863
1513,-162,-448,58,-1119,-3939,-912
1514,-47,-366,22,-1582,-3519,-980
1515,19,-237,-18,-1980,-3174,-1098
1516,45,-109,-28,-2064,-2879,-1172
1517,89,40,-9,-1687,-2555,-1223
1518,134,182,1,-1043,-2228,-1234
1519,186,245,4,-410,-1906,-1125
1520,228,250,2,102,-1619,-967
1521,209,246,-11,381,-1432,-803
1522,199,189,-56,399,-1183,-684
1523,238,122,-64,363,-920,-586
1524,322,91,-46,324,-642,-635
1525,333,81,-36,195,-226,-826
1526,300,94,112,-70,305,-894
1527,295,176,278,-389,856,-949
1528,349,207,441,-629,1242,-906
1529,378,210,602,-746,1365,-836
1530,382,254,728,-789,1393,-785
1531,370,249,862,-783,1299,-701
1532,395,239,935,-658,1084,-543
1533,392,266,962,-598,842,-518
1534,362,259,978,-559,578,-586
1535,323,217,990,-559,344,-549
1536,334,201,973,-598,176,-490
1537,324,220,949,-691,108,-453
1538,330,244,899,-859,22,-410
1539,321,251,856,-935,-17,-330
1540,333,239,766,-844,6,-176
1541,368,217,717,-549,-33,-92
1542,371,221,683,-141,-156,-166
1543,341,258,663,248,-226,-309
1544,336,291,654,512,-191,-256
1545,319,266,680,650,0,-60
1546,299,216,705,719,285,80
1547,298,175,744,762,590,111
1548,315,152,814,844,908,117
1549,324,121,916,873,1143,104
1550,355,92,1011,754,1197,82
1551,383,98,1052,447,1084,106
1552,383,106,1088,94,805,145
1553,366,151,1065,-139,467,231
1554,346,149,1020,-219,201,381
1555,322,115,949,-96,-19,533
1556,317,107,904,88,-139,647
1557,294,86,862,242,-137,652
1558,274,64,842,299,16,516
1559,256,31,826,268,283,348
1560,261,18,875,231,576,285
1561,253,20,928,113,811,274
1562,247,7,994,-39,967,229
1563,252,26,1062,-111,1063,166
1564,280,58,1108,-143,904,90
1565,319,48,1129,-182,598,123
1566,297,71,1124,-172,320,260
1567,279,39,1090,-174,-23,410
1568,272,18,1022,-189,-219,451
1569,268,-17,933,-240,-273,426
1570,243,-41,892,-285,-213,369
1571,216,-44,868,-252,-49,266
1572,207,-49,880,-154,205,123
1573,233,-33,928,-57,447,27
1574,246,-15,963,-19,594,-41
1575,240,12,993,-10,701,-100
1576,244,33,1052,43,766,-100
1577,263,59,1101,100,699,-68
1578,280,51,1092,70,463,-80
1579,291,30,1068,12,262,10
1580,244,43,1050,41,117,70
1581,240,44,1025,149,80,35
1582,248,19,1005,268,59,-35
1583,242,9,1004,264,92,-66
1584,236,-5,1005,152,154,-82
1585,230,5,997,0,223,-160
1586,239,15,1011,-184,256,-201
1587,237,6,983,-338,281,-236
1588,236,12,1006,-367,272,-221
1589,245,18,1002,-314,246,-182
1590,217,25,999,-314,266,-121
1591,229,23,1001,-287,326,-45
1592,229,16,990,-195,332,-25
1593,232,18,995,-133,311,-39
1594,236,0,986,-68,279,-45
1595,232,-19,978,10,242,-82
1596,228,-28,999,156,262,-211
1597,242,-35,1027,236,275,-348
1598,252,-44,1042,229,213,-443
1599,259,-32,1048,156,123,-486
1600,231,-35,1024,31,51,-500
1601,233,-18,1008,-43,-21,-465
1602,227,-21,989,-62,-74,-453
1603,197,-9,971,-109,-37,-394
1604,196,0,964,-158,67,-391
1605,193,0,973,-164,205,-389
1606,223,0,1010,-100,311,-355
1607,228,-21,1032,-25,334,-357
1608,238,-35,1056,6,262,-353
1609,233,-70,1053,-16,162,-422
1610,220,-72,1055,-109,84,-557
1611,213,-47,1078,-250,12,-637
1612,217,-28,1050,-383,-10,-682
1613,224,-26,1024,-459,-51,-678
1614,221,-21,1002,-439,-107,-684
1615,206,-15,991,-285,-121,-728
1616,206,1,978,-164,-111,-767
1617,207,21,971,-96,-60,-756
1618,212,14,971,-62,16,-723
1619,214,-7,985,-8,86,-738
1620,211,-3,1015,27,164,-814
1621,226,11,1046,-35,168,-894
1622,242,22,1063,-121,78,-916
1623,232,69,1041,-178,-60,-842
1624,215,61,999,-78,-203,-697
1625,208,52,989,139,-266,-566
1626,195,27,960,322,-228,-508
1627,198,-16,942,363,-219,-484
1628,188,-43,935,295,-170,-521
1629,185,-69,936,191,-62,-637
1630,178,-58,948,70,47,-746
1631,177,-63,965,-62,149,-842
1632,192,-47,1011,-178,227,-937
1633,206,-26,1042,-281,246,-1008
1634,213,6,1058,-353,190,-1027
1635,198,38,1041,-424,94,-959
1636,212,51,1005,-475,-12,-810
1637,193,56,964,-443,-80,-672
1638,193,74,948,-201,-64,-613
1639,172,71,938,160,-29,-568
1640,177,45,941,500,22,-566
1641,195,12,953,662,76,-498
1642,177,2,976,637,141,-504
1643,170,-3,1001,447,178,-635
1644,189,-6,1002,217,76,-736
1645,181,5,1007,-39,193,-775
1646,177,18,1038,-211,254,-818
1647,190,30,1044,-305,172,-943
1648,178,46,1044,-418,53,-996
1649,185,100,1038,-623,31,-926
1650,193,135,995,-762,33,-820
1651,195,145,998,-791,57,-666
1652,206,145,983,-652,31,-555
1653,201,127,972,-346,27,-506
1654,185,114,979,14,-8,-572
1655,184,98,990,277,-16,-670
1656,193,78,991,354,43,-719
1657,211,80,1007,209,86,-705
1658,194,54,1012,-53,86,-684
1659,180,39,1030,-234,63,-695
1660,150,44,1026,-316,74,-775
1661,164,61,1042,-367,84,-867
1662,187,69,1017,-434,76,-924
1663,176,89,1035,-531,53,-892
1664,184,107,1007,-553,4,-830
1665,195,113,1006,-459,-60,-820
1666,203,113,974,-291,-154,-787
1667,199,124,974,-70,-236,-756
1668,183,116,956,174,-217,-805
1669,170,118,987,350,-94,-850
1670,196,131,1003,381,53,-855
1671,198,121,1020,240,158,-842
1672,187,118,1021,49,170,-787
1673,206,126,1018,-86,119,-758
1674,192,143,1027,-137,25,-758
1675,183,153,1020,-78,-25,-672
1676,170,142,1028,102,-12,-611
1677,167,115,1043,285,25,-514
1678,178,86,1048,381,47,-451
1679,184,53,1034,348,65,-480
1680,191,53,1040,180,59,-598
1681,205,71,1046,-74,6,-717
1682,199,101,1042,-369,-37,-775
1683,198,142,1030,-549,-39,-789
1684,210,158,1028,-508,-55,-797
1685,205,171,1023,-297,-121,-787
1686,217,176,1021,-92,-187,-773
1687,204,166,992,55,-281,-732
1688,206,175,957,115,-340,-633
1689,196,145,918,154,-361,-543
1690,195,144,905,248,-332,-531
1691,177,123,914,326,-228,-551
1692,157,118,950,338,-53,-582
1693,164,128,995,275,78,-607
1694,192,132,1037,139,109,-553
1695,206,142,1029,23,68,-516
1696,214,138,1031,-51,-37,-473
1697,209,127,1024,-92,-156,-455
1698,203,129,986,-236,-209,-457
1699,195,145,944,-434,-223,-408
1700,192,146,933,-527,-164,-355
1701,196,153,898,-383,-74,-336
1702,194,151,926,-139,20,-344
1703,179,144,932,139,102,-398
1704,187,135,970,350,174,-498
1705,220,142,1006,340,238,-564
1706,245,184,1014,102,250,-566
1707,226,203,1025,-203,195,-516
1708,228,230,1009,-398,125,-447
1709,218,248,1018,-471,88,-418
1710,205,245,1016,-391,20,-377
1711,195,251,1008,-189,-60,-309
1712,199,245,975,8,-70,-176
1713,196,232,996,150,-47,-88
1714,186,199,966,160,-8,-31
1715,204,191,974,66,65,10
1716,208,195,981,-84,119,43
1717,204,198,979,-217,154,90
1718,204,183,988,-246,158,141
1719,191,165,977,-162,152,164
1720,191,148,1010,-51,121,139
1721,189,144,1001,66,102,113
1722,186,131,1023,178,67,90
1723,177,106,1018,230,12,96
1724,178,97,1032,223,-21,94
1725,175,97,1000,129,-21,70
1726,198,110,999,-51,-12,90
1727,188,123,983,-270,22,147
1728,187,119,949,-418,33,197
1729,179,114,945,-381,59,199
1730,171,117,942,-273,108,174
1731,169,118,958,-207,150,178
1732,183,113,949,-111,158,199
1733,185,101,968,10,145,207
1734,188,78,960,104,141,201
1735,180,62,973,174,139,203
1736,166,39,984,186,127,199
1737,177,18,1000,152,102,137
1738,175,14,985,25,72,59
1739,199,19,975,-219,45,29
1740,206,26,928,-529,31,14
1741,196,39,893,-828,33,29
1742,203,54,826,-1111,74,41
1743,207,64,778,-1314,147,76
1744,209,85,743,-1230,211,127
1745,201,87,694,-943,234,149
1746,209,67,665,-541,203,168
1747,216,21,619,-150,152,213
1748,212,-22,590,100,51,213
1749,206,-60,537,154,-66,170
1750,214,-95,451,23,-201,98
1751,203,-88,374,-338,-344,-21
1752,172,-69,262,-922,-391,-53
1753,135,-30,159,-1463,-271,-29
1754,107,-20,68,-1842,-4,-47
1755,70,-2,-10,-2055,338,37
1756,1,14,-139,-2004,701,238
1757,-51,-24,-218,-1691,1096,381
1758,-62,-82,-248,-1119,1483,369
1759,-70,-90,-221,-463,1910,98
1760,-55,-16,-106,-25,2287,-369
1761,-69,74,45,2,2574,-633
1762,-156,219,167,-31,2879,-652
1763,-232,308,298,25,3244,-435
1764,-246,353,390,279,3617,-178
1765,-213,281,457,512,3854,129
1766,-231,293,588,525,3863,238
1767,-348,413,729,398,3902,203
1768,-440,489,902,398,4100,317
1769,-393,499,1048,770,4207,510
1770,-329,444,1139,1020,4027,707
1771,-318,430,1240,984,3613,846
1772,-415,465,1251,824,3215,869
1773,-487,468,1289,728,2965,914
1774,-517,498,1281,666,2754,852
1775,-572,511,1258,408,2643,957
1776,-520,506,1204,20,2568,1234
1777,-483,504,1177,-209,2529,1402
1778,-513,551,1249,-57,2598,1436
1779,-588,610,1355,478,2959,1436
1780,-557,566,1672,1277,3438,1463
1781,-496,507,1953,1928,3578,1274
1782,-462,502,2048,1771,3512,1203
1783,-412,504,2048,725,3072,1432
1784,-429,550,2048,-596,2399,1963
1785,-461,559,2048,-1537,1817,2654
1786,-466,488,2048,-1498,1387,3199
1787,-467,371,2048,-875,1100,3463
1788,-459,232,2048,-96,940,3387
1789,-442,140,2048,537,822,3068
1790,-434,79,2048,832,709,2738
1791,-422,75,2048,662,658,2488
1792,-406,143,2048,238,670,2344
1793,-440,252,2048,-57,733,2221
1794,-467,338,2048,-129,756,2227
1795,-421,368,2048,221,717,2449
1796,-409,350,2048,674,531,2688
1797,-412,296,2048,1062,10,2875
1798,-450,231,2048,1207,-648,3113
1799,-529,73,2048,1268,-1361,3348
1800,-596,-118,2048,1258,-2014,3484
1801,-634,-341,2048,1064,-2490,3488
1802,-658,-551,2048,619,-2965,3377
1803,-612,-583,2048,-8,-3340,2930
1804,-616,-507,2048,-891,-3769,2236
1805,-637,-385,2029,-1809,-4180,1820
1806,-619,-308,1867,-2436,-4408,1705
1807,-611,-268,1750,-2615,-4473,1576
1808,-579,-255,1636,-2451,-4566,1443
1809,-582,-258,1563,-2178,-4783,1279
1810,-573,-253,1458,-1945,-5070,1102
1811,-583,-277,1341,-1848,-5340,1117
1812,-576,-287,1217,-1816,-5529,1250
1813,-576,-330,1071,-1887,-5683,1281
1814,-545,-386,904,-2033,-5773,1115
1815,-543,-403,788,-2145,-5721,895
1816,-553,-400,690,-2109,-5433,672
1817,-491,-428,576,-1801,-5060,426
1818,-411,-431,518,-1344,-4758,78
1819,-337,-431,480,-998,-4535,-248
1820,-287,-405,446,-775,-4430,-539
1821,-241,-350,457,-684,-4357,-816
1822,-198,-285,407,-678,-4266,-982
1823,-177,-219,354,-715,-4195,-1045
1824,-127,-174,266,-779,-4137,-980
1825,-78,-161,140,-877,-4019,-928
1826,-30,-131,55,-1041,-3836,-912
1827,37,-118,-18,-1322,-3590,-926
1828,64,1,-60,-1693,-3172,-1010
1829,94,72,-102,-1906,-2685,-914
1830,130,112,-108,-1752,-2197,-756
1831,203,145,-130,-1236,-1791,-717
1832,237,177,-129,-623,-1517,-730
1833,279,195,-104,21,-1355,-709
1834,319,205,-123,568,-1367,-756
1835,309,222,-112,822,-1373,-683
1836,297,200,-160,904,-1183,-502
1837,303,176,-165,906,-752,-336
1838,340,102,-134,848,-238,-314
1839,379,44,-75,719,199,-365
1840,392,26,45,459,588,-391
1841,389,41,175,90,1035,-412
1842,353,-37,381,-291,1477,-320
1843,395,-133,608,-598,1684,-262
1844,429,-125,766,-828,1563,-457
1845,483,-55,844,-1152,1168,-717
1846,483,31,872,-1471,619,-848
1847,454,84,867,-1547,277,-851
1848,432,181,863,-1320,215,-918
1849,425,247,832,-1131,332,-928
1850,460,265,814,-951,549,-734
1851,460,303,786,-740,762,-531
1852,432,272,790,-467,879,-269
1853,408,191,826,2,1053,-2
1854,392,113,891,512,1318,39
1855,423,25,1058,965,1543,-59
1856,434,-21,1152,1203,1608,-207
1857,425,-35,1241,1102,1463,-264
1858,410,-41,1295,754,1174,-201
1859,408,-33,1290,322,863,-135
1860,414,-18,1260,-60,537,-113
1861,414,16,1168,-357,238,-146
1862,382,59,1079,-473,25,-101
1863,362,85,1034,-377,-17,41
1864,348,48,978,-103,98,176
1865,333,1,979,256,262,207
1866,329,-12,991,479,412,106
1867,330,-29,1022,481,574,25
1868,342,-50,1048,342,703,0
1869,356,-28,1103,106,738,-16
1870,371,-19,1126,-88,639,6
1871,380,11,1138,-168,442,-6
1872,372,40,1124,-84,168,-55
1873,360,59,1089,68,-68,-33
1874,335,32,1028,197,-168,47
1875,328,-11,1009,295,-187,76
1876,312,-47,972,283,-142,72
1877,306,-68,956,184,-31,16
1878,328,-71,992,57,115,-68
1879,339,-42,1008,-123,195,-154
1880,357,30,1008,-350,164,-191
1881,346,63,1025,-514,88,-133
1882,360,75,988,-545,-57,-35
1883,321,70,931,-457,-166,35
1884,316,44,911,-250,-160,88
1885,314,28,898,-49,-74,78
1886,316,11,896,63,14,80
1887,313,24,900,141,104,84
1888,308,20,924,176,182,78
1889,306,16,943,178,223,86
1890,311,-5,959,131,264,72
1891,331,-6,992,47,291,4
1892,350,-4,986,-33,238,-59
1893,348,4,1009,-43,127,-84
1894,345,10,1028,-29,20,-123
1895,340,31,1019,-49,-23,-139
1896,336,36,1000,-68,-45,-72
1897,324,17,989,-43,-60,20
1898,312,20,974,41,-37,33
1899,330,0,946,141,-21,16
1900,329,3,938,174,12,-6
1901,318,3,933,133,68,43
1902,315,-22,935,90,156,70
1903,327,-24,937,25,248,37
1904,324,-32,951,-72,307,-2
1905,330,-15,974,-139,317,-21
1906,349,-29,975,-137,264,-25
1907,356,10,982,-109,164,-70
1908,351,28,992,-57,68,-103
1909,359,35,991,22,-2,-53
1910,342,25,1001,70,-68,29
1911,338,5,988,80,-144,90
1912,331,-5,963,55,-185,104
1913,324,-34,950,37,-191,98
1914,323,-43,940,33,-160,78
1915,321,-24,940,-8,-103,-4
1916,340,0,938,-88,-35,-76
1917,341,23,934,-150,10,-60
1918,336,18,935,-131,59,-25
1919,327,25,952,-29,109,-31
1920,324,15,966,102,164,-2
1921,342,-13,967,215,182,31
1922,337,-29,973,221,158,6
1923,331,-33,990,145,127,-18
1924,326,-32,1005,55,113,-4
1925,330,-46,1009,-39,100,0
1926,324,-30,1009,-162,98,-18
1927,325,-16,988,-215,76,-41
1928,330,-21,971,-191,35,-62
1929,313,-24,976,-76,14,-82
1930,327,-27,963,66,-8,-86
1931,325,-54,947,158,-29,-49
1932,320,-75,934,176,-17,-37
1933,324,-57,915,80,39,-88
1934,322,-46,924,-68,111,-86
1935,311,-41,926,-180,184,-45
1936,308,-60,944,-168,211,2
1937,317,-73,956,-57,211,-12
1938,303,-113,966,39,186,-60
1939,302,-137,962,90,156,-125
1940,305,-144,940,86,152,-185
1941,297,-168,962,72,149,-248
1942,305,-181,953,70,149,-301
1943,309,-172,965,35,135,-400
1944,298,-151,954,-68,125,-502
1945,305,-136,960,-226,131,-523
1946,306,-119,935,-410,143,-490
1947,297,-107,930,-547,170,-455
1948,288,-87,914,-580,188,-459
1949,300,-89,894,-510,203,-494
1950,304,-72,895,-391,217,-516
1951,293,-74,885,-260,221,-514
1952,286,-90,898,-53,238,-553
1953,300,-53,930,174,315,-713
1954,297,-33,979,276,367,-816
1955,318,-31,1008,270,371,-810
1956,319,-27,1014,240,346,-791
1957,320,-18,1042,127,287,-797
1958,308,-14,1033,-62,197,-728
1959,293,0,1028,-230,108,-654
1960,276,-13,1005,-322,63,-602
1961,266,-23,971,-314,96,-615
1962,261,-26,953,-219,160,-650
1963,272,-25,957,-148,193,-684
1964,272,-52,946,-109,217,-701
1965,260,-51,964,-64,277,-717
1966,274,-27,988,-35,361,-769
1967,279,-32,1008,-37,424,-810
1968,303,-41,1047,-56,391,-809
1969,307,-16,1058,-99,277,-812
1970,283,-10,1053,-164,160,-789
1971,262,-23,1035,-138,39,-744
1972,271,-15,1022,-47,-16,-762
1973,277,-12,1008,28,-12,-836
1974,280,0,1010,51,18,-865
1975,282,-7,963,51,10,-836
1976,252,-21,955,88,-49,-791
1977,234,-24,931,106,-19,-789
1978,225,-19,948,106,111,-826
1979,222,-30,965,104,258,-869
1980,243,-22,980,121,395,-922
1981,268,-18,1017,47,453,-961
1982,278,-5,1036,-101,399,-998
1983,281,35,1050,-256,272,-977
1984,282,53,1022,-361,125,-904
1985,261,53,1013,-373,-10,-889
1986,243,35,978,-265,-107,-891
1987,233,43,952,-107,-96,-898
1988,252,40,958,168,-35,-935
1989,265,61,952,320,0,-1027
1990,263,47,945,256,-12,-1039
1991,258,57,942,84,-4,-980
1992,239,66,922,-103,33,-961
1993,233,65,906,-199,96,-939
1994,245,73,935,-166,195,-947
1995,239,83,970,-119,254,-988
1996,250,113,1021,-127,274,-984
1997,251,119,1008,-142,279,-908
1998,280,98,1010,-107,221,-789
1999,265,86,978,-45,90,-725
2000,249,71,984,16,4,-734
2001,221,67,961,94,8,-777
2002,234,56,980,147,39,-777
2003,233,46,986,162,76,-828
2004,231,63,996,110,135,-902
2005,252,69,1018,-17,178,-894
2006,245,95,1026,-219,195,-891
2007,255,113,1021,-392,186,-863
2008,262,128,990,-484,127,-809
2009,261,157,984,-490,72,-752
2010,236,180,989,-326,65,-740
2011,244,196,975,4,63,-713
2012,254,177,1006,324,47,-656
2013,257,163,1014,485,33,-617
2014,264,176,1041,449,-6,-574
2015,261,179,1025,276,-86,-500
2016,254,185,1011,96,-141,-418
2017,242,174,1013,-17,-125,-312
2018,240,141,991,-47,-39,-277
2019,238,134,1018,-68,24,-318
2020,243,119,1010,-162,67,-357
2021,239,130,1005,-285,100,-387
2022,244,131,1002,-381,109,-398
2023,247,144,1002,-422,123,-435
2024,243,177,1000,-383,174,-477
2025,265,200,1042,-314,234,-453
2026,265,209,1034,-222,203,-402
2027,276,221,1048,-72,90,-363
2028,278,213,1049,69,-41,-316
2029,267,206,1011,127,-174,-266
2030,239,219,965,141,-242,-197
2031,237,199,943,160,-213,-115
2032,242,171,951,213,-133,-59
2033,223,155,974,311,-60,-35
2034,219,126,992,406,14,-29
2035,232,111,1040,356,109,-39
2036,249,115,1066,84,154,0
2037,253,112,1057,-207,96,57
2038,243,120,1042,-357,10,70
2039,259,128,1033,-320,-64,65
2040,268,113,1006,-96,-158,35
2041,261,119,982,160,-264,-10
2042,231,116,982,320,-310,-21
2043,239,113,973,371,-262,18
2044,255,98,983,315,-183,70
2045,236,73,973,205,-162,66
2046,255,86,975,115,-146,84
2047,255,87,961,24,-121,115
2048,260,89,960,-17,-103,162
2049,254,73,942,-8,-82,121
2050,254,76,945,-2,-78,57
2051,256,81,927,-45,-84,27
2052,247,88,931,-80,-58,29
2053,251,98,924,-74,-25,72
2054,250,93,936,-41,39,117
2055,246,84,945,33,70,133
2056,247,65,941,121,55,139
2057,254,41,950,129,27,143
2058,265,36,947,86,-4,131
2059,270,27,952,-10,-60,111
2060,243,12,925,-203,-113,113
2061,242,3,896,-430,-154,176
2062,238,7,845,-623,-195,197
2063,227,-12,811,-766,-223,145
2064,208,-13,772,-857,-209,72
2065,209,-32,708,-928,-139,-8
2066,191,-36,668,-994,-74,-59
2067,174,-47,627,-1094,-35,-82
2068,155,-88,572,-1266,-64,-103
2069,136,-111,499,-1514,-154,-100
2070,144,-112,374,-1830,-336,-84
2071,146,-95,283,-2088,-586,-119
2072,129,-64,177,-2238,-781,-201
2073,96,31,114,-2144,-777,-334
2074,49,115,53,-1775,-562,-394
2075,19,177,-42,-1318,-281,-359
2076,-5,200,-156,-941,121,-307
2077,-60,212,-236,-713,660,-160
2078,-133,254,-338,-598,1332,164
2079,-225,230,-417,-562,2006,537
2080,-342,238,-478,-564,2746,869
2081,-370,236,-503,-564,3525,1205
2082,-335,137,-422,-525,4317,1395
2083,-411,158,-219,-336,5182,1156
2084,-500,230,113,84,6150,770
2085,-449,276,473,990,6928,420
2086,-399,300,844,2283,7256,-90
2087,-256,349,1389,3164,6563,-752
2088,-213,491,1834,3828,5574,-1260
2089,-254,466,2048,3412,4469,-1111
2090,-311,400,2030,2174,3340,-119
2091,-339,437,1910,469,2565,1070
2092,-424,399,1880,-801,2334,1686
2093,-398,314,1826,-1203,2361,1914
2094,-357,344,1806,-1021,2525,1688
2095,-315,393,1804,-781,2428,1256
2096,-290,462,1771,-736,2106,1094
2097,-279,551,1696,-643,1885,1076
2098,-251,671,1698,-367,2000,1084
2099,-299,792,1869,303,2484,973
2100,-272,823,2048,1231,2904,908
2101,-166,814,2048,1883,2684,1022
2102,-93,781,2048,2045,1975,1174
2103,-70,718,2048,1729,1022,1449
2104,-113,668,2048,1297,268,1815
2105,-223,650,2048,1109,-58,2184
2106,-266,614,2048,961,-180,2596
2107,-259,463,2048,557,-172,3041
2108,-265,294,2048,303,-80,3422
2109,-245,206,2048,195,-62,3514
2110,-278,180,2048,129,-141,3406
2111,-334,179,2048,207,-215,3326
2112,-374,104,2048,502,-223,3324
2113,-326,19,2048,867,-279,3352
2114,-273,-76,2048,1139,-392,3283
2115,-213,-149,2048,1256,-600,3096
2116,-208,-218,2048,1299,-969,2844
2117,-279,-318,2048,1400,-1527,2760
2118,-272,-434,2048,1606,-2098,2930
2119,-270,-452,2048,1697,-2576,3014
2120,-308,-477,2048,1236,-3289,3006
2121,-326,-541,2048,254,-4189,3117
2122,-392,-584,2029,-646,-4797,3225
2123,-429,-602,1815,-1285,-5127,3225
2124,-432,-607,1573,-1707,-5394,3063
2125,-404,-593,1351,-1900,-5521,2697
2126,-392,-557,1216,-1871,-5541,2274
2127,-378,-510,1059,-1736,-5416,1908
2128,-363,-480,968,-1457,-5225,1600
2129,-325,-441,886,-1066,-5014,1301
2130,-306,-402,813,-588,-4861,1010
2131,-301,-411,716,-144,-4816,691
2132,-270,-413,616,100,-4779,387
2133,-223,-389,517,78,-4642,131
2134,-176,-351,441,-230,-4400,-68
2135,-168,-250,413,-728,-4043,-209
2136,-153,-144,396,-1238,-3592,-197
2137,-115,-64,313,-1518,-3137,-74
2138,-69,-36,293,-1496,-2699,18
2139,-12,-13,289,-1250,-2336,-23
2140,19,10,254,-914,-2090,-98
2141,57,-16,280,-559,-1973,-168
2142,117,-11,288,-311,-2014,-281
2143,179,22,243,-215,-2139,-371
2144,184,31,190,-193,-2230,-437
2145,178,-1,139,-166,-2207,-529
2146,176,-16,91,-74,-2068,-644
2147,170,-48,38,37,-1812,-717
2148,171,-41,-14,23,-1527,-695
2149,174,-15,-51,-43,-1191,-668
2150,201,33,-52,-78,-701,-658
2151,211,60,-25,-18,-119,-654
2152,242,100,59,-8,490,-600
2153,298,122,142,-92,1029,-494
2154,344,138,229,-143,1365,-387
2155,404,166,301,-78,1393,-305
2156,442,190,364,8,1150,-295
2157,427,153,355,-23,897,-318
2158,389,96,400,-172,705,-264
2159,358,89,419,-394,754,-221
2160,346,81,448,-754,984,-221
2161,362,107,472,-1135,1320,-238
2162,377,112,534,-1273,1582,-252
2163,389,117,597,-1207,1703,-260
2164,398,141,685,-998,1748,-310
2165,384,158,777,-709,1777,-437
2166,383,177,878,-334,1785,-541
2167,357,186,977,25,1826,-580
2168,389,187,1032,260,1799,-480
2169,416,232,1098,369,1693,-408
2170,430,242,1114,340,1418,-326
2171,412,221,1086,131,1039,-92
2172,373,200,1083,-84,672,168
2173,313,168,1054,-221,551,358
2174,250,118,1082,-184,633,324
2175,261,86,1100,6,789,205
2176,293,63,1114,135,965,57
2177,306,70,1151,180,1113,-107
2178,322,76,1179,213,1242,-281
2179,331,58,1185,211,1279,-453
2180,323,78,1238,199,1221,-594
2181,330,103,1252,170,1074,-697
2182,339,130,1247,156,828,-756
2183,330,141,1227,66,529,-691
2184,300,161,1167,-115,201,-490
2185,276,170,1083,-213,31,-178
2186,272,132,1025,-217,-70,106
2187,256,103,993,-123,-125,326
2188,222,78,978,-19,-21,412
2189,227,52,1000,2,184,397
2190,234,26,1009,-74,334,354
2191,236,10,1016,-182,416,295
2192,253,16,1012,-234,488,233
2193,238,14,1033,-211,559,137
2194,254,20,1036,-144,602,72
2195,277,35,1055,-68,508,-21
2196,283,53,1047,12,315,-115
2197,296,74,1040,78,123,-156
2198,288,77,1020,115,-57,-125
2199,257,63,1004,109,-191,-39
2200,234,59,982,53,-287,37
2201,215,44,960,-62,-297,65
2202,224,51,918,-182,-178,74
2203,227,48,903,-254,8,102
2204,240,49,915,-256,158,135
2205,247,33,951,-156,240,125
2206,226,30,979,22,268,72
2207,239,29,1005,207,279,-27
2208,256,50,1028,332,252,-154
2209,257,60,1024,315,190,-176
2210,271,65,1004,147,98,-141
2211,264,64,988,-53,-39,-82
2212,248,61,963,-172,-137,-37
2213,236,58,942,-144,-150,-35
2214,235,70,947,-43,-72,-92
2215,235,72,946,25,-10,-125
2216,238,62,945,82,27,-100
2217,239,68,965,137,76,-62
2218,247,70,956,176,117,-78
2219,257,62,1003,172,104,-98
2220,254,75,976,174,82,-45
2221,254,66,947,178,59,29
2222,259,39,952,197,-17,61
2223,253,13,940,180,-88,84
2224,250,8,926,55,-84,162
2225,232,-21,925,-125,-16,229
2226,220,-32,930,-256,68,244
2227,237,-43,940,-258,158,162
2228,242,-43,968,-144,211,12
2229,263,-24,972,-43,217,-162
2230,269,-18,973,41,152,-287
2231,262,0,942,70,78,-322
2232,247,-5,930,66,43,-303
2233,233,4,921,27,68,-310
2234,248,7,932,-57,141,-348
2235,269,12,938,-125,197,-363
2236,257,30,962,-187,207,-361
2237,243,31,963,-236,221,-330
2238,222,37,972,-293,272,-299
2239,236,39,983,-322,318,-277
2240,257,27,989,-205,328,-279
2241,248,30,1009,-51,330,-271
2242,230,42,1024,45,330,-260
2243,234,20,1029,76,297,-260
2244,238,18,1049,49,311,-264
2245,240,18,1047,-12,317,-299
2246,243,13,1038,-111,268,-346
2247,244,14,1027,-215,209,-338
2248,238,32,1041,-262,174,-340
2249,219,14,1030,-287,141,-348
2250,224,14,1040,-301,115,-361
2251,219,15,1034,-293,96,-381
2252,212,0,1025,-207,88,-404
2253,215,8,1041,-111,117,-455
2254,222,7,1053,-82,139,-469
2255,226,9,1052,-82,119,-443
2256,198,10,1046,-62,80,-420
2257,211,-6,1027,-43,29,-398
2258,215,-29,1015,-61,-51,-365
2259,214,-33,1007,-137,-139,-334
2260,209,-36,999,-227,-189,-400
2261,198,-18,985,-275,-172,-502
2262,191,-3,992,-266,-86,-578
2263,196,15,993,-205,8,-641
2264,210,32,1011,-125,47,-707
2265,205,47,1009,-82,55,-752
2266,211,50,1024,-80,47,-742
2267,195,55,1012,-84,45,-695
2268,203,49,1034,-117,57,-662
2269,203,65,1022,-158,88,-641
2270,205,58,1016,-230,68,-613
2271,199,69,987,-316,55,-580
2272,188,56,978,-353,90,-545
2273,195,45,965,-404,129,-475
2274,197,48,963,-465,166,-416
2275,172,40,954,-478,197,-391
2276,184,27,945,-467,260,-357
2277,188,21,978,-395,313,-377
2278,204,-2,987,-197,291,-441
2279,193,-7,981,49,190,-557
2280,191,-29,998,227,96,-600
2281,180,-52,978,283,14,-611
2282,183,-73,992,193,-53,-596
2283,170,-93,980,16,-55,-613
2284,159,-85,982,-166,8,-678
2285,167,-68,974,-336,104,-764
2286,188,-42,965,-451,123,-871
2287,189,-15,951,-510,135,-889
2288,194,-19,943,-461,135,-912
2289,162,5,974,-416,176,-986
2290,157,23,976,-441,246,-1029
2291,164,29,977,-414,313,-1016
2292,186,22,1008,-311,324,-1023
2293,197,24,1024,-217,262,-1055
2294,193,24,1036,-119,149,-1164
2295,192,58,1027,-21,74,-1285
2296,181,92,1030,-33,67,-1254
2297,193,113,1027,-96,90,-1125
2298,183,112,1028,-119,82,-1033
2299,177,118,1026,-98,92,-959
2300,184,120,1043,-70,127,-851
2301,176,102,1034,-57,162,-769
2302,179,91,1047,-47,149,-736
2303,175,72,1076,-43,133,-769
2304,187,73,1068,-10,119,-869
2305,204,79,1059,-64,76,-951
2306,212,106,1046,-232,-8,-935
2307,193,110,1036,-447,-78,-887
2308,175,125,1008,-590,-74,-826
2309,171,131,1010,-582,-25,-758
2310,170,124,1008,-447,37,-728
2311,161,123,994,-236,72,-732
2312,170,128,1002,22,88,-732
2313,164,106,1007,277,88,-711
2314,164,102,1037,477,74,-666
2315,170,90,1059,613,57,-627
2316,163,65,1073,627,35,-557
2317,175,57,1095,506,-16,-439
2318,192,45,1087,313,-88,-350
2319,192,39,1090,92,-170,-318
2320,178,35,1049,-135,-248,-363
2321,150,32,1036,-234,-316,-387
2322,123,46,1023,-217,-322,-475
2323,136,41,1024,-174,-254,-621
2324,158,56,1013,-100,-154,-803
2325,167,86,1045,-62,-94,-932
2326,184,122,1047,-143,-100,-953
2327,201,151,1041,-316,-103,-920
2328,194,182,1040,-514,-150,-883
2329,193,211,1036,-650,-215,-840
2330,200,233,995,-756,-266,-779
2331,214,267,982,-844,-299,-719
2332,215,297,954,-873,-357,-596
2333,201,317,895,-779,-394,-467
2334,212,319,862,-570,-377,-332
2335,201,306,842,-244,-350,-223
2336,181,277,826,137,-254,-96
2337,161,236,837,469,-68,-21
2338,164,198,886,736,108,-4
2339,178,150,934,900,205,6
2340,178,113,991,924,233,43
2341,180,74,1019,813,207,76
2342,177,33,1053,627,162,59
2343,194,17,1046,311,123,0
2344,211,17,1015,-160,57,-59
2345,192,46,990,-635,-25,-64
2346,188,92,955,-920,-19,-76
2347,183,127,915,-1000,61,-43
2348,185,137,908,-932,139,49
2349,169,126,925,-691,217,72
2350,189,136,955,-353,336,63
2351,196,118,983,6,379,61
2352,202,91,1028,299,369,80
2353,200,64,1047,529,305,84
2354,200,54,1061,603,203,55
2355,205,40,1075,519,104,53
2356,189,37,1038,316,33,59
2357,181,44,1044,86,14,117
2358,183,44,1028,-168,55,221
2359,177,39,1029,-375,92,289
2360,163,59,1021,-432,123,295
2361,165,65,1013,-301,149,246
2362,178,58,1015,-65,172,195
2363,176,46,1041,133,186,186
2364,185,15,1037,232,170,186
2365,197,6,1046,193,121,168
2366,181,0,1049,35,100,158
2367,174,6,1053,-125,63,133
2368,167,9,1048,-225,45,90
2369,170,21,1046,-201,37,41
2370,171,42,1034,-123,16,8
2371,181,41,1031,-37,-35,0
2372,183,33,1002,23,-94,22
2373,192,29,1006,49,-125,43
2374,172,38,979,49,-137,18
2375,164,35,974,12,-117,18
2376,166,44,973,0,-47,43
2377,155,32,989,19,63,55
2378,175,37,1001,47,156,41
2379,168,52,1029,10,188,31
2380,193,34,1020,-43,129,37
2381,195,24,1032,-70,39,53
2382,170,30,1027,-82,-41,26
2383,174,27,1007,-88,-80,-53
2384,167,24,992,-72,-100,-76
2385,178,23,979,-53,-88,-39
2386,176,20,974,-55,-64,-35
2387,172,24,978,-72,-41,-57
2388,186,28,964,-149,-23,-53
2389,193,31,956,-191,-14,-60
2390,186,39,945,-184,-35,-88
2391,188,43,926,-201,-60,-105
2392,187,46,908,-266,-82,-60
2393,186,42,881,-326,-115,-14
2394,178,38,829,-359,-142,-17
2395,188,43,806,-395,-152,-47
2396,175,63,766,-471,-142,-37
2397,167,63,711,-559,-113,31
2398,151,71,672,-584,-62,113
2399,147,57,608,-525,-39,182
2400,152,41,562,-440,-101,236
2401,126,14,494,-369,-211,301
2402,91,-20,426,-373,-371,389
2403,82,-30,315,-498,-502,514
2404,60,-55,186,-772,-685,654
2405,59,-70,57,-1078,-822,754
2406,47,-58,-44,-1498,-943,777
2407,11,-31,-193,-2002,-1039,709
2408,-41,43,-322,-2604,-898,670
2409,-127,116,-455,-3115,-435,672
2410,-239,219,-529,-3283,264,705
2411,-349,295,-607,-3024,1184,779
2412,-432,334,-622,-2342,2137,861
2413,-435,284,-572,-1154,2959,883
2414,-442,253,-397,141,3664,754
2415,-523,234,-131,1094,4285,568
2416,-604,139,176,1918,4969,393
2417,-613,84,553,2965,5524,-90
2418,-553,54,907,3881,5621,-783
2419,-394,118,1274,3973,5166,-1205
2420,-399,263,1510,3262,4697,-1123
2421,-478,421,1659,2502,4334,-754
2422,-505,508,1842,2258,4223,-414
2423,-457,498,1988,2201,4289,26
2424,-362,428,2048,1744,4207,459
2425,-203,467,2048,773,3658,651
2426,-171,578,2048,-672,2938,779
2427,-230,706,2048,-1471,2440,1035
2428,-270,826,2048,-1156,2258,1131
2429,-262,829,2048,-463,2182,1248
2430,-213,780,2048,314,1893,1410
2431,-208,727,2048,869,1570,1514
2432,-257,711,2048,1129,1377,1598
2433,-251,699,2048,1103,1287,1777
2434,-204,679,2048,1031,1264,1975
2435,-139,672,2048,1004,1076,2139
2436,-111,705,2048,842,686,2293
2437,-108,631,2048,641,141,2506
2438,-153,558,2048,619,-293,2692
2439,-198,470,2048,617,-453,2856
2440,-166,341,2048,543,-424,3104
2441,-182,229,2048,467,-367,3207
2442,-187,161,2019,369,-387,3197
2443,-232,102,1940,342,-459,3242
2444,-266,50,1886,455,-490,3397
2445,-296,16,1818,633,-400,3514
2446,-326,-73,1834,982,-260,3490
2447,-273,-127,1876,1521,-205,3211
2448,-255,-188,1936,1982,-203,2904
2449,-244,-239,2048,2240,-303,2690
2450,-225,-304,2048,2170,-578,2547
2451,-198,-374,2048,1838,-1068,2455
2452,-201,-450,2048,1396,-1721,2496
2453,-224,-517,2048,769,-2410,2625
2454,-260,-518,2028,76,-3033,2606
2455,-316,-508,1883,-496,-3504,2533
2456,-363,-490,1718,-721,-3789,2442
2457,-331,-513,1581,-723,-3869,2334
2458,-339,-540,1462,-607,-3725,2108
2459,-333,-532,1400,-602,-3434,1871
2460,-321,-491,1333,-854,-3027,1662
2461,-343,-514,1320,-1260,-2642,1574
2462,-298,-527,1392,-1395,-2516,1451
2463,-183,-461,1485,-1361,-2865,947
2464,-152,-373,1452,-1356,-3855,389
2465,-212,-297,1320,-1305,-4894,135
2466,-275,-262,1148,-1275,-5574,39
2467,-331,-237,962,-1408,-5844,-4
2468,-347,-236,736,-1732,-5810,-64
2469,-361,-221,539,-2084,-5537,-105
2470,-323,-224,378,-2232,-4920,-117
2471,-285,-166,294,-2203,-4182,-299
2472,-244,-62,257,-2078,-3490,-473
2473,-168,6,210,-1885,-3023,-570
2474,-83,62,125,-1723,-2728,-601
2475,-49,117,30,-1711,-2445,-471
2476,-58,100,-42,-1695,-2080,-234
2477,-26,36,20,-1469,-1682,-156
2478,81,98,1,-1082,-1517,-424
2479,125,107,-33,-856,-1580,-650
2480,145,136,-64,-545,-1668,-810
2481,145,142,-65,-205,-1619,-812
2482,149,133,-49,35,-1412,-734
2483,181,103,-5,152,-994,-711
2484,262,94,55,184,-582,-760
2485,285,78,164,141,-226,-801
2486,298,127,252,-6,43,-820
2487,340,190,303,-342,213,-791
2488,356,242,368,-734,266,-658
2489,362,244,453,-1012,352,-435
2490,358,267,499,-1119,367,-269
2491,332,246,540,-975,447,-174
2492,319,205,594,-500,549,-166
2493,326,114,598,125,598,-219
2494,321,61,624,680,592,-353
2495,324,48,640,877,645,-525
2496,314,77,680,744,869,-719
2497,301,112,723,436,1219,-781
2498,319,120,772,82,1549,-639
2499,366,141,826,-164,1699,-551
2500,374,179,878,-326,1697,-641
2501,361,181,970,-309,1592,-723
2502,306,208,1057,-117,1498,-732
2503,319,237,1096,137,1488,-639
2504,347,254,1130,307,1445,-471
2505,370,264,1123,369,1311,-230
2506,376,257,1102,215,1055,27
2507,377,226,1024,-59,756,297
2508,313,200,1006,-313,584,559
2509,257,171,978,-418,592,774
2510,241,139,983,-373,727,838
2511,238,94,1014,-152,871,666
2512,274,71,1030,166,938,389
2513,285,61,1055,361,908,137
2514,260,51,1080,394,854,-49
2515,250,26,1112,320,809,-150
2516,244,-1,1149,172,772,-201
2517,276,3,1155,39,723,-148
2518,299,14,1149,-66,502,-105
2519,295,30,1098,-150,205,18
2520,271,29,1037,-260,-29,207
2521,230,17,990,-414,-129,322
2522,222,37,938,-455,-78,393
2523,209,56,963,-354,20,359
2524,213,68,944,-68,131,227
2525,247,53,934,254,205,137
2526,249,37,935,436,260,121
2527,242,29,943,457,266,115
2528,239,20,981,439,248,104
2529,235,35,1001,398,277,86
2530,226,21,1037,293,332,158
2531,240,2,1075,100,332,236
2532,261,-7,1085,-94,244,254
2533,260,-4,1065,-182,104,190
2534,257,30,1079,-150,-59,113
2535,234,63,1016,-191,-109,-27
2536,260,43,1005,-191,-117,-115
2537,246,36,1005,-147,-80,-103
2538,219,48,994,-127,8,-125
2539,224,58,1000,-98,82,-144
2540,227,70,1004,-47,152,-141
2541,256,70,1019,2,201,-80
2542,250,83,1004,-18,207,24
2543,249,62,980,-96,186,135
2544,243,47,988,-107,162,207
2545,244,32,991,-59,164,209
2546,244,25,1011,-47,141,147
2547,246,36,1047,-64,104,82
2548,237,32,1036,-115,70,39
2549,248,37,1044,-94,27,-16
2550,241,34,1042,-2,-4,-49
2551,239,31,1016,94,-53,-103
2552,242,19,998,127,-111,-127
2553,238,33,981,53,-113,-113
2554,241,26,943,-86,-88,-33
2555,243,23,942,-151,-57,45
2556,239,6,951,-139,-41,31
2557,233,-4,950,-90,20,-39
2558,240,4,956,-43,104,-76
2559,239,-8,973,-59,156,-43
2560,259,-19,986,-37,154,-6
2561,261,-25,1003,-74,127,-6
2562,249,-26,1011,-145,92,-57
2563,251,-34,1016,-168,47,-187
2564,255,-18,1012,-151,-6,-271
2565,235,7,1009,-125,-4,-305
2566,242,20,1002,-115,-23,-295
2567,253,14,999,-78,-80,-250
2568,243,6,968,-51,-98,-228
2569,219,3,950,-29,-45,-203
2570,221,-5,951,-10,57,-166
2571,227,-23,944,-12,170,-129
2572,231,-34,964,-24,229,-127
2573,234,-40,984,-63,221,-139
2574,229,-47,991,-88,225,-148
2575,249,-44,990,-115,133,-219
2576,241,-57,997,-149,47,-248
2577,231,-47,993,-176,6,-295
2578,221,-31,976,-182,-43,-363
2579,228,-49,940,-158,-62,-396
2580,214,-33,944,-172,-27,-404
2581,220,-31,929,-223,61,-430
2582,224,-31,933,-219,147,-449
2583,213,-46,953,-172,215,-435
2584,218,-39,958,-145,252,-420
2585,218,-45,972,-113,307,-445
2586,218,-35,1005,-115,344,-453
2587,222,-36,1019,-174,367,-445
2588,236,-35,1049,-281,334,-441
2589,242,-40,1053,-291,205,-439
2590,231,-44,1035,-236,59,-461
2591,221,-50,1023,-211,-49,-498
2592,191,-65,964,-227,-86,-490
2593,186,-76,970,-223,-43,-467
2594,179,-95,957,-246,51,-484
2595,184,-102,957,-281,131,-514
2596,186,-103,952,-324,209,-568
2597,183,-80,978,-344,315,-662
2598,191,-71,1012,-309,371,-756
2599,199,-55,1026,-197,369,-789
2600,212,-70,1063,-104,316,-760
2601,210,-71,1052,-59,203,-742
2602,195,-76,1041,-53,94,-769
2603,178,-83,1017,-14,2,-797
2604,171,-94,1029,31,-27,-816
2605,166,-97,1021,90,-19,-857
2606,188,-104,1009,146,-14,-933
2607,179,-101,1015,154,-12,-1031
2608,172,-80,1012,49,43,-1125
2609,170,-62,1020,-137,94,-1174
2610,159,-36,1015,-307,94,-1168
2611,180,-45,1037,-383,86,-1131
2612,182,-47,1028,-381,65,-1156
2613,178,-27,1058,-399,65,-1242
2614,176,17,1056,-512,100,-1324
2615,185,42,1042,-670,108,-1269
2616,185,66,1044,-750,115,-1199
2617,176,92,1047,-676,61,-1221
2618,180,112,1024,-463,6,-1248
2619,193,118,1028,-209,-39,-1277
2620,203,128,1007,58,-107,-1381
2621,192,143,1004,244,-168,-1410
2622,188,150,1011,324,-166,-1363
2623,184,167,1018,359,-109,-1320
2624,186,169,1025,322,-62,-1275
2625,189,154,1015,238,-74,-1168
2626,198,156,1012,99,-100,-1072
2627,202,149,991,-53,-113,-1029
2628,201,159,977,-195,-94,-969
2629,194,176,973,-326,-35,-875
2630,201,164,982,-488,-12,-783
2631,186,154,966,-533,-2,-717
2632,177,169,969,-545,-12,-687
2633,177,161,956,-481,-21,-695
2634,183,143,960,-363,49,-674
2635,181,128,962,-248,94,-642
2636,194,123,973,-207,147,-623
2637,209,138,982,-180,158,-605
2638,213,134,995,-172,119,-562
2639,201,141,978,-184,27,-510
2640,197,146,976,-143,-8,-449
2641,204,135,957,-69,8,-369
2642,201,122,967,-33,49,-303
2643,192,92,987,-16,113,-199
2644,186,80,996,15,135,-141
2645,158,59,1004,25,143,-139
2646,154,12,1005,51,186,-172
2647,172,-14,1016,107,180,-258
2648,174,-32,1031,125,160,-353
2649,170,-35,1069,150,141,-482
2650,174,-22,1072,144,108,-601
2651,192,-7,1065,8,47,-648
2652,174,12,1049,-217,-37,-617
2653,175,31,1019,-440,-107,-592
2654,162,40,977,-570,-125,-578
2655,183,52,975,-547,-55,-533
2656,170,76,974,-426,4,-543
2657,170,89,993,-256,61,-582
2658,176,89,1017,-45,102,-623
2659,197,88,1016,183,51,-635
2660,194,105,1008,205,12,-629
2661,188,99,998,51,-16,-568
2662,185,92,986,-49,8,-476
2663,193,111,996,-20,43,-467
2664,194,122,1024,74,55,-527
2665,200,144,1043,117,41,-570
2666,206,164,1016,139,4,-557
2667,202,165,1016,142,-33,-457
2668,193,171,1005,162,-41,-365
2669,191,145,1012,189,-4,-308
2670,171,139,1025,207,43,-267
2671,191,129,1048,180,70,-262
2672,190,113,1049,111,57,-219
2673,191,101,1066,45,43,-185
2674,187,108,1045,-22,6,-172
2675,186,106,1047,-100,-33,-137
2676,192,89,1016,-164,-94,-131
2677,176,86,996,-221,-152,-123
2678,168,84,978,-201,-168,-117
2679,172,83,961,-119,-150,-139
2680,177,94,953,-20,-86,-166
2681,186,96,978,31,2,-170
2682,192,104,975,33,47,-183
2683,187,107,989,57,86,-185
2684,189,129,1016,105,104,-158
2685,198,124,1037,121,76,-109
2686,211,126,1021,92,-43,-51
2687,217,110,984,-10,-189,31
2688,179,122,953,-119,-242,61
2689,166,135,951,-160,-170,65
2690,167,124,926,-117,-66,88
2691,180,117,946,8,14,76
2692,193,102,957,137,76,37
2693,178,97,957,205,119,45
2694,169,77,985,287,164,109
2695,165,40,1011,340,193,147
2696,188,26,1041,326,193,129
2697,204,21,1066,207,119,86
2698,203,23,1043,47,20,92
2699,195,39,1010,-113,-57,104
2700,185,52,990,-236,-78,131
2701,187,45,961,-252,-72,151
2702,167,37,969,-221,-33,145
2703,167,45,964,-184,37,147
2704,164,34,975,-102,109,113
2705,168,24,993,17,147,45
2706,205,22,1011,68,150,8
2707,206,33,1016,64,80,-17
2708,206,58,1021,-4,-23,-29
2709,204,60,992,-90,-121,22
2710,200,40,963,-160,-158,111
2711,179,60,965,-203,-125,117
2712,169,45,940,-166,-70,111
2713,178,37,955,-84,27,102
2714,189,27,962,-4,102,78
2715,187,19,952,31,131,43
2716,201,17,929,-88,111,27
2717,193,14,911,-361,55,57
2718,183,32,879,-639,10,111
2719,161,27,816,-799,-14,160
2720,156,31,799,-813,4,178
2721,158,43,744,-776,59,192
2722,150,33,740,-688,92,217
2723,142,21,693,-588,47,236
2724,127,1,603,-561,-74,262
2725,110,-26,498,-658,-228,342
2726,104,-52,376,-846,-328,426
2727,66,-52,259,-1096,-404,496
2728,59,-57,127,-1379,-396,594
2729,26,-18,18,-1594,-205,608
2730,-25,6,-95,-1621,176,580
2731,-73,52,-191,-1455,656,492
2732,-103,75,-237,-1006,1322,434
2733,-160,55,-234,-369,1922,369
2734,-196,-3,-144,332,2443,262
2735,-148,-30,-19,724,2828,41
2736,-129,42,125,447,3129,-213
2737,-151,106,220,-201,3436,-195
2738,-204,181,326,-844,3664,-39
2739,-270,287,480,-1092,3846,88
2740,-336,351,657,-850,4053,229
2741,-332,382,821,-213,4133,420
2742,-335,350,988,392,4059,496
2743,-316,339,1199,697,3758,420
2744,-259,382,1300,756,3191,340
2745,-217,423,1345,527,2475,428
2746,-247,447,1422,410,1947,533
2747,-341,489,1471,658,1736,512
2748,-372,505,1504,1150,1815,506
2749,-377,489,1529,1594,1932,535
2750,-390,473,1549,1676,1984,596
2751,-375,495,1535,1463,2002,676
2752,-358,552,1596,1144,2027,844
2753,-344,596,1682,904,2188,1072
2754,-329,526,1870,1000,2279,1350
2755,-284,463,2048,1248,2092,1434
2756,-260,410,2048,1322,1752,1436
2757,-204,301,2048,1059,1430,1629
2758,-169,222,2048,738,1201,1936
2759,-160,146,2048,400,1027,2125
2760,-174,55,2048,396,920,2026
2761,-125,10,2048,560,926,1758
2762,-95,-31,2048,656,914,1518
2763,-107,-4,2048,601,715,1369
2764,-149,76,2026,461,592,1303
2765,-155,165,1999,467,543,1459
2766,-123,226,1980,590,635,1746
2767,-112,212,1965,848,734,2020
2768,-122,205,2003,1184,695,2172
2769,-103,222,2046,1559,461,2162
2770,-132,255,2048,1883,27,2145
2771,-149,242,2048,2197,-432,2238
2772,-192,170,2035,2434,-838,2406
2773,-237,90,2013,2375,-1084,2578
2774,-224,-9,1966,2014,-1285,2658
2775,-220,-66,1942,1535,-1494,2600
2776,-270,-34,1916,1062,-1646,2381
2777,-280,-49,1925,820,-1723,2217
2778,-274,-42,1944,797,-1838,2184
2779,-278,-55,1947,756,-2109,2227
2780,-279,-67,1914,572,-2502,2274
2781,-291,-111,1876,307,-2953,2297
2782,-299,-123,1781,66,-3416,2295
2783,-285,-121,1672,-246,-3887,2309
2784,-322,-111,1570,-643,-4287,2272
2785,-377,-101,1474,-852,-4535,2236
2786,-397,-135,1369,-922,-4684,2250
2787,-418,-189,1247,-893,-4738,2293
2788,-398,-309,1125,-824,-4766,2305
2789,-362,-401,1011,-867,-4732,2149
2790,-370,-422,906,-1166,-4625,1863
2791,-356,-421,814,-1537,-4504,1656
2792,-309,-435,726,-1746,-4484,1461
2793,-267,-443,624,-1832,-4453,1209
2794,-259,-429,560,-1764,-4422,922
2795,-202,-404,450,-1660,-4355,611
2796,-202,-349,409,-1637,-4152,205
2797,-159,-309,351,-1557,-3916,-189
2798,-119,-253,311,-1467,-3664,-519
2799,-52,-176,272,-1422,-3447,-709
2800,-24,-115,257,-1408,-3285,-783
2801,30,-76,212,-1391,-3146,-863
2802,82,8,190,-1490,-2959,-982
2803,93,63,143,-1633,-2674,-1012
2804,118,104,110,-1664,-2269,-965
2805,171,116,85,-1592,-1816,-914
2806,177,140,131,-1508,-1291,-877
2807,186,157,168,-1400,-809,-824
2808,219,189,207,-1285,-455,-783
2809,279,213,222,-1078,-377,-738
2810,310,191,239,-781,-475,-740
2811,345,202,270,-340,-672,-801
2812,354,213,267,43,-805,-865
2813,339,210,267,217,-764,-838
2814,338,201,264,301,-654,-705
2815,339,179,267,226,-451,-609
2816,348,184,316,-25,-219,-566
2817,369,190,366,-318,88,-496
2818,372,211,425,-596,467,-414
2819,397,215,528,-818,762,-310
2820,415,231,614,-936,906,-244
2821,421,258,721,-902,928,-191
2822,435,261,778,-715,805,-137
2823,459,239,795,-363,484,-170
2824,444,213,780,64,191,-203
2825,389,197,777,310,27,-164
2826,381,160,781,355,-14,-131
2827,403,147,752,168,41,-129
2828,382,197,742,-186,266,-109
2829,362,210,751,-494,580,55
2830,386,183,791,-551,922,250
2831,393,161,855,-346,1199,281
2832,412,148,937,0,1326,190
2833,419,113,1021,355,1338,125
2834,439,90,1114,646,1238,137
2835,431,62,1132,822,994,117
2836,410,34,1180,863,676,98
2837,406,-1,1179,707,426,20
2838,393,-7,1148,463,270,-51
2839,397,7,1122,174,207,-74
2840,405,17,1087,-121,186,-31
2841,388,32,1042,-322,207,-19
2842,387,45,1047,-406,264,-25
2843,387,74,1046,-385,316,4
2844,385,88,1067,-344,342,86
2845,387,75,1071,-272,330,209
2846,395,60,1052,-201,262,274
2847,398,46,1050,-172,150,287
2848,392,28,1032,-154,35,272
2849,379,21,1004,-115,-64,219
2850,356,-1,976,-16,-82,111
2851,361,-15,967,88,-10,6
2852,372,-12,967,121,84,-55
2853,357,16,983,109,150,-125
2854,367,49,965,41,158,-125
2855,379,57,959,-51,125,-45
2856,375,63,938,-59,67,25
2857,369,46,948,62,10,12
2858,358,55,953,176,33,-33
2859,352,56,986,217,88,-6
2860,373,35,988,150,104,80
2861,379,16,984,10,55,145
2862,366,11,977,-172,-29,188
2863,354,13,951,-297,-80,182
2864,361,38,926,-336,-74,106
2865,368,63,920,-262,-39,29
2866,340,59,904,-31,4,-23
2867,364,49,899,242,45,-86
2868,369,39,904,447,76,-148
2869,366,36,934,525,117,-162
2870,354,34,933,473,166,-162
2871,365,21,986,336,207,-133
2872,373,16,991,135,217,-105
2873,382,20,1015,-90,156,-55
2874,362,20,998,-272,84,8
2875,354,16,983,-320,20,27
2876,357,15,959,-232,-49,27
2877,357,4,942,-64,-90,24
2878,342,-3,936,68,-72,-27
2879,344,-9,915,66,-12,-115
2880,357,-4,925,-88,39,-164
2881,367,20,912,-334,72,-144
2882,364,22,913,-522,100,-103
2883,360,40,916,-512,158,-64
2884,353,44,913,-295,207,-70
2885,359,21,937,-18,246,-62
2886,356,1,974,127,301,-58
2887,357,-20,985,100,322,-72
2888,358,-13,1004,-8,275,-111
2889,374,-9,1000,-59,176,-178
2890,362,-2,1002,-53,92,-230
2891,364,-4,991,-82,31,-260
2892,368,13,973,-189,-51,-262
2893,355,23,925,-326,-103,-256
2894,337,27,928,-359,-82,-215
2895,323,42,932,-275,20,-185
2896,342,32,935,-172,162,-248
2897,356,26,960,-88,244,-275
2898,366,48,958,-100,244,-269
2899,356,38,937,-145,188,-195
2900,347,3,950,-98,180,-139
2901,348,-5,968,-16,201,-170
2902,361,-11,1000,6,190,-234
2903,357,-14,1016,-47,160,-267
2904,350,-9,1011,-115,106,-334
2905,370,6,1006,-254,25,-381
2906,353,34,979,-397,-62,-312
2907,341,32,943,-463,-96,-213
2908,331,14,933,-475,-60,-172
2909,322,6,924,-346,10,-176
2910,325,-2,936,-189,68,-211
2911,331,-23,935,-72,115,-250
2912,340,-27,930,-20,135,-281
2913,344,-40,950,-29,141,-326
2914,338,-17,966,-164,172,-361
2915,328,-16,973,-303,180,-353
2916,334,-8,964,-385,184,-334
2917,331,-6,962,-357,145,-359
2918,317,-14,996,-242,131,-391
2919,329,-26,983,-145,137,-414
2920,331,-36,982,-102,129,-432
2921,340,-38,1000,-150,100,-465
2922,335,-40,990,-256,47,-476
2923,315,-32,971,-397,18,-451
2924,319,-32,968,-502,24,-414
2925,326,-28,940,-498,25,-432
2926,328,-26,942,-451,0,-457
2927,313,-7,901,-397,-2,-443
2928,288,-22,895,-332,20,-400
2929,304,-35,887,-279,67,-389
2930,297,-53,899,-180,143,-439
2931,331,-45,936,-82,266,-521
2932,332,-44,944,-63,313,-611
2933,351,-44,991,-113,301,-656
2934,333,-37,987,-205,215,-691
2935,320,-52,991,-301,139,-709
2936,313,-31,999,-373,104,-687
2937,312,-23,969,-379,86,-689
2938,311,-14,973,-359,70,-689
2939,320,-17,941,-354,51,-703
2940,313,-7,943,-445,45,-685
2941,299,12,928,-580,76,-641
2942,293,-3,911,-693,125,-615
2943,287,0,913,-676,201,-635
2944,288,12,933,-576,311,-701
2945,306,22,960,-449,365,-795
2946,330,37,974,-371,330,-850
2947,335,69,991,-326,262,-904
2948,320,97,1012,-232,172,-930
2949,317,116,1001,-113,109,-871
2950,308,100,995,6,108,-769
2951,314,87,990,121,113,-738
2952,323,78,982,176,92,-746
2953,328,60,995,146,67,-719
2954,301,60,1010,39,70,-680
2955,294,59,987,-51,102,-640
2956,296,63,1023,-131,154,-598
2957,308,69,1040,-176,176,-582
2958,317,70,1053,-170,166,-599
2959,325,91,1038,-168,80,-596
2960,317,98,1002,-272,-86,-514
2961,285,80,954,-301,-199,-381
2962,248,39,938,-246,-160,-262
2963,263,8,937,-135,-23,-228
2964,262,-13,925,-10,139,-307
2965,266,-33,970,111,289,-428
2966,289,-17,1006,156,385,-568
2967,313,5,1030,101,393,-707
2968,329,52,1047,-45,242,-740
2969,322,79,1039,-196,76,-676
2970,312,98,1002,-256,-10,-594
2971,309,108,1009,-227,-31,-531
2972,296,122,999,-129,-59,-521
2973,291,146,973,4,-74,-515
2974,295,132,946,99,-80,-480
2975,291,127,926,142,-21,-424
2976,293,103,922,142,45,-392
2977,289,83,930,95,119,-348
2978,287,77,939,-16,231,-299
2979,299,53,988,-170,299,-279
2980,312,29,1024,-342,303,-303
2981,319,58,1051,-524,184,-318
2982,313,69,1009,-625,33,-250
2983,310,70,974,-512,-115,-211
2984,282,73,952,-240,-170,-252
2985,279,64,967,160,-113,-301
2986,291,77,987,470,-68,-408
2987,303,77,1006,619,-68,-488
2988,311,82,1021,640,-156,-500
2989,314,107,992,615,-256,-517
2990,307,123,979,568,-344,-523
2991,305,136,928,478,-373,-510
2992,300,160,936,383,-312,-467
2993,305,168,916,289,-246,-389
2994,300,185,910,193,-199,-316
2995,279,180,899,92,-105,-242
2996,294,185,904,45,20,-162
2997,297,185,921,68,115,-82
2998,303,160,935,107,152,-25
2999,313,141,985,113,158,4
3000,320,128,999,76,139,29
3001,321,129,1006,17,76,74
3002,300,119,996,-8,0,158
3003,273,86,988,-20,0,225
3004,286,52,991,15,57,236
3005,287,39,1020,58,100,166
3006,294,37,1053,58,90,102
3007,297,29,1067,10,94,45
3008,311,31,1053,-90,74,47
3009,304,42,1061,-264,25,82
3010,304,46,1054,-405,-16,131
3011,304,74,1025,-502,-27,137
3012,304,72,1010,-520,-80,137
3013,309,78,977,-381,-160,158
3014,298,70,959,-123,-195,131
3015,294,60,971,185,-182,61
3016,289,58,992,414,-156,-15
3017,294,44,982,439,-154,29
3018,298,18,999,308,-141,106
3019,294,8,967,107,-129,127
3020,308,25,943,-100,-127,119
3021,308,37,932,-281,-129,152
3022,305,29,919,-346,-96,186
3023,307,34,917,-264,-55,147
3024,308,17,918,-115,-39,106
3025,305,20,926,11,-35,102
3026,308,6,946,88,-25,90
3027,296,-9,937,148,-29,49
3028,300,-16,940,158,-47,37
3029,310,-13,924,60,-72,72
3030,300,-13,928,-100,-82,47
3031,303,3,897,-213,-72,16
3032,307,18,890,-270,-43,-31
3033,294,15,888,-264,-2,4
3034,291,25,879,-248,25,4
3035,280,10,850,-239,25,-15
3036,274,2,839,-237,24,-31
3037,286,-11,829,-278,55,-53
3038,278,12,811,-446,113,-41
3039,300,18,804,-606,203,-25
3040,278,32,816,-651,229,-53
3041,274,43,814,-545,287,-62
3042,284,48,801,-414,311,-76
3043,263,21,801,-303,295,-62
3044,249,0,755,-250,252,-49
3045,237,-25,740,-362,227,-17
3046,225,-38,674,-594,234,27
3047,201,-43,618,-867,254,70
3048,178,-38,575,-1143,283,115
3049,149,-31,514,-1299,332,166
3050,116,-27,455,-1315,342,178
3051,117,-35,387,-1190,309,182
3052,119,-44,302,-1000,275,186
3053,160,-53,246,-924,311,199
3054,120,-33,224,-943,520,84
3055,47,14,245,-871,1039,-70
3056,18,63,292,-660,1604,-185
3057,26,94,373,-395,2022,-273
3058,22,110,419,-283,2215,-205
3059,59,79,396,-389,2205,-10
3060,67,31,348,-652,2098,106
3061,2,89,388,-904,2139,164
3062,-47,130,382,-943,2330,233
3063,-93,170,393,-781,2617,242
3064,-145,209,421,-367,2920,250
3065,-186,210,454,211,3141,229
3066,-222,176,514,697,3318,168
3067,-200,174,557,785,3508,131
3068,-164,176,652,437,3623,186
3069,-138,184,788,58,3600,287
3070,-109,280,932,-109,3316,231
3071,-160,350,1037,-102,2910,356
3072,-211,388,1149,215,2775,596
3073,-297,418,1287,910,3104,635
3074,-267,419,1454,1787,3527,613
3075,-217,377,1678,2469,3775,588
3076,-138,426,1904,2724,3822,568
3077,-103,461,2048,2451,3568,664
3078,-98,497,2048,1783,3162,1121
3079,-110,515,2030,1006,2645,1608
3080,-196,553,1990,570,2301,1785
3081,-224,551,1909,412,2205,1875
3082,-215,551,1864,517,2236,1955
3083,-199,588,1839,822,2205,1828
3084,-189,621,1834,1271,2190,1705
3085,-209,650,1847,1639,2281,1731
3086,-247,690,1952,1943,2447,1750
3087,-257,676,2048,2359,2545,1871
3088,-199,628,2048,2666,2391,2154
3089,-197,569,2048,2633,2000,2602
3090,-231,462,2048,2283,1422,3080
3091,-284,334,2048,1803,805,3477
3092,-306,180,2048,1273,236,3869
3093,-325,1,2048,682,-326,4137
3094,-368,-152,2048,195,-746,4063
3095,-375,-246,2048,-111,-1045,3774
3096,-378,-298,2020,-246,-1328,3395
3097,-385,-291,1944,-188,-1549,2961
3098,-366,-288,1887,-72,-1705,2654
3099,-342,-287,1872,10,-1754,2379
3100,-289,-247,1924,53,-1975,2041
3101,-261,-211,1886,-20,-2373,1776
3102,-255,-180,1831,-205,-2824,1695
3103,-246,-150,1795,-399,-3197,1748
3104,-245,-144,1745,-596,-3400,1887
3105,-284,-196,1676,-789,-3592,2065
3106,-295,-286,1586,-949,-3853,2121
3107,-280,-349,1449,-1180,-4113,1961
3108,-287,-368,1307,-1522,-4266,1711
3109,-305,-358,1211,-1799,-4260,1434
3110,-289,-340,1123,-1875,-4168,1147
3111,-248,-282,1044,-1826,-4068,893
3112,-244,-231,981,-1711,-3996,652
3113,-211,-189,929,-1449,-3957,418
3114,-194,-134,893,-1207,-3891,217
3115,-166,-100,843,-1057,-3820,156
3116,-142,-94,778,-998,-3816,182
3117,-104,-75,745,-1024,-3861,252
3118,-92,-93,677,-1067,-3904,322
3119,-82,-134,595,-1106,-3912,348
3120,-80,-160,530,-1244,-3824,231
3121,-34,-139,465,-1572,-3633,98
3122,2,-75,425,-1904,-3285,-14
3123,19,-55,384,-1977,-2951,-103
3124,43,-7,341,-1904,-2664,-133
3125,57,-13,281,-1742,-2424,-55
3126,89,-8,222,-1420,-2230,-41
3127,112,-27,175,-906,-2088,-146
3128,103,-40,131,-328,-1898,-260
3129,118,-43,102,189,-1639,-373
3130,161,-33,78,451,-1463,-488
3131,216,-26,50,490,-1353,-558
3132,235,1,-7,433,-1275,-611
3133,256,56,-30,295,-1133,-703
3134,264,105,-35,203,-836,-709
3135,261,128,-10,223,-400,-701
3136,269,145,59,336,72,-660
3137,271,155,164,334,606,-568
3138,297,129,294,271,1096,-414
3139,353,87,417,207,1447,-297
3140,424,70,557,183,1566,-297
3141,420,78,696,223,1465,-346
3142,431,72,806,267,1195,-324
3143,422,79,861,264,846,-289
3144,422,45,870,258,484,-299
3145,414,37,868,156,252,-367
3146,364,56,888,-98,236,-381
3147,376,94,878,-410,348,-312
3148,395,122,904,-637,467,-223
3149,388,163,901,-707,561,-113
3150,392,166,899,-611,631,8
3151,375,133,914,-367,670,119
3152,370,92,936,-35,639,152
3153,368,70,959,269,572,72
3154,362,63,1009,563,551,-78
3155,366,66,1051,826,555,-199
3156,381,63,1101,912,510,-234
3157,356,63,1128,762,453,-168
3158,350,71,1141,564,373,-141
3159,341,75,1134,338,338,-94
3160,374,63,1104,76,277,-53
3161,361,56,1086,-139,207,-53
3162,337,94,1093,-250,248,-86
3163,340,108,1091,-203,283,-49
3164,365,105,1061,-146,231,25
3165,341,84,1022,-121,141,72
3166,338,69,996,-12,104,109
3167,334,45,982,182,125,88
3168,337,27,1007,324,162,53
3169,352,12,1037,381,145,-14
3170,354,19,1032,291,86,-92
3171,342,40,1041,51,10,-127
3172,349,62,1005,-186,-58,-55
3173,346,55,974,-252,-98,47
3174,336,58,958,-137,-98,72
3175,322,67,952,94,-49,-27
3176,328,54,971,377,16,-156
3177,345,58,1013,592,49,-160
3178,340,48,998,635,16,-123
3179,335,17,1004,535,-58,-103
3180,352,10,1005,334,-84,-105
3181,351,35,973,18,-94,-113
3182,333,68,947,-346,-113,-66
3183,335,106,935,-609,-125,29
3184,320,114,922,-566,-129,78
3185,322,111,910,-264,-88,76
3186,328,89,919,115,-19,51
3187,329,62,919,371,-6,16
3188,339,45,923,453,-12,33
3189,329,19,929,412,12,66
3190,324,-14,951,303,61,25
3191,337,-17,943,148,94,-35
3192,344,-20,966,-74,121,-103
3193,348,-18,961,-336,108,-139
3194,337,3,974,-547,74,-139
3195,332,44,964,-689,74,-111
3196,332,46,937,-672,63,-57
3197,332,25,902,-547,27,12
3198,321,-1,890,-361,-4,39
3199,315,-29,883,-178,20,51
3200,306,-72,884,-18,98,61
3201,319,-86,924,63,219,8
3202,337,-106,958,12,289,-125
3203,348,-86,992,-252,264,-252
3204,346,-62,977,-662,234,-303
3205,330,-29,977,-920,205,-291
3206,320,-16,950,-893,201,-305
3207,327,19,947,-684,229,-334
3208,345,38,956,-441,223,-357
3209,340,36,957,-215,174,-340
3210,328,20,919,-51,117,-281
3211,293,15,917,45,135,-244
3212,294,23,923,129,186,-209
3213,307,-8,937,219,246,-125
3214,324,-24,961,217,309,-68
3215,319,-43,961,51,346,-76
3216,306,-57,978,-141,322,-146
3217,305,-47,948,-311,307,-236
3218,296,-60,944,-416,289,-295
3219,297,-43,960,-412,326,-385
3220,295,-19,959,-334,383,-510
3221,302,-6,965,-273,402,-564
3222,297,0,979,-221,377,-596
3223,300,23,979,-178,354,-592
3224,306,42,1006,-115,391,-568
3225,316,43,1016,-35,375,-564
3226,329,54,1007,-8,287,-527
3227,303,44,1013,-57,219,-475
3228,290,33,996,-127,156,-410
3229,291,48,983,-186,174,-400
3230,268,33,973,-189,231,-414
3231,278,23,960,-186,309,-424
3232,284,45,973,-197,400,-449
3233,282,37,999,-213,416,-486
3234,294,36,1010,-156,365,-543
3235,290,47,1028,-102,287,-633
3236,285,80,1021,-123,217,-648
3237,273,80,996,-184,176,-559
3238,278,74,993,-205,180,-455
3239,275,70,956,-223,221,-437
3240,256,63,969,-205,229,-387
3241,257,50,955,-133,274,-309
3242,262,18,975,-100,359,-205
3243,252,11,979,-189,455,-176
3244,264,21,1000,-293,529,-219
3245,256,15,1002,-287,541,-285
3246,267,16,1017,-219,512,-330
3247,271,32,1023,-107,430,-416
3248,257,38,1017,39,309,-486
3249,244,20,1050,205,238,-508
3250,243,8,1031,313,215,-521
3251,239,-24,1032,301,182,-543
3252,254,-25,1014,205,147,-566
3253,240,-15,1016,60,108,-560
3254,226,-26,986,-94,82,-506
3255,220,-21,958,-197,115,-506
3256,214,-40,970,-229,176,-519
3257,217,-61,982,-217,217,-564
3258,214,-66,1013,-260,209,-644
3259,219,-50,1011,-410,190,-668
3260,206,-47,1009,-559,197,-676
3261,214,-25,998,-635,219,-721
3262,212,12,980,-692,221,-765
3263,225,31,987,-615,207,-756
3264,220,59,991,-438,158,-801
3265,213,70,984,-133,92,-824
3266,222,64,987,226,51,-844
3267,225,45,1001,472,39,-908
3268,218,45,996,494,80,-896
3269,217,52,1022,326,127,-892
3270,222,59,1011,88,156,-867
3271,234,63,1015,-106,184,-816
3272,227,91,1031,-242,199,-795
3273,231,92,1032,-281,133,-787
3274,229,96,1041,-268,63,-789
3275,232,107,1034,-238,43,-803
3276,222,140,1058,-248,55,-808
3277,251,154,1041,-190,22,-781
3278,236,147,1044,-119,-84,-728
3279,232,155,1021,-57,-131,-670
3280,220,144,1019,-33,-129,-611
3281,210,136,1014,-31,-82,-562
3282,213,114,1006,-41,-43,-525
3283,212,98,1010,-80,25,-502
3284,230,106,1032,-166,113,-515
3285,235,97,1059,-340,154,-529
3286,242,92,1065,-565,123,-500
3287,243,101,1053,-854,49,-439
3288,231,102,1037,-1055,-2,-367
3289,231,113,1029,-1090,2,-348
3290,230,117,1052,-1028,29,-330
3291,243,133,1020,-901,31,-291
3292,238,151,1007,-670,-19,-314
3293,251,160,1003,-383,-98,-316
3294,238,165,994,-78,-133,-316
3295,226,156,997,131,-107,-287
3296,249,124,1003,232,-86,-209
3297,235,94,1011,236,-109,-140
3298,235,73,993,174,-162,-57
3299,228,50,990,123,-207,-12
3300,214,38,980,109,-205,-25
3301,215,43,997,125,-148,-72
3302,221,40,989,154,-90,-129
3303,238,40,999,138,-82,-172
3304,231,31,1015,80,-68,-182
3305,244,45,1017,4,-82,-195
3306,241,55,999,-69,-131,-182
3307,237,56,986,-88,-184,-144
3308,231,53,976,-8,-213,-125
3309,241,48,947,99,-232,-119
3310,241,37,937,174,-238,-78
3311,225,32,920,197,-232,-55
3312,221,16,927,160,-172,-66
3313,223,26,940,103,-33,-92
3314,226,29,962,49,55,-133
3315,238,44,981,-20,94,-144
3316,264,32,1005,-121,100,-142
3317,261,49,1008,-289,86,-146
3318,270,54,1008,-514,24,-105
3319,268,61,967,-678,-94,-39
3320,238,72,935,-639,-127,-14
3321,232,65,940,-440,-82,4
3322,235,56,936,-174,-21,-14
3323,237,40,942,82,22,-43
3324,251,32,965,267,47,-92
3325,244,29,983,277,57,-113
3326,243,41,992,105,74,-92
3327,242,59,984,-119,86,-51
3328,249,51,979,-264,86,26
3329,255,48,995,-240,65,45
3330,255,46,1009,-135,20,24
3331,239,48,1031,-26,-17,0
3332,237,41,1014,53,-47,2
3333,236,16,1015,86,-80,0
3334,225,24,984,49,-98,29
3335,228,17,951,-31,-101,90
3336,220,3,951,-67,-64,86
3337,232,11,954,-12,10,33
3338,231,15,977,51,72,-15
3339,228,22,991,86,80,-27
3340,231,26,984,47,74,-12
3341,240,31,991,-28,35,16
3342,248,33,984,-86,-19,47
3343,240,25,982,-92,-78,61
3344,230,15,972,-45,-84,63
3345,217,3,974,35,-49,41
3346,221,6,974,105,10,18
3347,238,-3,973,133,63,-6
3348,246,-2,980,109,72,-19
3349,254,2,991,37,55,-14
3350,246,19,988,-41,51,4
3351,236,21,999,-96,70,6
3352,242,29,999,-113,68,27
3353,235,28,992,-112,47,59
3354,236,21,988,-72,24,61
3355,232,17,1008,-10,-25,31
3356,234,-2,994,64,-55,14
3357,239,2,993,117,-57,-12
3358,242,-1,1002,113,-31,-57
3359,244,11,994,31,-10,-80
3360,247,21,982,-80,4,-27
3361,242,17,974,-149,25,-2
3362,239,34,992,-166,37,-8
3363,234,37,982,-149,45,-8
3364,231,48,1000,-125,27,18
3365,246,34,995,-111,6,82
3366,240,11,983,-82,-27,88
3367,247,-3,961,-18,-66,47
3368,232,-9,951,45,-86,-2
3369,237,-13,942,41,-64,-4
3370,234,-10,931,-43,-23,-6
3371,231,-10,911,-131,39,-2
3372,225,-9,930,-172,102,-8
3373,228,-18,907,-221,129,-33
3374,240,-5,939,-260,123,-66
3375,240,3,908,-307,78,-100
3376,246,1,908,-393,24,-107
3377,219,5,857,-535,-14,-66
3378,213,1,799,-678,-25,-16
3379,191,-6,726,-801,-25,16
3380,173,-10,689,-945,-25,84
3381,144,-21,621,-1149,-33,192
3382,128,-54,525,-1281,-49,305
3383,119,-81,427,-1379,-111,344
3384,81,-108,346,-1451,-180,350
3385,59,-132,262,-1467,-213,328
3386,16,-146,201,-1479,-217,303
3387,-19,-154,130,-1537,-68,264
3388,-32,-150,75,-1576,164,113
3389,-27,-127,2,-1650,365,-25
3390,-16,-55,-26,-1922,608,-172
3391,-72,71,-45,-2232,1000,-254
3392,-140,174,-57,-2184,1527,-223
3393,-193,254,-51,-1680,2008,-168
3394,-231,272,-76,-826,2399,-70
3395,-248,215,-54,185,2711,-70
3396,-226,140,24,1137,2938,-166
3397,-171,200,134,1771,3191,-500
3398,-230,344,286,1973,3721,-894
3399,-338,407,517,2203,4410,-959
3400,-345,430,734,2502,4820,-930
3401,-261,417,983,2568,4797,-838
3402,-205,436,1155,2236,4402,-512
3403,-236,544,1291,1601,3983,-154
3404,-335,638,1396,1400,3916,238
3405,-327,669,1458,1650,3879,692
3406,-275,652,1537,1932,3795,1117
3407,-320,574,1660,2148,3674,1453
3408,-255,544,1851,2451,3350,1432
3409,-278,499,1906,2488,2920,1188
3410,-334,447,1955,2187,2498,1250
3411,-357,390,1980,1637,2320,1375
3412,-340,349,1942,1031,2385,1389
3413,-254,337,1999,379,2475,1369
3414,-217,373,2045,-338,2555,1233
3415,-182,462,2048,-846,2496,1350
3416,-101,540,2048,-789,2207,1688
3417,-66,602,2048,-250,1545,1953
3418,-69,566,2048,420,777,2227
3419,-105,525,2048,930,150,2611
3420,-141,483,2048,1059,-244,2893
3421,-165,386,1915,1019,-342,3029
3422,-205,331,1820,937,-207,3182
3423,-202,271,1780,914,143,3240
3424,-197,240,1794,1109,678,3125
3425,-218,235,1887,1457,1199,3020
3426,-200,193,2048,1764,1422,2926
3427,-134,145,2048,1855,1252,2742
3428,-128,104,2048,1623,781,2652
3429,-156,62,2048,1469,139,2668
3430,-121,18,2048,1525,-533,2740
3431,-149,-65,2048,1428,-1279,2899
3432,-200,-136,2048,1113,-1912,2957
3433,-250,-234,2048,744,-2324,2840
3434,-292,-259,2048,488,-2580,2660
3435,-331,-334,2048,203,-2809,2484
3436,-329,-358,2028,-197,-3029,2274
3437,-353,-370,1906,-625,-3254,2031
3438,-367,-328,1876,-1029,-3389,1740
3439,-349,-236,1802,-1344,-3412,1516
3440,-353,-164,1772,-1494,-3519,1408
3441,-364,-142,1720,-1322,-3695,1424
3442,-361,-204,1668,-1014,-3947,1479
3443,-377,-260,1540,-789,-4301,1434
3444,-407,-323,1407,-742,-4697,1352
3445,-416,-377,1224,-932,-5074,1238
3446,-441,-378,1058,-1356,-5350,1150
3447,-457,-374,829,-1912,-5453,1086
3448,-463,-359,614,-2346,-5359,934
3449,-474,-308,430,-2549,-5092,666
3450,-465,-276,243,-2510,-4791,410
3451,-399,-269,93,-2156,-4494,180
3452,-332,-211,0,-1512,-4193,-158
3453,-225,-164,-81,-748,-3900,-451
3454,-148,-113,-133,-125,-3676,-662
3455,-132,-46,-130,355,-3375,-760
3456,-89,22,-184,519,-2992,-695
3457,-28,-7,-220,332,-2498,-490
3458,52,39,-279,-149,-1969,-371
3459,110,54,-282,-693,-1371,-295
3460,138,38,-234,-928,-859,-289
3461,205,59,-133,-887,-566,-453
3462,277,133,-46,-891,-426,-683
3463,308,206,66,-897,-209,-732
3464,321,277,206,-844,160,-627
3465,290,285,419,-611,615,-504
3466,328,289,581,-229,951,-373
3467,371,239,690,66,1047,-168
3468,366,145,787,57,920,80
3469,335,24,834,-121,631,238
3470,321,-62,861,-281,315,252
3471,325,-102,867,-504,96,90
3472,328,-95,814,-885,-84,-107
3473,356,-47,728,-1352,-242,-285
3474,318,8,695,-1711,-205,-349
3475,251,88,684,-1688,61,-346
3476,271,154,665,-1295,365,-375
3477,325,176,638,-740,553,-453
3478,328,228,622,-168,615,-549
3479,306,245,651,299,660,-488
3480,315,255,751,660,842,-428
3481,351,274,853,971,1012,-410
3482,355,294,911,1055,1061,-312
3483,378,224,900,900,1006,-142
3484,379,167,933,615,840,57
3485,347,132,904,281,713,174
3486,327,85,877,14,637,219
3487,285,72,880,-27,703,172
3488,292,90,945,82,863,78
3489,316,94,1000,226,1035,-8
3490,347,112,1082,406,1108,-14
3491,336,100,1108,496,1066,61
3492,340,79,1129,502,766,145
3493,339,73,1124,496,418,86
3494,316,81,1114,443,168,33
3495,304,86,1082,355,57,61
3496,307,58,1057,129,18,111
3497,307,43,1027,-100,-27,205
3498,278,33,970,-238,-47,238
3499,260,22,941,-211,-27,188
3500,251,18,966,-39,102,70
3501,244,47,980,101,287,-27
3502,272,44,998,146,404,-60
3503,264,46,1011,137,408,-64
3504,267,45,1031,103,389,-60
3505,277,68,1080,105,359,-99
3506,289,84,1119,107,262,-103
3507,298,78,1099,51,117,-76
3508,299,53,1060,-24,-78,-37
3509,273,54,1032,-149,-211,-25
3510,272,62,1015,-256,-244,10
3511,271,72,986,-363,-242,57
3512,269,79,966,-445,-150,86
3513,270,110,973,-399,20,117
3514,274,122,1016,-250,174,125
3515,291,114,1015,-16,195,131
3516,290,90,1009,168,100,197
3517,294,51,997,307,-80,252
3518,293,20,972,371,-303,252
3519,254,-2,943,396,-430,215
3520,260,-19,901,451,-394,109
3521,257,-29,901,447,-266,-31
3522,266,-18,905,303,-74,-168
3523,279,7,901,84,104,-242
3524,295,47,932,-195,227,-293
3525,285,91,966,-410,359,-283
3526,296,126,1009,-463,422,-217
3527,308,140,1022,-322,416,-160
3528,305,132,1038,-160,326,-84
3529,322,108,1019,-37,186,-6
3530,306,82,978,-72,33,41
3531,267,62,966,-145,-27,63
3532,254,51,962,-150,10,35
3533,267,52,962,-135,104,-41
3534,277,34,960,-86,150,-107
3535,274,36,968,-24,164,-162
3536,263,35,1006,6,184,-189
3537,270,52,1013,-8,207,-217
3538,279,65,1027,-25,209,-221
3539,292,74,1007,-90,158,-162
3540,290,83,1014,-133,109,-84
3541,270,64,993,-141,53,-37
3542,254,61,993,-137,47,-49
3543,253,60,983,-150,113,-66
3544,264,56,1001,-170,190,-23
3545,259,29,1032,-129,225,4
3546,257,24,1029,-43,205,4
3547,269,-16,1011,80,158,-25
3548,266,-26,1025,164,123,-107
3549,266,-22,1043,137,149,-209
3550,253,-7,1053,19,225,-217
3551,273,-7,1078,-104,209,-183
3552,279,-6,1094,-207,61,-183
3553,284,-6,1040,-252,-133,-207
3554,264,-22,957,-215,-328,-207
3555,230,-24,928,-180,-387,-256
3556,231,-22,892,-135,-273,-287
3557,228,-12,879,-162,-60,-285
3558,216,-16,898,-197,141,-254
3559,221,-16,911,-189,285,-242
3560,237,-20,953,-141,367,-271
3561,244,-59,969,-82,346,-326
3562,256,-81,980,-90,252,-404
3563,250,-67,1008,-240,170,-500
3564,245,-29,1008,-438,92,-539
3565,238,-21,1007,-486,61,-510
3566,257,-15,989,-385,57,-512
3567,257,-13,993,-277,10,-564
3568,251,-11,964,-189,-47,-603
3569,242,-1,941,-172,-45,-598
3570,224,-5,942,-127,20,-605
3571,233,1,956,-84,119,-605
3572,251,-12,976,-80,205,-605
3573,245,-25,970,-160,225,-613
3574,239,-6,977,-244,236,-603
3575,232,6,997,-258,252,-613
3576,239,2,1010,-217,231,-629
3577,229,-4,1023,-195,170,-678
3578,222,3,1032,-135,152,-715
3579,237,-3,1026,-57,84,-795
3580,243,6,1016,-22,-25,-867
3581,240,6,996,-51,-74,-869
3582,212,16,980,-115,-51,-848
3583,221,16,974,-168,-16,-838
3584,224,7,957,-189,25,-830
3585,227,29,977,-180,59,-838
3586,226,30,985,-186,111,-818
3587,228,41,984,-205,150,-828
3588,220,60,974,-184,156,-836
3589,226,64,980,-113,182,-828
3590,231,66,991,-16,192,-820
3591,230,54,1001,51,168,-871
3592,236,78,1027,72,133,-861
3593,231,75,1010,21,22,-787
3594,229,67,976,-64,-60,-674
3595,218,58,953,-121,-107,-621
3596,193,68,941,-219,-82,-592
3597,210,66,936,-334,-35,-555
3598,200,74,944,-365,22,-578
3599,187,69,957,-326,158,-623
3600,203,66,982,-258,250,-699
3601,203,61,970,-264,291,-721
3602,202,72,1007,-330,320,-732
3603,205,81,1023,-309,334,-764
3604,223,102,1030,-213,326,-799
3605,230,102,1067,-82,256,-783
3606,233,110,1063,4,164,-767
3607,236,102,1066,31,74,-732
3608,227,86,1057,21,-23,-687
3609,194,86,1029,-12,-64,-664
3610,208,85,1016,-104,-47,-641
3611,202,59,994,-191,-39,-605
3612,203,58,990,-217,-12,-607
3613,200,53,994,-195,49,-633
3614,212,50,993,-180,127,-683
3615,223,67,1011,-227,176,-769
3616,235,77,1028,-354,182,-793
3617,236,76,1009,-486,156,-762
3618,228,107,1032,-611,160,-767
3619,230,131,1046,-584,197,-769
3620,221,158,1050,-443,180,-762
3621,245,143,1067,-225,88,-726
3622,249,135,1054,-49,-70,-699
3623,222,123,1012,-20,-225,-664
3624,217,90,969,-39,-260,-625
3625,199,87,975,-78,-187,-605
3626,184,85,951,-96,-55,-598
3627,178,99,977,-84,80,-570
3628,188,99,995,-70,152,-558
3629,204,83,1017,-6,229,-576
3630,198,92,1052,14,264,-609
3631,212,98,1081,-90,199,-629
3632,234,114,1094,-260,96,-600
3633,227,126,1065,-428,-60,-521
3634,214,128,1010,-439,-195,-445
3635,195,138,1001,-305,-244,-449
3636,185,148,965,-86,-230,-494
3637,198,142,979,102,-154,-517
3638,200,132,958,199,-137,-533
3639,202,145,958,191,-66,-476
3640,200,124,958,131,-37,-406
3641,190,130,968,74,-33,-353
3642,198,119,974,78,-12,-367
3643,204,127,984,74,0,-406
3644,219,128,988,-10,-39,-394
3645,221,135,985,-135,-68,-336
3646,225,127,972,-211,-57,-238
3647,215,142,973,-201,-23,-230
3648,193,146,970,-82,20,-250
3649,204,140,987,-27,72,-223
3650,211,133,992,-6,108,-195
3651,213,127,1014,-22,82,-172
3652,210,127,1004,-18,43,-160
3653,218,118,1015,-27,33,-150
3654,215,101,1010,-6,27,-133
3655,213,88,1009,-14,29,-107
3656,229,84,1014,-53,45,-86
3657,222,84,1028,-137,29,-84
3658,217,80,1010,-205,0,-72
3659,222,84,1032,-217,4,-74
3660,211,91,1039,-188,39,-119
3661,204,94,1076,-119,80,-127
3662,221,90,1079,-27,96,-92
3663,228,88,1081,2,22,-86
3664,210,86,1058,-61,-96,-51
3665,205,72,1041,-135,-176,-19
3666,183,74,1014,-131,-189,-19
3667,181,79,1014,-29,-156,-72
3668,200,81,1022,117,-156,-86
3669,219,79,1015,219,-168,-78
3670,220,72,1017,262,-211,-80
3671,214,66,983,230,-234,-74
3672,215,79,985,168,-209,-57
3673,198,69,990,92,-174,-33
3674,203,64,1001,29,-150,-37
3675,212,65,983,-12,-172,-41
3676,221,64,955,-61,-182,-33
3677,208,74,953,-82,-189,-41
3678,200,67,944,-57,-174,-72
3679,205,72,933,-63,-166,-96
3680,220,72,920,-123,-150,-84
3681,217,77,889,-186,-152,-82
3682,220,73,874,-203,-135,-88
3683,212,100,876,-193,-74,-64
3684,196,99,891,-127,0,-45
3685,218,88,931,14,43,-57
3686,231,90,951,156,63,-66
3687,227,94,952,203,78,-76
3688,227,73,976,186,68,-51
3689,234,62,998,98,47,-27
3690,249,54,993,-31,6,-25
3691,231,48,968,-180,-51,-25
3692,223,46,933,-303,-96,-39
3693,229,63,909,-439,-123,-57
3694,203,63,867,-586,-139,-19
3695,198,77,843,-660,-105,14
3696,188,68,795,-695,-98,53
3697,188,71,757,-797,-45,133
3698,170,44,699,-875,-19,221
3699,157,8,635,-936,-47,254
3700,133,-9,547,-1070,-125,248
3701,116,-34,436,-1352,-260,303
3702,73,-54,310,-1725,-422,404
3703,25,-42,190,-2121,-549,533
3704,7,-36,29,-2510,-637,668
3705,-13,-33,-92,-2781,-609,727
3706,-42,-51,-177,-2824,-512,680
3707,-74,24,-236,-2832,-185,455
3708,-92,128,-278,-2713,324,203
3709,-145,205,-345,-2422,848,86
3710,-119,268,-349,-1820,1365,100
3711,-198,292,-312,-885,1955,258
3712,-288,283,-230,180,2707,518
3713,-327,172,-87,1150,3393,645
3714,-352,90,71,1836,3920,508
3715,-363,49,241,2010,4291,275
3716,-391,41,442,1687,4631,174
3717,-351,41,655,1080,4979,152
3718,-338,113,876,533,5037,-25
3719,-426,203,1072,275,4830,-98
3720,-457,239,1291,631,4621,-19
3721,-424,230,1504,1394,4451,-35
3722,-359,160,1690,2051,4135,31
3723,-254,137,1799,2215,3543,-19
3724,-236,204,1869,1799,3092,-27
3725,-247,232,1942,1328,2846,139
3726,-227,320,1993,990,2527,283
3727,-225,373,1967,430,2209,453
3728,-229,431,1959,72,1861,654
3729,-214,509,1958,133,1738,697
3730,-171,507,1983,547,1861,643
3731,-131,533,2048,1246,2043,520
3732,-90,548,2048,1730,2068,426
3733,22,534,2048,1746,1567,455
3734,94,549,2048,1227,627,666
3735,73,579,2048,529,-262,1168
3736,16,563,2048,160,-795,1760
3737,30,509,2048,236,-859,2272
3738,32,425,2048,404,-619,2514
3739,44,357,2048,467,-301,2613
3740,59,292,2048,371,-170,2705
3741,52,256,2048,252,-207,2803
3742,1,207,1993,172,-240,3016
3743,-40,146,1860,78,-207,3160
3744,-83,150,1748,-20,2,3164
3745,-133,172,1650,51,287,3049
3746,-174,200,1702,662,494,2727
3747,-132,261,1752,1535,619,2326
3748,-146,295,1845,2578,391,1943
3749,-171,291,1930,3486,-16,1807
3750,-170,203,1996,3982,-496,1977
3751,-180,53,2026,3998,-965,2268
3752,-175,-117,2048,3564,-1314,2481
3753,-214,-272,2048,2830,-1586,2631
3754,-249,-396,2048,1838,-1871,2772
3755,-295,-438,2048,799,-2269,2734
3756,-340,-415,1936,-86,-2814,2551
3757,-390,-386,1740,-748,-3277,2359
3758,-395,-385,1565,-1117,-3473,2190
3759,-377,-378,1476,-1192,-3516,1971
3760,-365,-376,1410,-1051,-3537,1623
3761,-331,-357,1382,-760,-3609,1285
3762,-319,-361,1358,-401,-3732,1002
3763,-277,-328,1314,-197,-3824,869
3764,-283,-329,1259,-209,-3982,883
3765,-270,-375,1162,-401,-4201,1049
3766,-255,-397,1026,-840,-4441,1184
3767,-279,-381,901,-1383,-4601,1203
3768,-295,-375,788,-1797,-4639,1182
3769,-284,-364,673,-2035,-4617,990
3770,-263,-328,569,-2254,-4500,666
3771,-255,-282,462,-2377,-4340,309
3772,-223,-231,326,-2385,-4068,-70
3773,-166,-179,246,-2309,-3871,-453
3774,-118,-83,174,-2215,-3601,-631
3775,-108,-20,102,-2119,-3191,-639
3776,-43,35,46,-1818,-2777,-570
3777,1,68,19,-1340,-2348,-648
3778,66,89,-1,-822,-1996,-691
3779,117,128,4,-420,-1721,-726
3780,143,162,-18,-203,-1455,-660
3781,168,150,-26,-80,-1234,-537
3782,212,143,-14,0,-1016,-500
3783,253,138,27,-111,-764,-555
3784,269,181,103,-326,-490,-641
3785,257,212,140,-537,-225,-642
3786,259,237,211,-668,37,-564
3787,257,233,272,-619,342,-404
3788,304,183,342,-457,615,-238
3789,365,165,421,-291,670,-246
3790,368,173,465,-276,539,-330
3791,358,176,515,-334,465,-289
3792,355,169,561,-436,477,-142
3793,325,149,601,-582,576,45
3794,305,131,612,-721,695,151
3795,289,120,655,-734,832,88
3796,313,118,703,-516,969,-148
3797,339,167,759,-88,1115,-430
3798,348,179,841,375,1254,-537
3799,364,151,925,680,1328,-498
3800,356,135,973,654,1295,-412
3801,365,104,1013,506,1094,-287
3802,393,68,1017,289,791,-103
3803,381,58,1025,115,555,-105
3804,346,79,1066,12,461,-164
3805,345,112,1075,-31,465,-191
3806,348,129,1063,-29,440,-174
3807,347,113,1053,-76,379,-137
3808,358,116,999,-156,334,-103
3809,340,107,989,-211,344,-109
3810,317,116,1001,-106,445,-125
3811,329,118,1031,144,551,-156
3812,348,101,1063,308,578,-189
3813,350,117,1089,242,533,-223
3814,334,118,1085,78,463,-156
3815,338,111,1073,-51,404,-4
3816,330,96,1068,-51,338,96
3817,314,65,1066,96,303,104
3818,308,46,1072,279,248,47
3819,304,10,1083,385,195,-12
3820,331,4,1076,332,143,-60
3821,337,40,1058,33,47,-123
3822,313,67,1019,-336,-45,-66
3823,297,56,956,-557,-66,51
3824,269,65,941,-514,-33,70
3825,262,58,942,-277,104,-6
3826,283,55,956,21,207,-137
3827,306,75,980,182,250,-226
3828,310,78,986,146,233,-185
3829,309,84,1000,49,174,-62
3830,299,65,996,-41,100,27
3831,287,51,959,-45,70,20
3832,299,70,982,17,68,-23
3833,295,66,966,105,41,-43
3834,287,62,964,113,-10,-33
3835,272,55,954,119,20,-57
3836,280,64,974,82,109,-113
3837,294,75,984,-16,158,-141
3838,308,87,985,-135,186,-105
3839,304,103,973,-211,164,-47
3840,300,91,958,-240,137,43
3841,284,76,951,-188,137,96
3842,291,52,972,-90,149,70
3843,288,45,992,-12,180,-2
3844,294,34,1023,55,195,-31
3845,308,35,1044,60,164,-72
3846,313,41,1079,-6,98,-115
3847,314,81,1040,-170,14,-156
3848,315,110,1012,-373,-88,-158
3849,282,102,977,-397,-176,-84
3850,271,94,958,-285,-127,-37
3851,280,103,953,-166,-59,-57
3852,286,74,948,-65,-35,-35
3853,281,76,925,23,-17,-51
3854,278,58,929,51,2,-23
3855,279,46,935,23,53,16
3856,275,37,955,-22,125,12
3857,270,29,966,-37,197,-8
3858,281,19,988,-14,211,-12
3859,287,0,1010,4,139,-31
3860,298,16,1038,-39,59,-105
3861,304,49,1014,-61,-10,-185
3862,304,72,1005,-110,-115,-195
3863,290,70,976,-168,-201,-94
3864,270,79,959,-123,-213,-31
3865,261,36,940,56,-144,-8
3866,264,8,962,211,-17,0
3867,285,-19,995,191,74,-25
3868,281,-21,1014,82,92,-43
3869,266,-24,1031,-69,57,-23
3870,271,-36,1044,-162,63,-57
3871,302,-45,1044,-223,25,-152
3872,298,-36,1021,-364,-70,-254
3873,293,-10,985,-459,-178,-303
3874,286,0,947,-483,-226,-291
3875,268,-7,929,-465,-191,-289
3876,268,-8,921,-471,-129,-285
3877,269,-4,900,-399,-47,-307
3878,287,0,908,-289,12,-348
3879,293,20,906,-227,51,-371
3880,297,0,923,-178,90,-369
3881,278,-4,948,-141,125,-351
3882,290,-11,981,-114,162,-326
3883,308,-34,1006,-125,178,-340
3884,290,-31,1024,-182,170,-361
3885,296,-26,1024,-252,131,-365
3886,300,-18,1011,-336,80,-383
3887,298,-14,987,-326,-39,-398
3888,274,-7,960,-254,-109,-385
3889,268,-5,931,-186,-66,-453
3890,266,3,937,-106,8,-469
3891,285,-7,929,-90,78,-451
3892,287,-9,953,-131,152,-455
3893,287,-9,964,-196,197,-469
3894,280,-29,977,-221,223,-445
3895,281,-49,1007,-309,250,-426
3896,273,-66,1033,-510,219,-439
3897,273,-70,1063,-836,215,-437
3898,274,-56,1038,-1223,174,-439
3899,266,-53,1005,-1477,188,-371
3900,233,-35,1001,-1508,225,-351
3901,246,-45,995,-1336,289,-371
3902,261,-42,985,-840,275,-510
3903,253,-43,980,-229,176,-676
3904,276,-49,979,242,61,-836
3905,262,-65,974,435,-94,-935
3906,249,-78,960,301,-137,-898
3907,255,-75,962,29,-86,-869
3908,248,-57,955,-280,27,-885
3909,236,-53,943,-518,143,-867
3910,253,-35,965,-582,219,-828
3911,251,-34,952,-506,225,-832
3912,239,-44,944,-367,193,-855
3913,240,-68,948,-291,152,-879
3914,246,-50,949,-334,160,-932
3915,234,-31,942,-321,184,-986
3916,247,-27,956,-199,203,-1000
3917,246,-2,955,-92,176,-1021
3918,246,0,965,-18,184,-1041
3919,247,23,971,25,158,-1062
3920,257,23,972,25,94,-1025
3921,249,33,952,-49,24,-963
3922,240,36,952,-147,20,-922
3923,226,38,942,-209,72,-875
3924,223,39,948,-235,160,-846
3925,225,36,965,-258,264,-842
3926,219,53,980,-301,359,-848
3927,236,70,1018,-239,424,-871
3928,264,104,1015,-94,414,-947
3929,270,122,1015,-37,352,-957
3930,274,141,1012,-71,281,-830
3931,270,186,1022,-133,219,-726
3932,260,202,1004,-33,125,-631
3933,259,191,1002,170,92,-512
3934,264,181,994,316,84,-402
3935,272,144,1004,320,57,-373
3936,252,137,989,246,59,-349
3937,220,115,985,131,184,-258
3938,226,107,1005,29,332,-219
3939,229,101,1041,-96,453,-242
3940,268,110,1076,-217,484,-281
3941,262,117,1084,-268,365,-310
3942,262,115,1087,-231,215,-297
3943,257,121,1073,-170,70,-291
3944,240,125,1036,-131,-8,-310
3945,231,120,1051,-121,-31,-260
3946,229,130,1029,-104,4,-197
3947,224,98,1015,-14,53,-197
3948,227,90,1047,117,102,-217
3949,222,77,1061,203,108,-267
3950,242,65,1039,156,53,-281
3951,236,64,1027,4,4,-279
3952,234,77,1024,-180,-37,-265
3953,227,97,1017,-283,-37,-269
3954,234,114,1004,-289,-68,-230
3955,227,120,979,-166,-96,-215
3956,228,129,984,56,-113,-244
3957,236,140,986,260,-150,-271
3958,235,123,962,387,-146,-250
3959,230,112,949,402,-139,-201
3960,226,98,948,351,-123,-139
3961,221,102,953,215,-78,-90
3962,234,78,948,-8,-39,-45
3963,228,91,938,-197,20,-2
3964,223,90,926,-303,39,59
3965,217,72,951,-266,82,94
